State - Time (s),State - PX (m),State - PY (m),State - PZ (m),State - VX (m/s),State - VY (m/s),State - VZ (m/s),State - AX (m/s/s),State - AY (m/s/s),State - AZ (m/s/s),DPS310 - Pres (hPa),DPS310 - Temp (C),DPS310 - Alt ASL (ft),DPS310 - Alt AGL (ft),MS5611 - Pres (hPa),MS5611 - Temp (C),MS5611 - Alt ASL (ft),MS5611 - Alt AGL (ft),BMI088andLIS3MDL - AccX,BMI088andLIS3MDL - AccY,BMI088andLIS3MDL - AccZ,BMI088andLIS3MDL - GyroX,BMI088andLIS3MDL - GyroY,BMI088andLIS3MDL - GyroZ,BMI088andLIS3MDL - MagX,BMI088andLIS3MDL - MagY,BMI088andLIS3MDL - MagZ,BMI088andLIS3MDL - OriX,BMI088andLIS3MDL - OriY,BMI088andLIS3MDL - OriZ,BMI088andLIS3MDL - OriW,MAX-M10S - Lat,MAX-M10S - Lon,MAX-M10S - Alt (m),MAX-M10S - Disp X (m),MAX-M10S - Disp Y (m),MAX-M10S - Disp Z (m),MAX-M10S - Fix Quality,VN_100 - VN-AX (m/s/s),VN_100 - VN-AY (m/s/s),VN_100 - VN-AZ (m/s/s),VN_100 - VN-ULRX (deg),VN_100 - VN-ULRY (deg),VN_100 - VN-ULRZ (deg),VN_100 - VN-ANGVX (rad/s),VN_100 - VN-ANGVY (rad/s),VN_100 - VN-ANGVZ (rad/s),VN_100 - VN-MAGX (uT),VN_100 - VN-MAGY (uT),VN_100 - VN-MAGZ (uT),VN_100 - VN-P (Pa),VN_100 - VN-T (C),VN_100 - VN-DT (s),VN_100 - VN-DV-X (m/s/s),VN_100 - VN-DV-Y (m/s/s),VN_100 - VN-DV-Z (m/s/s),VN_100 - VN-DTH-X (deg/s),VN_100 - VN-DTH-Y (deg/s),VN_100 - VN-DTH-Z (deg/s)
1203.579,-0.004,0.003,0.038,0.002,0.019,0.115,0.022,-0.074,0.074,1003.093,25.343,84.861,-0.041,1003.38,25.6,82.452,-0.378,-0.718,0.251,-9.855,0.058,-0.07,0.002,-2709,-2457,-3756,-0.877,0.478,0.041,0.009,38.3982882,-78.0637938,91.207,-0.01,-0.039,0.112,12,-0.541,0.094,-9.61,69.597,-3.061,-0.59,0.001,0,-0.001,12.506,-29.831,56.388,100401,28.5,0.099,-0.05,0.01,-0.948,0.038,0.032,-0.209
1208.579,0.105,-0.036,0.081,0.041,-0.07,0.133,-0.039,-0.058,0.014,1003.086,25.351,84.921,0.016,1003.35,25.61,82.704,-0.109,-0.754,0.316,-9.79,0.036,0.045,-0.06,-2770,-2465,-3783,-0.876,0.481,0.041,0.008,38.3982894,-78.0637946,92.274,0.059,-0.009,0.433,13,-0.52,0.109,-9.624,69.601,-3.064,-0.587,0,0.001,0.003,12.511,-29.732,56.143,100389.008,28.52,0.101,-0.053,0.01,-0.972,0.035,0.033,-0.205
1213.579,0.182,0.107,0.041,0.06,0.028,0.108,0.02,-0.055,0.081,1003.088,25.371,84.904,-0.02,1003.35,25.62,82.704,-0.226,-0.725,0.201,-9.862,0.053,-0.043,-0.043,-2698,-2490,-3805,-0.857,0.514,0.039,0.012,38.3982923,-78.0637941,93.074,0.151,0.052,0.292,10,-0.525,0.087,-9.631,69.574,-3.062,-0.579,0,0.001,0,12.747,-29.637,56.152,100398,28.55,0.099,-0.051,0.01,-0.949,0.033,0.032,-0.203
1218.579,0.061,0.084,0.073,-0.03,0.002,0.151,-0.042,-0.007,0.087,1003.086,25.396,84.917,-0.002,1003.29,25.63,83.207,0.344,-0.797,0.23,-9.862,0.083,0.011,0.032,-2737,-2449,-3759,-0.856,0.515,0.039,0.012,38.3982954,-78.0637915,94.254,0.063,0.076,0.06,12,-0.54,0.078,-9.589,69.553,-3.065,-0.587,0,0,-0.001,12.513,-29.841,56.275,100390.008,28.56,0.1,-0.052,0.01,-0.961,0.036,0.029,-0.215
1223.579,0.046,-0.04,0.051,0.013,0.049,0.113,0.047,0.016,0.065,1003.086,25.418,84.919,-0.008,1003.36,25.66,82.62,-0.285,-0.79,0.244,-9.841,-0.075,-0.013,0.036,-2754,-2433,-3763,-0.843,0.535,0.042,0.009,38.3982971,-78.0637906,94.759,0.031,-0.088,0.551,10,-0.521,0.102,-9.609,69.575,-3.066,-0.578,0,0.001,0,12.515,-29.843,56.405,100398,28.59,0.1,-0.052,0.011,-0.96,0.037,0.032,-0.208
1228.579,-0.071,0.034,0.08,0.019,0.044,0.168,0.057,0.012,0.089,1003.09,25.432,84.881,-0.003,1003.32,25.68,82.955,0.184,-0.74,0.223,-9.869,-0.102,0.015,-0.047,-2756,-2454,-3726,-0.843,0.536,0.04,0.008,38.3982954,-78.0637908,94.722,-0.064,0.003,-0.224,11,-0.509,0.087,-9.592,69.591,-3.062,-0.582,0,0,0,12.746,-29.954,56.28,100387,28.6,0.099,-0.051,0.01,-0.95,0.033,0.032,-0.202
1233.579,-0.021,-0.031,0.018,-0.049,-0.004,0.062,-0.054,-0.034,0.092,1003.091,25.44,84.879,0.016,1003.29,25.69,83.207,0.428,-0.74,0.323,-9.869,-0.03,0.009,0.079,-2749,-2468,-3753,-0.839,0.542,0.039,0.01,38.3982941,-78.0637906,94.491,-0.02,-0.012,0.272,12,-0.528,0.11,-9.626,69.581,-3.056,-0.581,-0.002,0.001,0.001,12.631,-30.057,56.026,100407.008,28.615,0.101,-0.052,0.01,-0.972,0.033,0.033,-0.209
1238.579,-0.064,0.016,0.021,-0.099,-0.01,0.042,-0.096,0.004,0.071,1003.095,25.459,84.842,-0.002,1003.4,25.71,82.284,-0.646,-0.869,0.215,-9.841,0.115,-0.045,-0.038,-2755,-2472,-3872,-0.827,0.56,0.038,0.018,38.3982935,-78.0637885,94.457,-0.016,0.047,0.029,12,-0.5,0.09,-9.61,69.593,-3.071,-0.581,-0.001,0,0,12.637,-29.854,56.037,100399,28.64,0.1,-0.052,0.01,-0.961,0.035,0.031,-0.21
1243.579,-0.011,0.006,0.068,-0.015,0.008,0.052,-0.031,0.053,-0.002,1003.095,25.486,84.845,0.028,1003.35,25.73,82.704,-0.1,-0.754,0.266,-9.776,0.026,0.151,-0.002,-2743,-2470,-3835,-0.851,0.524,0.037,0.007,38.3982925,-78.0637859,93.857,-0.026,0.017,-0.209,12,-0.521,0.106,-9.6,69.613,-3.061,-0.583,0,0,0,12.638,-29.96,55.912,100399,28.655,0.099,-0.052,0.01,-0.949,0.034,0.031,-0.205
1248.579,0.033,0.006,0.036,-0.05,0.117,0.048,-0.025,0.087,0.036,1003.092,25.499,84.864,0.012,1003.35,25.75,82.704,-0.511,-0.848,0.316,-9.805,-0.045,0.03,-0.089,-2728,-2454,-3800,-0.818,0.574,0.041,0.009,38.3982938,-78.063787,92.983,0.058,-0.084,-0.096,13,-0.521,0.122,-9.627,69.582,-3.056,-0.584,0,0,-0.001,12.639,-29.962,56.041,100396,28.68,0.1,-0.051,0.01,-0.961,0.034,0.031,-0.209
1253.579,-0.017,-0.084,0.076,0.03,-0.039,0.093,0.066,0.002,0.033,1003.086,25.523,84.92,0.037,1003.34,25.76,82.787,-0.285,-0.769,0.18,-9.812,-0.068,-0.013,-0.028,-2734,-2454,-3794,-0.829,0.558,0.04,0.012,38.3982937,-78.0637909,93.429,-0.033,-0.051,0.069,12,-0.486,0.091,-9.605,69.569,-3.059,-0.584,0,0,0,12.644,-29.863,56.051,100400,28.7,0.1,-0.051,0.01,-0.961,0.036,0.029,-0.211
1258.579,0.013,0.019,0.086,0.106,0.044,0.122,0.082,-0.036,0.068,1003.087,25.548,84.911,0.008,1003.31,25.77,83.039,0.042,-0.769,0.144,-9.848,0,-0.109,-0.113,-2744,-2467,-3784,-0.807,0.589,0.04,0.016,38.3982927,-78.0637926,93.751,-0.027,-0.034,0.016,13,-0.527,0.088,-9.606,69.578,-3.057,-0.579,0,0.001,0,12.528,-29.86,56.686,100392.008,28.72,0.1,-0.052,0.01,-0.961,0.038,0.029,-0.213
1263.579,-0.029,0.022,0.013,-0.022,0.007,0.009,-0.007,0.048,-0.021,1003.085,25.558,84.928,0.009,1003.37,25.81,82.536,-0.444,-0.883,0.201,-9.747,0.026,-0.047,-0.013,-2739,-2474,-3853,-0.838,0.544,0.042,0.014,38.3982921,-78.063792,93.753,-0.02,0.03,-0.157,12,-0.526,0.098,-9.615,69.578,-3.056,-0.582,0.001,-0.001,-0.002,12.76,-29.972,56.053,100401,28.74,0.1,-0.051,0.011,-0.96,0.041,0.029,-0.214
1268.579,0.066,-0.081,0.087,0.074,0.04,0.167,0.046,0.067,0.116,1003.084,25.571,84.932,0.004,1003.27,25.81,83.374,0.377,-0.812,0.223,-9.891,-0.036,0.045,-0.094,-2745,-2452,-3781,-0.853,0.521,0.041,0.008,38.3982928,-78.0637944,94.212,0.026,-0.103,0.216,12,-0.5,0.114,-9.574,69.577,-3.062,-0.588,0,0,0,12.643,-30.179,55.923,100389.008,28.75,0.1,-0.051,0.011,-0.961,0.033,0.033,-0.205
1273.579,0.059,0.002,-0.004,0.02,0.018,0.077,0.019,0.038,0.019,1003.083,25.596,84.945,-0.054,1003.29,25.83,83.207,0.168,-0.74,0.287,-9.797,-0.115,0.094,0.149,-2726,-2477,-3782,-0.861,0.507,0.04,0.004,38.3982945,-78.063794,93.917,0.053,-0.003,-0.008,12,-0.499,0.102,-9.623,69.571,-3.048,-0.585,0.002,-0.001,0,12.649,-29.976,55.935,100397,28.775,0.1,-0.049,0.012,-0.961,0.04,0.03,-0.208
1278.579,-0.091,-0.035,0.059,-0.104,-0.057,0.049,-0.069,-0.071,-0.082,1003.082,25.622,84.955,0.007,1003.32,25.84,82.955,-0.067,-0.812,0.309,-9.69,0.092,-0.119,-0.098,-2712,-2467,-3770,-0.868,0.494,0.043,0.012,38.3982947,-78.0637941,94.009,-0.028,-0.001,0.077,12,-0.516,0.135,-9.576,69.592,-3.057,-0.594,0.001,-0.001,-0.001,12.767,-29.98,55.812,100374.008,28.79,0.1,-0.051,0.012,-0.961,0.034,0.033,-0.204
1283.579,-0.073,-0.027,0.016,-0.022,0.014,0.094,-0.035,-0.036,0.04,1003.09,25.641,84.883,-0.051,1003.26,25.86,83.458,0.537,-0.718,0.316,-9.819,0.111,0.079,-0.066,-2744,-2475,-3778,-0.862,0.505,0.039,0.007,38.3982939,-78.0637955,93.918,-0.051,-0.048,-0.073,12,-0.483,0.104,-9.631,69.583,-3.058,-0.583,-0.001,0.001,0,12.419,-30.078,56.446,100382,28.81,0.1,-0.051,0.01,-0.961,0.031,0.034,-0.206
1218.679,0.05,0.077,0.076,-0.046,-0.034,0.13,-0.037,-0.055,0.067,1003.087,25.393,84.907,-0.01,1003.34,25.65,82.787,-0.118,-0.804,0.287,-9.841,0.028,-0.089,0.113,-2766,-2409,-3788,-0.853,0.52,0.042,0.012,38.3982955,-78.0637914,94.212,0.068,0.082,-0.005,12,-0.538,0.068,-9.629,69.557,-3.067,-0.585,0,0,0,12.51,-29.943,56.651,100390.008,28.56,0.1,-0.053,0.009,-0.961,0.036,0.031,-0.206
1218.779,0.04,0.058,0.066,-0.055,-0.085,0.063,-0.035,-0.088,-0.012,1003.087,25.395,84.911,-0.002,1003.36,25.64,82.62,-0.335,-0.697,0.323,-9.769,0.049,0.009,0.023,-2741,-2415,-3724,-0.852,0.522,0.04,0.009,38.3982956,-78.0637913,94.194,0.072,0.088,-0.047,11,-0.497,0.072,-9.611,69.558,-3.068,-0.585,0,0.001,0.001,12.625,-30.049,56.141,100402.008,28.56,0.1,-0.052,0.01,-0.961,0.035,0.03,-0.207
1218.879,0.039,0.035,0.056,-0.035,-0.103,0.094,-0.002,-0.057,0.092,1003.087,25.396,84.91,-0.001,1003.32,25.65,82.955,0.059,-0.776,0.237,-9.869,0.075,-0.111,0.006,-2738,-2441,-3825,-0.852,0.522,0.041,0.013,38.3982957,-78.0637912,94.128,0.078,0.093,-0.13,12,-0.503,0.097,-9.633,69.557,-3.066,-0.587,-0.001,-0.001,0,12.627,-29.947,55.891,100390.008,28.57,0.1,-0.051,0.01,-0.961,0.034,0.032,-0.209
1218.979,0.04,0.026,0.051,-0.039,-0.072,0.019,-0.024,-0.008,-0.04,1003.086,25.393,84.92,0.008,1003.28,25.65,83.291,0.402,-0.711,0.294,-9.74,-0.03,0.111,0.121,-2747,-2439,-3837,-0.849,0.527,0.038,0.007,38.3982957,-78.0637911,94.091,0.073,0.096,-0.176,10,-0.505,0.096,-9.594,69.558,-3.064,-0.588,0,0,-0.002,12.742,-29.948,56.399,100402.008,28.56,0.1,-0.051,0.011,-0.96,0.035,0.03,-0.207
1219.079,0.045,0.032,0.035,-0.026,-0.058,0.065,-0.006,-0.021,0.074,1003.087,25.398,84.907,-0.006,1003.34,25.64,82.787,-0.126,-0.733,0.215,-9.855,0.083,-0.049,-0.068,-2733,-2414,-3783,-0.851,0.524,0.038,0.011,38.3982958,-78.063791,94.047,0.08,0.099,-0.222,11,-0.509,0.082,-9.601,69.553,-3.065,-0.586,0,0,-0.001,12.745,-29.846,56.023,100402.008,28.56,0.1,-0.052,0.01,-0.961,0.037,0.03,-0.213
1219.179,0.068,0.064,0.036,-0.028,-0.049,0.081,-0.069,-0.036,0.114,1003.083,25.391,84.944,0.031,1003.33,25.65,82.871,-0.059,-0.776,0.259,-9.891,0.098,-0.026,-0.013,-2720,-2421,-3809,-0.851,0.524,0.038,0.013,38.3982959,-78.063791,94.071,0.087,0.092,-0.198,11,-0.525,0.099,-9.596,69.553,-3.068,-0.581,0,0,0.002,12.861,-29.849,55.77,100402.008,28.56,0.1,-0.053,0.01,-0.96,0.037,0.031,-0.21
1219.279,0.069,0.074,0.036,-0.036,-0.038,0.07,-0.04,0.013,-0.01,1003.085,25.396,84.924,0.013,1003.35,25.65,82.704,-0.109,-0.84,0.237,-9.762,0.009,-0.017,0.092,-2757,-2417,-3766,-0.848,0.528,0.041,0.013,38.3982959,-78.0637908,94.042,0.083,0.103,-0.228,11,-0.516,0.103,-9.612,69.554,-3.069,-0.582,0.001,0,-0.001,12.398,-29.839,56.148,100402.008,28.57,0.099,-0.051,0.01,-0.949,0.035,0.03,-0.206
1219.379,0.071,0.076,0.045,-0.016,-0.042,0.082,0.04,-0.031,0.057,1003.085,25.403,84.929,0.02,1003.34,25.64,82.787,-0.009,-0.783,0.208,-9.833,-0.043,-0.058,0.026,-2718,-2408,-3815,-0.847,0.529,0.042,0.012,38.398296,-78.0637907,94.041,0.091,0.106,-0.233,11,-0.499,0.098,-9.639,69.56,-3.066,-0.58,0,0.001,0,12.393,-30.044,56.393,100402.008,28.56,0.1,-0.052,0.01,-0.961,0.036,0.035,-0.202
1219.479,0.074,0.078,0.054,-0.006,-0.007,0.076,0.011,0.059,0.023,1003.085,25.395,84.926,0.017,1003.34,25.65,82.787,0.008,-0.812,0.208,-9.797,-0.051,0.111,0,-2723,-2442,-3748,-0.848,0.529,0.04,0.01,38.398296,-78.0637907,94.028,0.088,0.1,-0.25,11,-0.52,0.112,-9.644,69.554,-3.062,-0.583,0,0,-0.001,12.629,-29.844,56.149,100390.008,28.56,0.1,-0.051,0.011,-0.961,0.037,0.03,-0.211
1219.579,0.077,0.078,0.048,0,-0.009,0.026,0.006,-0.008,-0.044,1003.086,25.4,84.919,0.01,1003.35,25.66,82.704,-0.176,-0.776,0.201,-9.733,0.055,-0.043,0.222,-2756,-2440,-3759,-0.842,0.538,0.04,0.013,38.398296,-78.0637908,94.06,0.084,0.086,-0.218,10,-0.523,0.116,-9.587,69.552,-3.065,-0.583,0,-0.001,0,12.52,-29.532,56.033,100394.008,28.57,0.1,-0.052,0.01,-0.96,0.036,0.029,-0.212
1219.679,0.081,0.091,0.029,0.012,0.015,0.008,0.018,0.024,0.007,1003.087,25.401,84.911,0,1003.31,25.65,83.039,0.168,-0.804,0.158,-9.783,0.002,0.013,0.102,-2753,-2466,-3713,-0.839,0.543,0.039,0.014,38.398296,-78.0637905,93.976,0.08,0.106,-0.293,10,-0.517,0.09,-9.613,69.554,-3.067,-0.583,0.001,0.001,0.002,12.511,-29.944,56.144,100406.008,28.58,0.1,-0.053,0.01,-0.962,0.036,0.032,-0.208
1219.779,0.085,0.097,0.031,-0.001,-0.025,0.096,-0.017,-0.057,0.147,1003.086,25.404,84.914,0,1003.31,25.66,83.039,0.201,-0.797,0.33,-9.92,-0.066,-0.087,-0.006,-2734,-2459,-3793,-0.839,0.542,0.044,0.011,38.3982961,-78.0637904,93.986,0.085,0.107,-0.269,11,-0.505,0.07,-9.625,69.555,-3.067,-0.583,0,0.001,-0.001,12.632,-29.741,56.153,100390.008,28.56,0.1,-0.052,0.01,-0.961,0.035,0.031,-0.209
1219.879,0.094,0.086,0.052,0.03,-0.031,0.089,0.038,-0.015,0.035,1003.085,25.404,84.923,0.008,1003.29,25.65,83.207,0.294,-0.74,0.323,-9.812,-0.102,0.038,-0.113,-2707,-2469,-3726,-0.842,0.537,0.043,0.006,38.3982962,-78.0637904,93.987,0.091,0.1,-0.25,11,-0.512,0.1,-9.622,69.563,-3.066,-0.585,0.002,0.001,0.002,12.511,-29.944,56.144,100394.008,28.58,0.1,-0.052,0.01,-0.961,0.034,0.033,-0.202
1219.979,0.117,0.072,0.041,0.087,-0.026,0.066,0.077,-0.002,0.029,1003.089,25.415,84.895,-0.019,1003.27,25.63,83.374,0.461,-0.697,0.23,-9.812,-0.021,0.006,-0.068,-2747,-2443,-3720,-0.844,0.534,0.04,0.007,38.3982962,-78.0637905,94.037,0.085,0.084,-0.181,10,-0.524,0.094,-9.579,69.56,-3.067,-0.587,0,-0.001,0,12.624,-30.049,56.267,100390.008,28.56,0.1,-0.052,0.011,-0.961,0.035,0.029,-0.214
1220.079,0.145,0.091,0.056,0.105,0.05,0.088,0.05,0.068,0.056,1003.086,25.41,84.922,0.01,1003.35,25.65,82.704,-0.168,-0.79,0.172,-9.833,-0.023,0.023,-0.015,-2728,-2447,-3689,-0.845,0.534,0.039,0.01,38.3982962,-78.0637903,93.948,0.079,0.095,-0.25,10,-0.534,0.099,-9.605,69.56,-3.069,-0.586,0,0,-0.001,12.4,-29.736,56.025,100390.008,28.56,0.1,-0.052,0.01,-0.961,0.037,0.031,-0.208
1220.179,0.108,0.099,0,0.081,0.051,0.068,-0.025,0.004,0.051,1003.091,25.404,84.879,-0.035,1003.27,25.64,83.374,0.537,-0.747,0.359,-9.826,-0.075,0.032,-0.026,-2752,-2450,-3812,-0.845,0.532,0.041,0.005,38.3982962,-78.0637902,93.905,0.072,0.099,-0.275,10,-0.501,0.081,-9.611,69.561,-3.071,-0.582,0.001,0,0.001,12.747,-29.743,56.026,100394.008,28.57,0.1,-0.052,0.009,-0.961,0.036,0.03,-0.209
1220.279,0.107,0.108,0.001,0.085,0.053,0.084,0.045,0.013,0.085,1003.089,25.408,84.896,-0.021,1003.47,25.67,81.697,-1.199,-0.79,0.194,-9.862,0.053,-0.07,0.004,-2756,-2425,-3753,-0.845,0.533,0.041,0.011,38.3982963,-78.0637901,93.913,0.075,0.1,-0.247,11,-0.52,0.092,-9.638,69.563,-3.07,-0.582,-0.001,0.001,0,12.98,-29.644,56.665,100390.008,28.56,0.1,-0.052,0.01,-0.961,0.034,0.031,-0.208
1220.379,0.112,0.118,0.012,0.083,0.051,0.09,0.023,0.008,0.043,1003.088,25.402,84.903,-0.016,1003.25,25.65,83.542,0.629,-0.783,0.223,-9.819,-0.034,0.006,-0.04,-2712,-2455,-3711,-0.846,0.531,0.04,0.011,38.3982963,-78.06379,93.9,0.068,0.101,-0.237,10,-0.525,0.106,-9.602,69.566,-3.068,-0.583,-0.001,0,0.001,12.631,-29.741,56.28,100394.008,28.58,0.1,-0.051,0.01,-0.96,0.033,0.032,-0.207
1220.479,0.112,0.124,0.027,0.045,0.028,0.101,-0.046,-0.036,0.062,1003.087,25.404,84.907,-0.012,1003.3,25.66,83.123,0.243,-0.812,0.33,-9.833,0.03,-0.049,-0.017,-2741,-2455,-3791,-0.847,0.53,0.043,0.01,38.3982963,-78.0637899,93.911,0.061,0.102,-0.2,10,-0.508,0.116,-9.584,69.567,-3.067,-0.581,0,0.001,0,12.743,-29.949,56.272,100406.008,28.57,0.1,-0.052,0.01,-0.96,0.038,0.031,-0.208
1220.579,0.104,0.12,0.039,0.039,-0.007,0.097,0.023,-0.049,0.048,1003.087,25.402,84.91,-0.01,1003.29,25.64,83.207,0.378,-0.754,0.237,-9.826,0.049,-0.045,0.151,-2734,-2470,-3801,-0.843,0.537,0.041,0.012,38.3982963,-78.0637898,93.967,0.054,0.105,-0.124,10,-0.519,0.097,-9.651,69.566,-3.068,-0.579,0,0,0,12.63,-29.844,56.023,100394.008,28.58,0.1,-0.051,0.01,-0.961,0.036,0.029,-0.211
1220.679,0.093,0.105,0.044,0.006,-0.041,0.076,-0.024,-0.052,0.027,1003.086,25.398,84.914,-0.006,1003.32,25.64,82.955,0.101,-0.761,0.251,-9.805,0.083,-0.032,0.117,-2735,-2459,-3825,-0.839,0.542,0.04,0.013,38.3982964,-78.0637897,93.954,0.06,0.106,-0.114,10,-0.537,0.125,-9.61,69.567,-3.068,-0.578,0,-0.001,-0.001,12.396,-29.942,56.145,100390.008,28.56,0.1,-0.052,0.01,-0.961,0.036,0.03,-0.207
1220.779,0.083,0.084,0.042,0.007,-0.044,0.112,0.013,-0.014,0.112,1003.088,25.402,84.903,-0.018,1003.28,25.65,83.291,0.394,-0.74,0.273,-9.891,-0.081,0.032,-0.06,-2762,-2453,-3707,-0.841,0.539,0.04,0.009,38.3982965,-78.0637897,93.977,0.065,0.098,-0.07,10,-0.506,0.107,-9.625,69.569,-3.071,-0.578,0,0.001,0,12.508,-30.151,55.631,100394.008,28.58,0.1,-0.052,0.01,-0.96,0.036,0.03,-0.208
1220.879,0.074,0.076,0.063,-0.018,-0.008,0.082,-0.027,0.031,0.012,1003.084,25.408,84.938,0.016,1003.27,25.64,83.374,0.453,-0.833,0.266,-9.783,0.032,-0.004,-0.017,-2736,-2438,-3720,-0.841,0.539,0.041,0.011,38.3982966,-78.0637897,93.992,0.071,0.091,-0.041,10,-0.519,0.101,-9.573,69.569,-3.07,-0.577,0,0,0.002,12.402,-29.633,56.283,100406.008,28.58,0.1,-0.052,0.01,-0.96,0.036,0.031,-0.209
1220.979,0.061,0.088,0.091,0.005,-0.003,0.13,0.027,-0.003,0.095,1003.081,25.398,84.958,0.038,1003.34,25.65,82.787,-0.143,-0.833,0.144,-9.869,0.06,-0.06,-0.102,-2708,-2501,-3769,-0.844,0.534,0.041,0.016,38.3982965,-78.0637895,93.981,0.054,0.103,-0.047,10,-0.524,0.073,-9.619,69.568,-3.067,-0.576,0,0,-0.002,12.74,-30.051,56.522,100394.008,28.57,0.1,-0.051,0.01,-0.962,0.036,0.031,-0.21
1221.079,0.054,0.086,0.108,-0.009,-0.025,0.158,-0.011,-0.027,0.097,1003.084,25.402,84.938,0.017,1003.28,25.65,83.291,0.369,-0.74,0.244,-9.876,-0.03,0.068,0.066,-2725,-2458,-3734,-0.842,0.537,0.038,0.011,38.3982965,-78.0637895,94.002,0.05,0.097,-0.016,10,-0.513,0.082,-9.608,69.569,-3.071,-0.571,0,-0.001,-0.001,12.63,-29.844,56.15,100406.008,28.58,0.1,-0.052,0.009,-0.961,0.037,0.029,-0.208
1221.179,0.049,0.086,0.059,-0.014,-0.021,0.128,-0.018,0.012,0.011,1003.084,25.404,84.936,0.021,1003.34,25.64,82.787,-0.185,-0.826,0.259,-9.783,-0.017,-0.036,-0.015,-2750,-2428,-3722,-0.843,0.537,0.041,0.011,38.3982965,-78.0637895,94.032,0.047,0.09,0.031,10,-0.532,0.102,-9.588,69.569,-3.071,-0.571,0,0.001,0.002,12.748,-29.744,56.154,100394.008,28.58,0.1,-0.052,0.01,-0.961,0.035,0.031,-0.211
1221.279,0.044,0.081,0.061,-0.015,-0.031,0.112,-0.004,-0.036,-0.015,1003.083,25.401,84.939,0.028,1003.39,25.66,82.368,-0.503,-0.761,0.28,-9.762,0.004,-0.017,-0.013,-2736,-2466,-3752,-0.843,0.536,0.041,0.01,38.3982965,-78.0637895,94.054,0.042,0.084,0.066,11,-0.529,0.083,-9.582,69.571,-3.07,-0.571,0,0,0,12.858,-29.951,56.654,100406.008,28.58,0.101,-0.052,0.01,-0.973,0.037,0.032,-0.21
1221.379,0.037,0.071,0.068,-0.027,-0.041,0.111,-0.032,-0.031,0.038,1003.084,25.407,84.932,0.023,1003.21,25.65,83.878,0.931,-0.718,0.244,-9.819,0.104,0.049,0.006,-2755,-2470,-3738,-0.843,0.537,0.037,0.011,38.3982965,-78.0637895,94.068,0.039,0.078,0.094,11,-0.536,0.099,-9.599,69.574,-3.07,-0.571,0.001,0,0.001,12.512,-29.945,56.146,100383,28.57,0.099,-0.051,0.01,-0.948,0.036,0.031,-0.204
1221.479,0.028,0.065,0.081,-0.027,-0.042,0.125,-0.005,-0.017,0.084,1003.084,25.412,84.933,0.026,1003.3,25.66,83.123,0.143,-0.74,0.287,-9.862,-0.049,-0.034,0.173,-2733,-2429,-3808,-0.838,0.544,0.04,0.009,38.3982965,-78.0637893,94.053,0.036,0.088,0.091,11,-0.527,0.089,-9.622,69.574,-3.069,-0.572,0.001,0,0,12.857,-30.055,56.143,100406.008,28.58,0.1,-0.051,0.01,-0.961,0.036,0.03,-0.21
1221.579,0.024,0.048,0.087,-0.032,-0.068,0.122,-0.022,-0.061,0.076,1003.086,25.409,84.922,0.016,1003.24,25.65,83.626,0.596,-0.733,0.273,-9.855,0.089,-0.072,-0.075,-2740,-2423,-3709,-0.84,0.541,0.039,0.012,38.3982966,-78.0637894,94.068,0.043,0.071,0.115,11,-0.517,0.11,-9.624,69.577,-3.07,-0.572,0,0,0,12.628,-29.948,56.02,100390.008,28.57,0.101,-0.053,0.011,-0.973,0.038,0.031,-0.21
1221.679,0.021,0.033,0.088,-0.044,-0.05,0.075,-0.038,0.005,0,1003.084,25.411,84.935,0.028,1003.32,25.66,82.955,-0.067,-0.783,0.244,-9.776,0.045,0.032,-0.019,-2710,-2405,-3734,-0.841,0.54,0.039,0.012,38.3982967,-78.0637894,94.085,0.05,0.064,0.134,11,-0.52,0.09,-9.617,69.576,-3.07,-0.572,0.001,0,0,12.629,-29.844,56.404,100394.008,28.58,0.099,-0.052,0.01,-0.949,0.035,0.032,-0.209
1221.779,0.014,0.022,0.084,-0.075,-0.062,0.067,-0.071,-0.042,0.043,1003.083,25.406,84.941,0.036,1003.3,25.65,83.123,0.076,-0.747,0.345,-9.819,0.04,-0.002,0.102,-2731,-2476,-3744,-0.838,0.545,0.039,0.01,38.3982968,-78.0637894,94.143,0.057,0.058,0.193,11,-0.506,0.099,-9.596,69.575,-3.071,-0.572,0,-0.001,0,12.741,-30.053,56.27,100394.008,28.58,0.1,-0.052,0.01,-0.961,0.034,0.03,-0.208
1221.879,-0.009,0.019,0.077,-0.118,-0.001,0.061,-0.088,0.054,0.038,1003.084,25.409,84.937,0.03,1003.34,25.66,82.787,-0.277,-0.812,0.259,-9.812,0.121,0.117,-0.023,-2726,-2435,-3778,-0.838,0.544,0.037,0.012,38.3982968,-78.0637895,94.196,0.052,0.043,0.246,11,-0.517,0.077,-9.606,69.574,-3.07,-0.571,0.001,0,0.002,12.63,-29.844,56.277,100406.008,28.58,0.1,-0.052,0.01,-0.961,0.036,0.032,-0.209
1221.979,-0.04,0.019,0.046,-0.145,-0.012,-0.011,-0.079,-0.014,-0.04,1003.086,25.41,84.921,0.008,1003.39,25.66,82.368,-0.638,-0.733,0.23,-9.74,0.124,0.028,-0.051,-2720,-2457,-3804,-0.839,0.542,0.035,0.013,38.3982968,-78.0637896,94.244,0.049,0.025,0.299,11,-0.528,0.086,-9.6,69.573,-3.07,-0.574,0,0.001,0,12.518,-29.636,56.538,100406.008,28.57,0.1,-0.052,0.011,-0.96,0.036,0.031,-0.208
1222.079,-0.067,0.017,0.02,-0.147,0.023,0.041,-0.059,0.036,0.07,1003.087,25.416,84.907,-0.007,1003.39,25.66,82.368,-0.696,-0.769,0.237,-9.848,-0.013,0.07,-0.092,-2746,-2439,-3775,-0.842,0.538,0.036,0.011,38.3982968,-78.0637897,94.261,0.046,0.01,0.311,10,-0.507,0.083,-9.61,69.573,-3.069,-0.571,-0.001,-0.001,0.001,12.63,-29.845,56.15,100394.008,28.57,0.1,-0.051,0.01,-0.961,0.038,0.031,-0.208
1222.179,-0.012,0.011,0.01,-0.118,0.023,0.04,-0.004,0.018,0.033,1003.086,25.41,84.922,0.002,1003.41,25.66,82.201,-0.805,-0.747,0.223,-9.812,-0.028,-0.004,0.072,-2732,-2441,-3807,-0.84,0.541,0.037,0.01,38.3982968,-78.0637897,94.208,0.042,0.003,0.245,9,-0.531,0.093,-9.611,69.572,-3.073,-0.572,-0.001,0,0,12.625,-30.05,56.269,100394.008,28.58,0.1,-0.053,0.01,-0.961,0.035,0.03,-0.21
1222.279,-0.008,0.013,0.006,-0.113,0.027,0.066,-0.028,0.021,0.12,1003.087,25.414,84.909,-0.015,1003.29,25.67,83.207,0.134,-0.848,0.251,-9.891,0,-0.049,-0.121,-2754,-2436,-3751,-0.843,0.536,0.041,0.012,38.3982968,-78.0637896,94.22,0.04,0.007,0.243,9,-0.518,0.092,-9.605,69.572,-3.072,-0.572,0,0,-0.001,12.743,-29.949,56.273,100410,28.59,0.1,-0.051,0.01,-0.96,0.035,0.03,-0.21
1222.379,-0.013,0.012,0.025,-0.113,0,0.055,-0.039,-0.064,-0.025,1003.083,25.4,84.947,0.02,1003.3,25.65,83.123,0.017,-0.725,0.294,-9.754,0.06,0,-0.062,-2730,-2434,-3766,-0.845,0.534,0.039,0.011,38.3982969,-78.0637896,94.181,0.049,0.003,0.187,10,-0.528,0.083,-9.589,69.571,-3.071,-0.574,0,0.001,0,12.861,-29.849,56.405,100394.008,28.58,0.1,-0.052,0.01,-0.96,0.035,0.032,-0.207
1222.479,-0.023,0.008,0.024,-0.101,0.027,0.033,-0.019,0.067,-0.019,1003.085,25.405,84.926,-0.004,1003.27,25.65,83.374,0.268,-0.819,0.223,-9.754,-0.013,0.087,0.019,-2772,-2433,-3790,-0.844,0.535,0.039,0.01,38.3982969,-78.0637897,94.239,0.047,-0.011,0.231,10,-0.514,0.081,-9.634,69.572,-3.071,-0.573,0,-0.001,0,12.862,-29.85,56.025,100383,28.58,0.1,-0.052,0.01,-0.961,0.035,0.03,-0.21
1222.579,-0.03,0.006,0.015,-0.092,0.013,0.02,-0.035,-0.009,0.008,1003.086,25.411,84.92,-0.011,1003.25,25.65,83.542,0.394,-0.769,0.316,-9.783,-0.013,-0.002,-0.038,-2720,-2439,-3777,-0.845,0.533,0.04,0.009,38.3982969,-78.0637897,94.301,0.043,-0.015,0.283,10,-0.51,0.108,-9.596,69.572,-3.071,-0.575,-0.001,0,0,12.63,-29.845,56.024,100394.008,28.58,0.1,-0.052,0.01,-0.961,0.035,0.031,-0.209
1222.679,-0.02,-0.008,-0.003,-0.039,-0.01,-0.025,0.027,-0.022,-0.049,1003.086,25.421,84.916,-0.018,1003.32,25.65,82.955,-0.193,-0.79,0.251,-9.726,-0.009,-0.096,-0.075,-2698,-2443,-3750,-0.847,0.53,0.043,0.011,38.398297,-78.0637898,94.35,0.051,-0.026,0.319,10,-0.516,0.063,-9.585,69.572,-3.071,-0.575,0,0.001,0.001,12.628,-29.948,56.147,100394.008,28.58,0.1,-0.052,0.01,-0.96,0.037,0.031,-0.207
1222.779,0.014,-0.035,-0.006,0.021,-0.054,0.026,0.046,-0.055,0.068,1003.085,25.404,84.928,-0.009,1003.3,25.66,83.123,-0.008,-0.747,0.201,-9.848,0.036,-0.055,0.036,-2705,-2449,-3685,-0.846,0.531,0.041,0.013,38.3982971,-78.0637899,94.421,0.059,-0.038,0.373,10,-0.52,0.105,-9.596,69.571,-3.07,-0.574,0,0,0,12.75,-29.641,56.159,100394.008,28.58,0.1,-0.052,0.01,-0.961,0.035,0.032,-0.209
1222.879,0.059,-0.073,0.002,0.062,-0.068,0.045,0.041,-0.026,0.039,1003.086,25.416,84.921,-0.016,1003.33,25.67,82.871,-0.201,-0.733,0.223,-9.819,-0.049,-0.004,0.104,-2739,-2439,-3722,-0.843,0.536,0.04,0.01,38.3982972,-78.0637901,94.536,0.068,-0.057,0.468,10,-0.51,0.112,-9.615,69.573,-3.068,-0.573,0.001,0,-0.001,12.515,-29.843,56.023,100394.008,28.58,0.1,-0.051,0.01,-0.96,0.037,0.032,-0.206
1222.979,0.086,-0.092,0.013,0.039,-0.013,0.068,-0.011,0.046,0.051,1003.086,25.409,84.916,-0.017,1003.34,25.67,82.787,-0.243,-0.776,0.28,-9.826,-0.047,0.092,0.045,-2746,-2432,-3769,-0.842,0.537,0.039,0.008,38.3982972,-78.0637903,94.593,0.064,-0.073,0.498,10,-0.519,0.102,-9.591,69.573,-3.067,-0.574,0,0.001,0,12.63,-29.845,56.278,100406.008,28.58,0.1,-0.051,0.011,-0.961,0.037,0.031,-0.21
1223.079,0.094,-0.062,0.019,0.049,0.108,0.067,0.026,0.122,0.033,1003.088,25.412,84.905,-0.025,1003.29,25.66,83.207,0.269,-0.848,0.237,-9.805,-0.092,0.079,0.089,-2753,-2472,-3732,-0.84,0.541,0.041,0.007,38.3982972,-78.0637904,94.619,0.061,-0.08,0.499,10,-0.531,0.09,-9.651,69.57,-3.071,-0.574,0.001,0.001,0,12.627,-30.052,55.763,100383,28.58,0.1,-0.052,0.01,-0.961,0.036,0.028,-0.212
1223.179,0.075,-0.064,-0.003,0.031,0.109,0.067,-0.042,0.05,0.078,1003.087,25.414,84.909,-0.019,1003.37,25.66,82.536,-0.344,-0.855,0.244,-9.848,0.094,0.026,-0.113,-2734,-2469,-3721,-0.843,0.536,0.04,0.012,38.3982972,-78.0637904,94.639,0.058,-0.079,0.501,10,-0.537,0.097,-9.615,69.573,-3.069,-0.574,0,0.001,-0.001,12.744,-29.951,55.894,100394.008,28.58,0.1,-0.052,0.01,-0.961,0.035,0.032,-0.207
1223.279,0.071,-0.058,0.016,0.023,0.093,0.084,-0.014,-0.031,0.066,1003.083,25.406,84.94,0.014,1003.27,25.65,83.374,0.411,-0.79,0.273,-9.841,0.009,-0.045,0.026,-2754,-2432,-3744,-0.842,0.537,0.041,0.012,38.3982972,-78.0637905,94.701,0.054,-0.086,0.546,10,-0.51,0.107,-9.635,69.572,-3.07,-0.571,0,0,0.001,12.859,-29.952,56.275,100394.008,28.58,0.1,-0.052,0.01,-0.961,0.038,0.031,-0.209
1223.379,0.064,-0.046,0.03,0.018,0.097,0.092,0.002,0.037,0.045,1003.084,25.401,84.932,0.005,1003.36,25.66,82.62,-0.268,-0.812,0.23,-9.819,-0.026,0.068,-0.085,-2697,-2433,-3699,-0.845,0.534,0.04,0.01,38.3982971,-78.0637905,94.719,0.039,-0.086,0.553,10,-0.519,0.102,-9.605,69.573,-3.069,-0.57,0,0.001,-0.001,12.744,-29.95,56.275,100394.008,28.58,0.1,-0.052,0.01,-0.961,0.035,0.032,-0.208
1223.479,0.054,-0.039,0.04,-0.008,0.06,0.114,-0.041,-0.046,0.094,1003.086,25.413,84.917,-0.01,1003.35,25.67,82.704,-0.209,-0.769,0.323,-9.869,0.04,-0.034,0.006,-2734,-2455,-3827,-0.844,0.534,0.041,0.01,38.3982971,-78.0637906,94.757,0.034,-0.091,0.572,10,-0.505,0.101,-9.591,69.574,-3.067,-0.576,-0.001,0,-0.001,12.746,-29.848,56.152,100394.008,28.58,0.1,-0.051,0.011,-0.96,0.035,0.029,-0.209
1223.579,0.046,-0.04,0.051,0.013,0.049,0.113,0.047,0.016,0.065,1003.086,25.418,84.919,-0.008,1003.36,25.66,82.62,-0.285,-0.79,0.244,-9.841,-0.075,-0.013,0.036,-2754,-2433,-3763,-0.843,0.535,0.042,0.009,38.3982971,-78.0637906,94.759,0.031,-0.088,0.551,10,-0.521,0.102,-9.609,69.575,-3.066,-0.578,0,0.001,0,12.515,-29.843,56.405,100398,28.59,0.1,-0.052,0.011,-0.96,0.037,0.032,-0.208
1223.679,0.046,-0.045,0.059,0.028,0.028,0.156,0.035,-0.002,0.152,1003.087,25.416,84.907,-0.018,1003.28,25.66,83.291,0.386,-0.804,0.23,-9.927,0,-0.034,-0.04,-2730,-2460,-3779,-0.845,0.534,0.042,0.011,38.3982971,-78.0637906,94.808,0.028,-0.085,0.574,10,-0.537,0.09,-9.626,69.571,-3.066,-0.578,-0.001,0,0,12.517,-29.74,56.155,100387,28.6,0.1,-0.052,0.01,-0.96,0.035,0.031,-0.212
1223.779,0.037,-0.052,0.058,0.004,0.019,0.112,-0.015,0.008,0.036,1003.088,25.418,84.898,-0.025,1003.32,25.67,82.955,0.05,-0.79,0.215,-9.812,0.062,0.051,-0.026,-2741,-2448,-3767,-0.845,0.533,0.039,0.012,38.398297,-78.0637906,94.84,0.013,-0.08,0.578,10,-0.514,0.063,-9.604,69.574,-3.068,-0.576,-0.001,0,0.001,12.515,-29.843,56.152,100398,28.59,0.1,-0.052,0.009,-0.962,0.034,0.032,-0.206
1223.879,0.019,-0.073,0.074,0.006,-0.042,0.177,0.016,-0.062,0.155,1003.087,25.416,84.914,-0.008,1003.34,25.67,82.787,-0.126,-0.654,0.23,-9.941,0.002,0.006,-0.019,-2743,-2474,-3798,-0.846,0.532,0.036,0.01,38.3982969,-78.0637907,94.845,-0.002,-0.084,0.549,10,-0.504,0.105,-9.563,69.576,-3.063,-0.576,0.001,-0.001,0,12.628,-29.948,56.402,100383,28.58,0.1,-0.051,0.01,-0.96,0.035,0.033,-0.208
1223.979,0.011,-0.086,0.096,-0.008,-0.005,0.183,-0.01,0.033,0.098,1003.087,25.419,84.911,-0.01,1003.35,25.65,82.704,-0.251,-0.761,0.223,-9.876,-0.019,0.019,-0.021,-2736,-2483,-3719,-0.846,0.531,0.037,0.01,38.398297,-78.0637907,94.877,0.004,-0.078,0.546,10,-0.513,0.11,-9.615,69.573,-3.062,-0.576,0,0,0.001,12.857,-30.056,56.399,100394.008,28.58,0.1,-0.052,0.01,-0.96,0.035,0.031,-0.213
1224.079,-0.007,-0.084,0.119,-0.017,-0.016,0.151,-0.006,-0.017,0.052,1003.084,25.409,84.937,0.015,1003.3,25.66,83.123,0.084,-0.704,0.251,-9.833,0,-0.004,-0.021,-2729,-2463,-3739,-0.847,0.53,0.037,0.009,38.3982969,-78.0637907,94.878,-0.011,-0.072,0.511,10,-0.51,0.097,-9.633,69.571,-3.063,-0.575,0.001,0.002,0,12.629,-29.949,56.022,100394.008,28.58,0.1,-0.052,0.01,-0.961,0.037,0.03,-0.21
1224.179,-0.013,-0.074,0.057,-0.02,-0.009,0.134,-0.012,0.017,0.109,1003.084,25.412,84.933,0.013,1003.36,25.66,82.62,-0.453,-0.812,0.208,-9.884,0.036,-0.051,-0.028,-2727,-2452,-3731,-0.848,0.529,0.039,0.012,38.3982969,-78.0637907,94.886,-0.016,-0.066,0.476,10,-0.542,0.086,-9.621,69.572,-3.064,-0.572,0,-0.001,0,12.747,-29.849,55.899,100394.008,28.58,0.1,-0.052,0.01,-0.961,0.037,0.03,-0.208
1224.279,-0.025,-0.067,0.037,-0.031,0.003,0.137,-0.034,0.034,0.093,1003.088,25.418,84.898,-0.025,1003.25,25.66,83.542,0.453,-0.776,0.251,-9.869,-0.013,0.107,0.04,-2734,-2403,-3718,-0.847,0.531,0.038,0.009,38.3982968,-78.0637907,94.902,-0.031,-0.058,0.444,10,-0.536,0.11,-9.612,69.576,-3.065,-0.573,-0.002,0.001,0.001,12.513,-29.946,56.148,100394.008,28.58,0.1,-0.052,0.009,-0.961,0.032,0.033,-0.205
1224.379,-0.034,-0.06,0.042,-0.02,0.001,0.15,0.029,-0.013,0.093,1003.088,25.416,84.9,-0.022,1003.26,25.66,83.458,0.419,-0.682,0.244,-9.876,-0.045,-0.002,0.062,-2729,-2492,-3722,-0.845,0.533,0.037,0.008,38.3982968,-78.0637907,94.864,-0.033,-0.05,0.352,10,-0.503,0.093,-9.625,69.58,-3.063,-0.577,0,0,-0.001,12.744,-29.951,56.276,100398,28.6,0.1,-0.051,0.011,-0.961,0.035,0.032,-0.206
1224.479,-0.044,-0.055,0.066,-0.043,0.008,0.129,-0.053,0.011,0.01,1003.084,25.406,84.933,0.013,1003.28,25.66,83.291,0.318,-0.718,0.273,-9.79,0.081,0.047,0.066,-2704,-2477,-3751,-0.843,0.536,0.036,0.009,38.3982968,-78.0637908,94.893,-0.036,-0.051,0.329,10,-0.502,0.075,-9.602,69.578,-3.062,-0.577,-0.002,0,-0.001,12.747,-29.849,56.026,100394.008,28.59,0.1,-0.051,0.01,-0.961,0.036,0.031,-0.211
1224.579,-0.063,-0.048,0.057,-0.054,0.005,0.048,-0.03,-0.009,-0.066,1003.087,25.413,84.911,-0.009,1003.3,25.66,83.123,0.243,-0.761,0.259,-9.711,0.03,-0.072,-0.03,-2716,-2428,-3754,-0.844,0.535,0.039,0.011,38.3982967,-78.0637908,94.919,-0.049,-0.043,0.31,10,-0.5,0.101,-9.603,69.579,-3.063,-0.574,0.001,0,-0.001,12.628,-29.948,56.656,100383,28.59,0.1,-0.052,0.01,-0.96,0.037,0.031,-0.208
1224.679,-0.08,-0.03,0.052,-0.064,0.044,0.114,-0.036,0.055,0.161,1003.086,25.409,84.916,-0.003,1003.3,25.67,83.123,0.21,-0.826,0.23,-9.934,0.038,0.075,0.19,-2707,-2457,-3721,-0.839,0.543,0.038,0.012,38.3982967,-78.0637907,94.889,-0.05,-0.027,0.234,10,-0.534,0.085,-9.607,69.578,-3.062,-0.574,-0.001,-0.001,0,12.747,-29.849,55.9,100398,28.6,0.1,-0.052,0.01,-0.96,0.035,0.031,-0.211
1224.779,-0.098,-0.014,0.065,-0.07,0.034,0.088,-0.034,-0.001,0.024,1003.085,25.409,84.929,0.012,1003.34,25.66,82.787,-0.109,-0.804,0.259,-9.797,0.004,-0.023,-0.217,-2693,-2436,-3743,-0.845,0.534,0.04,0.012,38.3982966,-78.0637908,94.955,-0.06,-0.03,0.258,10,-0.541,0.094,-9.594,69.583,-3.061,-0.575,-0.001,0,0.001,12.518,-29.741,56.03,100398,28.59,0.1,-0.052,0.01,-0.961,0.035,0.033,-0.207
1224.879,-0.106,-0.009,0.079,-0.062,0.034,0.119,-0.022,0.015,0.092,1003.084,25.402,84.938,0.022,1003.35,25.67,82.704,-0.184,-0.769,0.23,-9.869,0.019,0.077,-0.072,-2728,-2491,-3721,-0.847,0.531,0.038,0.011,38.3982966,-78.0637909,94.989,-0.057,-0.033,0.261,10,-0.503,0.103,-9.598,69.585,-3.061,-0.576,-0.001,-0.001,0,12.631,-29.846,56.28,100394.008,28.59,0.1,-0.052,0.011,-0.962,0.035,0.031,-0.207
1224.979,-0.118,-0.008,0.08,-0.132,0.017,0.153,-0.115,-0.004,0.114,1003.088,25.413,84.904,-0.011,1003.35,25.66,82.704,-0.176,-0.761,0.302,-9.891,0.121,0.081,-0.075,-2722,-2457,-3716,-0.848,0.528,0.036,0.011,38.3982967,-78.0637909,95.013,-0.043,-0.03,0.257,10,-0.506,0.083,-9.632,69.58,-3.062,-0.574,-0.002,0,0.001,12.396,-30.047,56.144,100394.008,28.59,0.1,-0.052,0.01,-0.961,0.038,0.029,-0.213
1225.079,-0.151,-0.003,0.077,-0.143,0.023,0.103,-0.061,0.013,0.026,1003.088,25.409,84.902,-0.017,1003.3,25.67,83.123,0.252,-0.733,0.294,-9.805,-0.004,0.055,-0.036,-2719,-2478,-3756,-0.849,0.527,0.037,0.008,38.3982966,-78.0637908,94.974,-0.051,-0.018,0.192,10,-0.516,0.103,-9.582,69.582,-3.064,-0.575,0,0,-0.001,12.401,-29.842,55.899,100398,28.59,0.1,-0.052,0.01,-0.96,0.034,0.03,-0.208
1225.179,-0.106,-0.014,0.023,-0.122,0.023,0.074,-0.026,0.033,0.004,1003.087,25.409,84.909,-0.012,1003.39,25.67,82.368,-0.512,-0.74,0.251,-9.783,0.013,0.034,0.017,-2730,-2451,-3837,-0.849,0.527,0.037,0.008,38.3982965,-78.0637909,95.006,-0.059,-0.024,0.199,10,-0.507,0.12,-9.602,69.583,-3.067,-0.576,0,-0.001,0.001,12.626,-30.051,56.526,100398,28.6,0.1,-0.052,0.01,-0.962,0.035,0.029,-0.21
1225.279,-0.103,-0.016,0.012,-0.117,0.042,0.098,-0.03,0.081,0.133,1003.089,25.424,84.89,-0.026,1003.35,25.67,82.704,-0.193,-0.84,0.244,-9.905,-0.011,0.038,0.072,-2733,-2491,-3807,-0.847,0.53,0.039,0.009,38.3982965,-78.063791,95.03,-0.054,-0.031,0.203,10,-0.515,0.096,-9.583,69.582,-3.069,-0.577,0,0,0,12.395,-30.047,56.525,100394.008,28.58,0.1,-0.052,0.01,-0.96,0.035,0.031,-0.211
1225.379,-0.109,-0.014,0.025,-0.102,0.019,0.1,0.003,-0.05,0.036,1003.087,25.422,84.907,-0.006,1003.29,25.66,83.207,0.227,-0.776,0.266,-9.812,0.017,-0.121,-0.092,-2741,-2479,-3692,-0.849,0.526,0.042,0.011,38.3982965,-78.063791,95.029,-0.051,-0.03,0.187,10,-0.531,0.124,-9.605,69.589,-3.066,-0.579,0.001,0,-0.001,12.747,-29.849,56.408,100398,28.6,0.1,-0.052,0.011,-0.96,0.035,0.033,-0.205
1225.479,-0.117,-0.016,0.035,-0.105,0.003,0.1,-0.051,-0.025,0.046,1003.088,25.421,84.902,-0.013,1003.38,25.67,82.452,-0.587,-0.804,0.294,-9.819,0.053,0.023,-0.156,-2718,-2475,-3739,-0.853,0.52,0.041,0.011,38.3982965,-78.063791,95.072,-0.048,-0.028,0.217,10,-0.505,0.121,-9.566,69.589,-3.067,-0.579,0,0.001,0.001,12.859,-30.058,56.147,100398,28.6,0.101,-0.053,0.011,-0.972,0.038,0.032,-0.213
1225.579,-0.123,-0.028,0.039,-0.068,-0.031,0.09,0.017,-0.055,0.045,1003.088,25.418,84.898,-0.016,1003.26,25.66,83.458,0.369,-0.711,0.244,-9.826,0.015,-0.021,0.013,-2726,-2466,-3757,-0.853,0.521,0.039,0.01,38.3982964,-78.0637911,95.086,-0.054,-0.035,0.215,10,-0.533,0.084,-9.599,69.591,-3.066,-0.579,0.001,-0.001,0.001,12.634,-29.743,56.411,100387,28.6,0.099,-0.051,0.01,-0.948,0.036,0.031,-0.205
1225.679,-0.11,-0.039,0.034,-0.034,-0.01,0.078,0.007,0.028,0.049,1003.089,25.423,84.892,-0.023,1003.38,25.68,82.452,-0.621,-0.761,0.259,-9.826,-0.06,0.049,0.047,-2727,-2474,-3762,-0.852,0.522,0.039,0.008,38.3982964,-78.0637911,95.06,-0.05,-0.034,0.181,10,-0.511,0.096,-9.604,69.587,-3.067,-0.577,-0.001,0,0,12.512,-30.05,56.145,100398,28.6,0.1,-0.052,0.01,-0.96,0.037,0.031,-0.213
1225.779,-0.081,-0.038,0.03,0.026,-0.002,0.076,0.052,0.006,0.052,1003.088,25.418,84.898,-0.02,1003.38,25.67,82.452,-0.604,-0.725,0.223,-9.833,-0.034,-0.026,0.138,-2715,-2457,-3796,-0.848,0.528,0.039,0.008,38.3982964,-78.0637911,95.061,-0.046,-0.032,0.17,10,-0.53,0.096,-9.605,69.588,-3.066,-0.58,-0.001,0.002,0,12.631,-29.846,56.28,100387,28.6,0.101,-0.053,0.011,-0.973,0.034,0.033,-0.21
1225.879,-0.052,-0.029,0.028,0.044,0.006,0.018,0.022,0.005,-0.034,1003.086,25.421,84.916,-0.004,1003.36,25.67,82.62,-0.428,-0.819,0.18,-9.74,0.036,-0.092,-0.143,-2749,-2436,-3746,-0.852,0.522,0.041,0.013,38.3982963,-78.063791,95.048,-0.053,-0.022,0.143,10,-0.506,0.084,-9.606,69.589,-3.066,-0.581,0,-0.001,0.001,12.631,-29.846,56.28,100398,28.6,0.099,-0.051,0.01,-0.949,0.035,0.031,-0.204
1225.979,-0.036,-0.029,0.019,0.017,-0.026,0.044,-0.02,-0.037,0.051,1003.087,25.418,84.911,-0.008,1003.37,25.67,82.536,-0.512,-0.804,0.194,-9.826,0.072,-0.019,-0.102,-2747,-2447,-3750,-0.854,0.518,0.04,0.015,38.3982963,-78.063791,95.065,-0.05,-0.02,0.146,10,-0.522,0.094,-9.593,69.587,-3.066,-0.581,0,0,0,12.868,-29.646,56.036,100387,28.59,0.1,-0.052,0.01,-0.961,0.035,0.03,-0.212
1226.079,-0.032,-0.043,0.029,0.022,-0.052,0.059,0.012,-0.037,0.038,1003.086,25.421,84.915,-0.002,1003.27,25.67,83.374,0.327,-0.819,0.187,-9.812,-0.019,-0.068,-0.051,-2745,-2458,-3720,-0.856,0.516,0.042,0.015,38.3982963,-78.063791,95.033,-0.047,-0.019,0.105,10,-0.513,0.114,-9.611,69.593,-3.067,-0.58,0,0.001,0,12.516,-29.845,56.026,100394.008,28.59,0.1,-0.052,0.01,-0.961,0.036,0.03,-0.205
1226.179,-0.037,-0.026,0.012,0.017,-0.043,0.07,-0.01,0,0.126,1003.087,25.423,84.912,-0.001,1003.32,25.66,82.955,-0.067,-0.84,0.208,-9.898,-0.015,0.034,-0.06,-2763,-2430,-3727,-0.857,0.513,0.041,0.013,38.3982963,-78.0637909,94.96,-0.042,-0.009,0.02,10,-0.491,0.1,-9.599,69.591,-3.068,-0.577,0,0.001,0.002,12.744,-29.951,56.658,100410,28.6,0.099,-0.051,0.009,-0.949,0.036,0.03,-0.21
1226.279,-0.036,-0.024,0.011,0.008,-0.045,0.072,-0.029,-0.024,0.037,1003.088,25.421,84.902,-0.011,1003.36,25.67,82.62,-0.319,-0.79,0.259,-9.812,0.017,0.023,0.036,-2742,-2441,-3778,-0.856,0.515,0.041,0.011,38.3982963,-78.0637909,95,-0.039,-0.006,0.047,10,-0.479,0.108,-9.601,69.59,-3.07,-0.576,-0.001,-0.001,0,12.752,-29.643,56.289,100398,28.6,0.099,-0.051,0.01,-0.948,0.034,0.03,-0.205
1226.379,-0.038,-0.025,0.027,-0.028,-0.055,0.081,-0.095,-0.048,0.04,1003.085,25.414,84.923,0.009,1003.23,25.67,83.71,0.797,-0.812,0.316,-9.812,0.119,-0.009,-0.017,-2712,-2468,-3719,-0.856,0.515,0.041,0.012,38.3982963,-78.0637908,94.934,-0.036,0.005,-0.036,10,-0.509,0.101,-9.604,69.592,-3.067,-0.579,0,0,0,12.745,-29.952,56.277,100398,28.6,0.1,-0.051,0.01,-0.961,0.035,0.032,-0.207
1226.479,-0.052,-0.03,0.047,-0.055,-0.06,0.089,-0.062,-0.034,0.042,1003.084,25.413,84.932,0.022,1003.28,25.67,83.291,0.461,-0.826,0.33,-9.812,0.032,-0.023,0.124,-2727,-2497,-3714,-0.853,0.52,0.043,0.011,38.3982962,-78.0637908,94.99,-0.043,0.007,0.002,10,-0.521,0.089,-9.603,69.589,-3.066,-0.579,0,0.001,0,12.741,-30.159,56.016,100398,28.6,0.099,-0.051,0.01,-0.949,0.034,0.032,-0.208
1226.579,-0.065,-0.034,0.059,-0.047,-0.034,0.111,-0.003,0.021,0.094,1003.086,25.419,84.918,0.009,1003.35,25.67,82.704,-0.159,-0.804,0.215,-9.869,0.034,0.068,0.032,-2754,-2491,-3746,-0.852,0.522,0.04,0.011,38.3982962,-78.0637909,94.987,-0.04,0.001,-0.017,10,-0.484,0.098,-9.576,69.593,-3.068,-0.579,-0.001,0,0,12.632,-29.847,56.281,100410,28.6,0.099,-0.051,0.01,-0.949,0.036,0.03,-0.202
1226.679,-0.074,-0.022,0.052,-0.042,-0.01,0.075,-0.012,0.009,0.021,1003.089,25.42,84.896,-0.011,1003.37,25.67,82.536,-0.26,-0.769,0.244,-9.797,-0.004,0.036,0.083,-2702,-2466,-3736,-0.85,0.525,0.039,0.01,38.3982961,-78.0637908,94.972,-0.048,0.013,-0.049,10,-0.526,0.089,-9.616,69.587,-3.065,-0.579,0,0,-0.001,12.748,-29.85,56.155,100387,28.6,0.101,-0.052,0.01,-0.972,0.036,0.031,-0.216
1226.779,-0.075,-0.013,0.042,-0.029,-0.012,0.035,-0.004,-0.016,-0.003,1003.088,25.408,84.903,-0.001,1003.25,25.67,83.542,0.78,-0.74,0.244,-9.776,0.011,-0.011,-0.066,-2727,-2446,-3740,-0.852,0.522,0.039,0.01,38.3982961,-78.0637909,94.989,-0.046,0.007,-0.043,10,-0.526,0.108,-9.624,69.59,-3.065,-0.578,0,0.001,0,12.755,-29.542,56.167,100398,28.6,0.1,-0.052,0.01,-0.961,0.036,0.031,-0.207
1226.879,-0.063,-0.008,0.017,0.008,-0.034,0.02,0.028,-0.041,0.018,1003.09,25.419,84.883,-0.019,1003.36,25.68,82.62,-0.134,-0.74,0.244,-9.797,-0.019,-0.087,0.079,-2727,-2461,-3710,-0.85,0.526,0.041,0.01,38.3982961,-78.0637908,94.978,-0.042,0.017,-0.06,10,-0.519,0.104,-9.64,69.591,-3.067,-0.579,0,0,0,12.396,-30.048,56.4,100398,28.6,0.1,-0.052,0.01,-0.96,0.034,0.031,-0.208
1226.979,-0.042,-0.01,0.018,0.051,-0.013,0.036,0.048,0.011,0.032,1003.088,25.421,84.902,-0.001,1003.36,25.68,82.62,-0.117,-0.754,0.18,-9.812,-0.028,0.013,-0.047,-2745,-2433,-3759,-0.851,0.524,0.039,0.011,38.398296,-78.0637909,94.973,-0.049,0.009,-0.07,10,-0.517,0.108,-9.607,69.593,-3.066,-0.577,0.001,0,0,12.519,-29.743,56.032,100398,28.6,0.1,-0.052,0.01,-0.962,0.037,0.031,-0.207
1227.079,-0.014,0.023,0.022,0.067,0.102,0.102,0.031,0.114,0.098,1003.091,25.427,84.88,-0.024,1003.39,25.68,82.368,-0.394,-0.855,0.215,-9.869,-0.141,0.092,0.055,-2744,-2442,-3722,-0.85,0.525,0.041,0.008,38.398296,-78.0637909,94.949,-0.046,0.01,-0.1,10,-0.522,0.101,-9.588,69.595,-3.065,-0.578,-0.001,0,0.001,12.744,-30.056,56.275,100410,28.6,0.099,-0.051,0.01,-0.948,0.035,0.031,-0.205
1227.179,-0.034,0.028,0.004,0.054,0.104,0.096,-0.011,0.035,0.049,1003.089,25.425,84.89,-0.014,1003.29,25.67,83.207,0.386,-0.84,0.28,-9.819,0.004,-0.006,0.045,-2724,-2414,-3756,-0.849,0.527,0.042,0.009,38.3982959,-78.0637908,94.926,-0.054,0.019,-0.118,11,-0.509,0.091,-9.621,69.594,-3.065,-0.578,-0.002,0,-0.001,12.631,-29.847,56.789,100398,28.6,0.1,-0.051,0.01,-0.961,0.036,0.03,-0.213
1227.279,-0.034,0.039,0.004,0.049,0.09,0.073,0.001,-0.028,-0.051,1003.09,25.424,84.884,-0.021,1003.39,25.68,82.368,-0.445,-0.776,0.201,-9.726,0.1,-0.03,-0.1,-2746,-2444,-3733,-0.851,0.523,0.04,0.013,38.3982959,-78.0637908,94.94,-0.052,0.018,-0.101,11,-0.504,0.077,-9.613,69.592,-3.063,-0.576,0,0,0.001,12.631,-29.952,55.899,100387,28.605,0.1,-0.051,0.01,-0.961,0.036,0.031,-0.21
1227.379,-0.03,0.051,-0.004,0.037,0.08,0.077,-0.018,-0.004,0.055,1003.093,25.434,84.857,-0.05,1003.31,25.67,83.039,0.176,-0.747,0.237,-9.833,-0.009,0.072,0.032,-2708,-2457,-3707,-0.85,0.525,0.038,0.01,38.3982959,-78.0637908,94.932,-0.05,0.017,-0.1,11,-0.535,0.083,-9.61,69.592,-3.063,-0.575,0,0.001,-0.002,12.861,-29.955,56.406,100398,28.6,0.099,-0.051,0.01,-0.949,0.034,0.031,-0.207
1227.479,-0.025,0.058,0.005,0.032,0.058,0.097,0.003,-0.018,0.084,1003.091,25.432,84.874,-0.036,1003.35,25.68,82.704,-0.243,-0.761,0.208,-9.862,0.026,-0.053,0.032,-2744,-2408,-3720,-0.849,0.526,0.039,0.012,38.3982959,-78.0637908,94.903,-0.047,0.015,-0.121,11,-0.516,0.089,-9.589,69.594,-3.063,-0.573,0,0,0.001,12.86,-30.059,56.022,100387,28.6,0.1,-0.052,0.01,-0.961,0.036,0.032,-0.208
1227.579,-0.029,0.059,0.016,-0.009,0.049,0.096,-0.061,0.015,0.054,1003.091,25.429,84.878,-0.034,1003.35,25.68,82.704,-0.168,-0.812,0.287,-9.826,0.013,0.045,0.028,-2744,-2431,-3676,-0.849,0.527,0.04,0.01,38.3982959,-78.0637908,94.9,-0.044,0.013,-0.114,11,-0.493,0.125,-9.556,69.596,-3.062,-0.573,0,-0.001,0,12.632,-29.847,56.409,100398,28.59,0.1,-0.051,0.011,-0.96,0.036,0.031,-0.206
1227.679,-0.042,0.056,0.026,-0.006,0.048,0.083,0.011,0.031,0.034,1003.089,25.428,84.893,-0.019,1003.27,25.67,83.374,0.495,-0.754,0.251,-9.812,-0.045,0.06,0.198,-2742,-2436,-3707,-0.844,0.536,0.039,0.008,38.3982958,-78.0637908,94.876,-0.052,0.01,-0.129,11,-0.503,0.1,-9.633,69.594,-3.062,-0.574,0,0,0.001,12.748,-29.85,56.156,100387,28.6,0.1,-0.052,0.011,-0.96,0.037,0.031,-0.209
1227.779,-0.047,0.053,0.012,-0.001,0.048,0.011,0.009,0.031,-0.047,1003.09,25.43,84.883,-0.03,1003.31,25.66,83.039,0.05,-0.74,0.215,-9.733,0.017,0.034,0.026,-2760,-2465,-3771,-0.843,0.537,0.037,0.009,38.3982958,-78.0637908,94.867,-0.049,0.009,-0.131,11,-0.495,0.088,-9.599,69.593,-3.063,-0.574,0,0,0,12.633,-29.848,56.156,100387,28.6,0.1,-0.052,0.01,-0.96,0.037,0.03,-0.209
1227.879,-0.051,0.046,0.012,-0.019,0.067,0.071,-0.023,0.058,0.093,1003.089,25.431,84.896,-0.013,1003.37,25.68,82.536,-0.453,-0.797,0.201,-9.869,0.04,0.051,0.102,-2715,-2422,-3686,-0.84,0.541,0.037,0.011,38.3982958,-78.063791,94.874,-0.047,-0.01,-0.117,11,-0.51,0.071,-9.629,69.592,-3.063,-0.572,-0.001,0,-0.002,12.625,-30.156,56.778,100410,28.59,0.1,-0.051,0.01,-0.96,0.036,0.031,-0.209
1227.979,-0.067,0.054,0.021,-0.042,0.075,0.082,-0.03,0.041,0.051,1003.09,25.436,84.883,-0.025,1003.32,25.68,82.955,-0.042,-0.79,0.266,-9.826,-0.053,0.045,-0.138,-2735,-2465,-3726,-0.844,0.535,0.039,0.009,38.3982957,-78.0637909,94.848,-0.054,-0.003,-0.134,11,-0.509,0.11,-9.622,69.591,-3.064,-0.571,-0.001,0,0.001,12.748,-29.851,56.283,100398,28.6,0.1,-0.052,0.01,-0.96,0.035,0.032,-0.207
1228.079,-0.073,0.059,0.039,-0.018,0.048,0.097,0.011,0.002,0.055,1003.089,25.423,84.892,-0.013,1003.26,25.67,83.458,0.562,-0.747,0.237,-9.833,0,-0.013,0.023,-2731,-2457,-3756,-0.843,0.536,0.039,0.01,38.3982957,-78.0637908,94.829,-0.051,0.005,-0.144,11,-0.52,0.122,-9.607,69.595,-3.059,-0.578,0.002,-0.001,0,12.631,-29.952,56.153,100398,28.6,0.099,-0.051,0.011,-0.949,0.034,0.032,-0.205
1228.179,-0.065,0.024,0.021,-0.014,0.04,0.093,0,0.043,0.06,1003.087,25.428,84.906,0.004,1003.28,25.67,83.291,0.369,-0.797,0.294,-9.833,-0.081,0.03,0.047,-2726,-2449,-3699,-0.842,0.538,0.041,0.007,38.3982956,-78.0637909,94.831,-0.058,-0.004,-0.139,11,-0.518,0.096,-9.61,69.595,-3.058,-0.578,0,0,0.001,12.633,-29.849,56.156,100398,28.6,0.101,-0.052,0.01,-0.972,0.037,0.032,-0.211
1228.279,-0.067,0.018,0.027,-0.018,0.039,0.113,-0.018,0.02,0.101,1003.088,25.425,84.904,0.003,1003.31,25.68,83.039,0.143,-0.79,0.259,-9.876,0.068,0.023,-0.043,-2744,-2468,-3731,-0.843,0.536,0.039,0.01,38.3982955,-78.0637909,94.784,-0.064,-0.005,-0.18,11,-0.51,0.104,-9.61,69.596,-3.059,-0.581,-0.001,0,-0.001,12.86,-30.059,56.276,100403.008,28.605,0.1,-0.051,0.011,-0.961,0.035,0.029,-0.208
1228.379,-0.072,0.023,0.035,-0.013,0.05,0.134,0.011,0.042,0.101,1003.09,25.432,84.881,-0.014,1003.3,25.68,83.123,0.294,-0.783,0.287,-9.876,-0.087,0.047,0.075,-2728,-2450,-3770,-0.841,0.539,0.04,0.007,38.3982954,-78.0637908,94.763,-0.071,0.003,-0.201,11,-0.533,0.095,-9.605,69.591,-3.061,-0.58,0,-0.002,0,12.869,-29.648,56.038,100398,28.605,0.099,-0.051,0.01,-0.95,0.036,0.029,-0.21
1228.479,-0.075,0.027,0.059,-0.017,0.049,0.17,-0.012,0.018,0.138,1003.09,25.428,84.885,-0.003,1003.36,25.67,82.62,-0.151,-0.804,0.244,-9.912,0.077,-0.009,-0.028,-2732,-2502,-3703,-0.842,0.538,0.04,0.011,38.3982954,-78.0637909,94.774,-0.068,-0.005,-0.181,10,-0.533,0.096,-9.588,69.592,-3.063,-0.579,0,-0.001,0,12.749,-29.852,55.904,100387,28.6,0.101,-0.053,0.01,-0.972,0.036,0.033,-0.211
1228.579,-0.071,0.034,0.08,0.019,0.044,0.168,0.057,0.012,0.089,1003.09,25.432,84.881,-0.003,1003.32,25.68,82.955,0.184,-0.74,0.223,-9.869,-0.102,0.015,-0.047,-2756,-2454,-3726,-0.843,0.536,0.04,0.008,38.3982954,-78.0637908,94.722,-0.064,0.003,-0.224,11,-0.509,0.087,-9.592,69.591,-3.062,-0.582,0,0,0,12.746,-29.954,56.28,100387,28.6,0.099,-0.051,0.01,-0.95,0.033,0.032,-0.202
1228.679,-0.055,0.043,0.088,0.041,0.075,0.141,0.037,0.074,0.063,1003.09,25.43,84.884,-0.001,1003.4,25.67,82.284,-0.571,-0.769,0.251,-9.841,-0.102,0.085,0.019,-2751,-2440,-3736,-0.843,0.536,0.039,0.006,38.3982954,-78.0637908,94.733,-0.061,0.003,-0.204,11,-0.508,0.11,-9.582,69.586,-3.062,-0.583,0,-0.001,0,12.516,-29.95,55.899,100387,28.6,0.101,-0.052,0.011,-0.973,0.036,0.03,-0.215
1228.779,-0.05,0.051,0.093,0.016,0.084,0.16,-0.019,0.053,0.123,1003.09,25.434,84.886,0.004,1003.28,25.68,83.291,0.486,-0.776,0.323,-9.898,-0.009,0.055,0.085,-2751,-2457,-3675,-0.841,0.54,0.039,0.006,38.3982953,-78.0637909,94.757,-0.069,-0.007,-0.167,12,-0.534,0.076,-9.601,69.587,-3.06,-0.583,-0.001,0,-0.001,12.749,-29.851,56.284,100387,28.605,0.1,-0.051,0.01,-0.961,0.035,0.03,-0.208
1228.879,-0.042,0.067,0.093,0.081,0.078,0.101,0.096,0.029,0.016,1003.089,25.428,84.893,0.009,1003.38,25.68,82.452,-0.344,-0.711,0.237,-9.797,-0.117,-0.026,-0.058,-2741,-2483,-3760,-0.843,0.537,0.04,0.005,38.3982952,-78.0637907,94.698,-0.077,0.012,-0.216,12,-0.524,0.099,-9.624,69.585,-3.062,-0.578,0,0,0.001,13.096,-29.859,56.159,100387,28.605,0.1,-0.052,0.01,-0.961,0.037,0.03,-0.21
1228.979,-0.029,0.076,0.078,0.044,0.085,0.029,-0.012,0.044,-0.026,1003.088,25.43,84.904,0.022,1003.34,25.68,82.787,-0.042,-0.812,0.251,-9.747,0.064,0.002,-0.077,-2737,-2491,-3768,-0.845,0.534,0.04,0.01,38.3982952,-78.0637907,94.678,-0.073,0.012,-0.223,12,-0.512,0.102,-9.614,69.587,-3.06,-0.578,0,0.001,0,12.747,-29.954,56.154,100391.008,28.61,0.1,-0.052,0.009,-0.961,0.035,0.033,-0.207
1229.079,-0.03,0.066,0.056,0.038,0.029,0.019,0.015,-0.019,0.015,1003.087,25.428,84.907,0.024,1003.31,25.68,83.039,0.101,-0.704,0.215,-9.797,0.034,0.019,-0.011,-2735,-2455,-3725,-0.845,0.533,0.037,0.01,38.3982952,-78.0637908,94.697,-0.07,0.003,-0.192,12,-0.508,0.111,-9.614,69.587,-3.06,-0.581,0,0,0,12.749,-29.852,56.031,100391.008,28.605,0.1,-0.051,0.011,-0.961,0.034,0.03,-0.206
1229.179,-0.049,0.025,0.035,0.033,0.014,0.026,0.021,0.008,0.1,1003.087,25.427,84.907,0.023,1003.31,25.67,83.039,0.092,-0.783,0.208,-9.876,-0.026,-0.055,0.077,-2735,-2467,-3761,-0.843,0.536,0.04,0.011,38.3982952,-78.0637909,94.711,-0.067,-0.005,-0.169,12,-0.538,0.111,-9.597,69.581,-3.059,-0.584,0.001,0,0,12.863,-29.957,56.155,100398,28.6,0.1,-0.051,0.011,-0.96,0.035,0.03,-0.212
1229.279,-0.054,0.015,0.024,0.033,0.016,0.018,0.02,0.025,-0.006,1003.089,25.422,84.893,0.006,1003.34,25.68,82.787,-0.227,-0.819,0.172,-9.769,0.011,-0.017,0.13,-2756,-2448,-3748,-0.839,0.542,0.04,0.014,38.3982951,-78.0637909,94.704,-0.073,-0.004,-0.16,12,-0.514,0.12,-9.622,69.583,-3.061,-0.581,0,-0.001,0,12.629,-30.055,56.403,100403.008,28.61,0.1,-0.052,0.01,-0.961,0.038,0.03,-0.208
1229.379,-0.051,0.009,0.015,0.042,0,0.03,0.033,-0.034,0.055,1003.091,25.433,84.88,-0.009,1003.25,25.68,83.542,0.52,-0.754,0.23,-9.833,-0.06,-0.034,0.013,-2745,-2456,-3718,-0.839,0.542,0.041,0.012,38.3982951,-78.0637909,94.719,-0.068,-0.004,-0.128,12,-0.529,0.107,-9.604,69.578,-3.06,-0.578,-0.001,-0.001,0.001,12.752,-29.749,56.162,100398,28.6,0.1,-0.052,0.01,-0.961,0.037,0.032,-0.212
1229.479,-0.045,0.009,0.019,0.053,0.026,0.03,0.042,0.062,0.012,1003.089,25.426,84.896,0.006,1003.34,25.68,82.787,-0.227,-0.783,0.158,-9.79,-0.034,0.092,0.104,-2773,-2468,-3741,-0.837,0.546,0.038,0.011,38.398295,-78.0637909,94.677,-0.073,-0.003,-0.158,12,-0.503,0.116,-9.605,69.579,-3.061,-0.581,-0.001,0,0,12.752,-29.75,56.036,100391.008,28.61,0.099,-0.051,0.01,-0.95,0.032,0.03,-0.204
1229.579,-0.037,0.023,0.02,0.045,0.083,0.046,0.006,0.117,0.054,1003.09,25.421,84.887,-0.003,1003.36,25.67,82.62,-0.419,-0.855,0.172,-9.826,-0.051,0.1,0.051,-2737,-2441,-3650,-0.835,0.548,0.038,0.011,38.398295,-78.0637909,94.646,-0.068,-0.003,-0.171,12,-0.522,0.109,-9.63,69.582,-3.057,-0.585,0,0,0,12.747,-29.955,56.282,100387,28.605,0.1,-0.051,0.011,-0.961,0.036,0.031,-0.207
1229.679,-0.037,0.039,0.022,0.041,0.062,0.026,0.021,-0.001,-0.006,1003.089,25.424,84.891,0.001,1003.36,25.69,82.62,-0.31,-0.797,0.237,-9.769,-0.06,-0.07,-0.085,-2744,-2446,-3713,-0.838,0.545,0.042,0.012,38.3982949,-78.0637909,94.627,-0.074,-0.003,-0.176,12,-0.501,0.08,-9.612,69.584,-3.058,-0.587,-0.001,0,0,12.627,-30.158,56.273,100387,28.6,0.1,-0.052,0.01,-0.961,0.036,0.032,-0.208
1229.779,-0.032,0.031,0.003,0.061,-0.002,-0.028,0.053,-0.058,-0.054,1003.091,25.423,84.878,-0.012,1003.41,25.69,82.201,-0.755,-0.646,0.223,-9.733,-0.023,0.011,-0.087,-2743,-2426,-3728,-0.84,0.541,0.038,0.009,38.3982949,-78.0637909,94.623,-0.069,-0.003,-0.169,12,-0.506,0.092,-9.609,69.583,-3.059,-0.584,-0.001,-0.001,-0.001,12.629,-30.055,56.023,100414,28.61,0.1,-0.052,0.01,-0.961,0.036,0.03,-0.212
1229.879,-0.026,0.006,0.007,0.061,-0.031,0.054,0.03,-0.026,0.099,1003.089,25.43,84.891,0.001,1003.28,25.68,83.291,0.344,-0.761,0.266,-9.876,-0.043,-0.104,0.089,-2737,-2511,-3737,-0.838,0.545,0.042,0.01,38.3982948,-78.0637909,94.562,-0.073,-0.005,-0.212,12,-0.522,0.08,-9.618,69.582,-3.063,-0.582,0,0,0,12.633,-29.849,56.411,100379.008,28.61,0.1,-0.052,0.01,-0.961,0.035,0.03,-0.21
1229.979,-0.022,-0.017,0.006,0.076,-0.037,0.039,0.048,-0.012,0.013,1003.092,25.433,84.865,-0.026,1003.33,25.67,82.871,-0.059,-0.783,0.158,-9.79,0.043,-0.053,-0.028,-2760,-2479,-3721,-0.838,0.544,0.04,0.014,38.3982947,-78.0637909,94.542,-0.079,-0.007,-0.215,12,-0.53,0.098,-9.586,69.583,-3.066,-0.584,-0.001,0.001,0,12.864,-29.853,56.412,100403.008,28.62,0.099,-0.052,0.01,-0.948,0.033,0.031,-0.203
1230.079,-0.027,-0.042,0.01,-0.011,-0.066,0.072,-0.063,-0.04,0.059,1003.092,25.432,84.867,-0.026,1003.3,25.69,83.123,0.235,-0.804,0.259,-9.833,0.096,-0.013,0.085,-2745,-2464,-3666,-0.836,0.547,0.04,0.015,38.3982948,-78.063791,94.564,-0.062,-0.016,-0.18,12,-0.521,0.114,-9.613,69.583,-3.065,-0.587,0.001,0,0.001,12.747,-29.955,56.281,100387,28.605,0.1,-0.052,0.011,-0.961,0.035,0.032,-0.207
1230.179,-0.047,-0.026,-0.009,-0.021,-0.063,0.076,-0.02,-0.044,0.098,1003.092,25.431,84.868,-0.025,1003.34,25.69,82.787,-0.076,-0.747,0.251,-9.876,0.006,0.009,0.009,-2782,-2499,-3712,-0.836,0.548,0.039,0.012,38.3982948,-78.0637909,94.527,-0.058,-0.007,-0.205,12,-0.503,0.083,-9.612,69.585,-3.062,-0.591,0.001,0,-0.001,12.867,-29.751,56.289,100403.008,28.61,0.101,-0.052,0.011,-0.973,0.036,0.032,-0.211
1230.279,-0.052,-0.029,-0.006,-0.009,-0.08,0.105,0.046,-0.083,0.137,1003.093,25.436,84.862,-0.03,1003.31,25.68,83.039,0.201,-0.711,0.208,-9.92,-0.013,-0.117,-0.04,-2759,-2456,-3723,-0.837,0.546,0.04,0.013,38.3982948,-78.0637909,94.524,-0.053,-0.007,-0.2,12,-0.511,0.091,-9.616,69.585,-3.062,-0.589,0,0,0,12.865,-29.854,56.285,100403.008,28.61,0.099,-0.051,0.01,-0.949,0.036,0.03,-0.205
1230.379,-0.058,-0.036,0.01,-0.014,-0.081,0.114,-0.012,-0.028,0.054,1003.092,25.429,84.87,-0.022,1003.31,25.69,83.039,0.159,-0.819,0.287,-9.826,-0.036,-0.06,-0.096,-2731,-2451,-3734,-0.839,0.542,0.043,0.012,38.3982947,-78.0637908,94.473,-0.061,0.003,-0.246,12,-0.492,0.08,-9.595,69.584,-3.064,-0.587,0.001,0,0.001,12.518,-29.847,56.158,100403.008,28.61,0.099,-0.051,0.01,-0.948,0.036,0.03,-0.21
1230.479,-0.065,-0.044,0.019,-0.009,-0.09,0.078,0.012,-0.053,-0.03,1003.092,25.427,84.865,-0.028,1003.27,25.68,83.374,0.478,-0.769,0.237,-9.747,0.045,-0.043,-0.036,-2734,-2449,-3751,-0.84,0.541,0.042,0.013,38.3982946,-78.0637907,94.429,-0.068,0.011,-0.281,12,-0.5,0.101,-9.605,69.586,-3.063,-0.586,0,0,0,12.752,-29.749,56.163,100403.008,28.61,0.1,-0.052,0.01,-0.961,0.035,0.031,-0.204
1230.579,-0.065,-0.055,0.014,-0.022,-0.121,0.059,-0.032,-0.106,0.021,1003.093,25.427,84.859,-0.035,1003.32,25.69,82.955,0.092,-0.769,0.294,-9.797,0.083,-0.113,0.03,-2762,-2431,-3707,-0.839,0.542,0.043,0.014,38.3982947,-78.0637906,94.405,-0.052,0.021,-0.297,12,-0.496,0.081,-9.619,69.588,-3.063,-0.585,0.001,0,-0.001,12.633,-29.849,56.412,100403.008,28.605,0.101,-0.052,0.01,-0.973,0.036,0.031,-0.212
1230.679,-0.064,-0.073,0.002,-0.013,-0.15,0.064,0,-0.111,0.065,1003.094,25.431,84.848,-0.047,1003.33,25.68,82.871,-0.025,-0.79,0.259,-9.841,0.047,-0.134,-0.119,-2741,-2460,-3661,-0.842,0.538,0.044,0.015,38.3982947,-78.0637906,94.397,-0.047,0.022,-0.294,12,-0.495,0.096,-9.609,69.588,-3.059,-0.588,-0.001,0.001,0.001,12.405,-29.742,56.161,100403.008,28.605,0.099,-0.05,0.011,-0.949,0.035,0.031,-0.207
1230.779,-0.069,-0.088,0.011,-0.035,-0.146,0.056,-0.038,-0.072,0.023,1003.091,25.426,84.874,-0.02,1003.36,25.69,82.62,-0.168,-0.783,0.316,-9.797,0.026,0.006,-0.002,-2748,-2470,-3730,-0.842,0.538,0.043,0.012,38.3982946,-78.0637906,94.357,-0.053,0.022,-0.321,12,-0.522,0.076,-9.599,69.585,-3.059,-0.587,0,-0.002,-0.001,12.516,-29.95,56.153,100403.008,28.61,0.1,-0.051,0.01,-0.961,0.036,0.029,-0.211
1230.879,-0.067,-0.082,0.002,-0.002,-0.11,0.048,0.026,-0.033,0.03,1003.094,25.431,84.855,-0.038,1003.36,25.69,82.62,-0.251,-0.797,0.259,-9.805,-0.03,-0.047,-0.047,-2738,-2452,-3690,-0.843,0.536,0.043,0.011,38.3982946,-78.0637905,94.324,-0.049,0.032,-0.34,12,-0.531,0.079,-9.596,69.584,-3.06,-0.586,0,0,-0.001,12.753,-29.646,56.419,100391.008,28.61,0.101,-0.052,0.01,-0.973,0.036,0.029,-0.211
1230.979,-0.053,-0.067,0.014,0.009,-0.104,0.089,0.007,-0.056,0.075,1003.092,25.433,84.866,-0.023,1003.36,25.69,82.62,-0.26,-0.74,0.208,-9.855,0.089,-0.002,-0.111,-2728,-2404,-3785,-0.846,0.531,0.039,0.013,38.3982946,-78.0637904,94.29,-0.043,0.043,-0.361,12,-0.541,0.085,-9.619,69.583,-3.061,-0.586,-0.001,-0.001,0.001,12.745,-30.058,56.024,100387,28.6,0.099,-0.051,0.01,-0.949,0.034,0.031,-0.205
1231.079,-0.036,-0.051,0.053,0.029,-0.072,0.169,0.019,-0.02,0.126,1003.092,25.428,84.872,-0.014,1003.36,25.7,82.62,-0.268,-0.754,0.201,-9.905,-0.03,-0.009,-0.023,-2765,-2447,-3709,-0.847,0.53,0.039,0.012,38.3982946,-78.0637904,94.28,-0.039,0.045,-0.357,12,-0.523,0.099,-9.634,69.581,-3.061,-0.586,-0.001,0.001,-0.001,12.511,-30.156,56.145,100391.008,28.61,0.1,-0.052,0.01,-0.961,0.035,0.031,-0.211
1231.179,-0.04,0.002,0.006,0.029,-0.047,0.156,0.021,0.007,0.105,1003.094,25.429,84.85,-0.032,1003.33,25.69,82.871,0.008,-0.761,0.201,-9.884,-0.034,0.011,0.017,-2757,-2472,-3725,-0.846,0.531,0.039,0.011,38.3982945,-78.0637904,94.273,-0.046,0.045,-0.346,12,-0.526,0.088,-9.634,69.584,-3.06,-0.588,-0.001,-0.001,-0.001,12.866,-29.75,56.669,100391.008,28.61,0.101,-0.052,0.011,-0.972,0.036,0.032,-0.207
1231.279,-0.036,0.015,0.017,0.026,-0.022,0.161,-0.005,0.063,0.067,1003.093,25.427,84.86,-0.019,1003.37,25.69,82.536,-0.352,-0.812,0.244,-9.841,-0.062,0.066,0.083,-2743,-2445,-3730,-0.844,0.534,0.039,0.009,38.3982945,-78.0637904,94.241,-0.042,0.045,-0.36,11,-0.541,0.086,-9.647,69.584,-3.058,-0.59,0,-0.001,-0.001,12.402,-29.845,56.157,100391.008,28.61,0.099,-0.051,0.01,-0.949,0.035,0.03,-0.209
1231.379,-0.032,0.022,0.033,0.013,-0.004,0.129,-0.03,0.033,-0.037,1003.093,25.426,84.86,-0.018,1003.34,25.68,82.787,-0.051,-0.84,0.28,-9.733,0.023,-0.015,0.164,-2730,-2446,-3731,-0.84,0.541,0.042,0.011,38.3982945,-78.0637904,94.231,-0.038,0.044,-0.345,11,-0.53,0.104,-9.595,69.58,-3.061,-0.589,0.002,0,-0.001,12.629,-30.055,56.404,100403.008,28.61,0.1,-0.052,0.01,-0.96,0.036,0.03,-0.212
1231.479,-0.03,0.033,0.045,0.028,0.002,0.123,0.04,0.001,0.047,1003.093,25.433,84.859,-0.015,1003.36,25.7,82.62,-0.277,-0.718,0.294,-9.826,-0.098,0.055,0.049,-2710,-2499,-3732,-0.839,0.543,0.04,0.006,38.3982944,-78.0637903,94.197,-0.044,0.051,-0.355,11,-0.52,0.106,-9.628,69.585,-3.06,-0.587,-0.001,0,0,12.514,-30.053,56.15,100387,28.605,0.1,-0.052,0.01,-0.96,0.035,0.033,-0.206
1231.579,-0.03,0.037,0.056,-0.003,-0.009,0.12,-0.046,-0.027,0.067,1003.093,25.43,84.863,-0.009,1003.26,25.68,83.458,0.528,-0.797,0.28,-9.841,0.166,-0.077,0.068,-2779,-2458,-3740,-0.837,0.546,0.04,0.013,38.3982944,-78.0637903,94.178,-0.041,0.048,-0.35,11,-0.512,0.08,-9.616,69.585,-3.057,-0.587,0.002,0.001,0.001,12.634,-29.849,56.285,100391.008,28.61,0.101,-0.052,0.01,-0.974,0.036,0.034,-0.21
1231.679,-0.037,0.04,0.071,0.011,0.002,0.141,0.029,0.013,0.109,1003.092,25.429,84.871,0.004,1003.38,25.7,82.452,-0.503,-0.804,0.251,-9.884,-0.102,0.006,-0.183,-2770,-2452,-3731,-0.842,0.538,0.042,0.01,38.3982943,-78.0637903,94.169,-0.05,0.045,-0.336,11,-0.485,0.068,-9.624,69.588,-3.055,-0.586,-0.001,0,0,12.637,-29.748,56.036,100403.008,28.605,0.099,-0.051,0.01,-0.949,0.035,0.032,-0.206
1231.779,-0.036,0.05,0.086,0.016,0.043,0.146,0.014,0.058,0.092,1003.091,25.424,84.876,0.009,1003.25,25.69,83.542,0.545,-0.776,0.215,-9.869,-0.002,0.121,0.064,-2768,-2477,-3729,-0.84,0.541,0.038,0.009,38.3982943,-78.0637903,94.167,-0.047,0.043,-0.311,11,-0.517,0.091,-9.618,69.588,-3.053,-0.587,0,-0.001,-0.001,12.75,-29.853,55.906,100391.008,28.61,0.101,-0.051,0.011,-0.972,0.036,0.03,-0.211
1231.879,-0.036,0.061,0.082,0.004,0.032,0.071,-0.009,0.001,-0.013,1003.092,25.428,84.872,0.008,1003.43,25.7,82.033,-0.897,-0.711,0.201,-9.769,0.062,0.021,-0.043,-2742,-2425,-3727,-0.841,0.539,0.036,0.011,38.3982943,-78.0637903,94.149,-0.044,0.039,-0.305,11,-0.554,0.1,-9.618,69.582,-3.056,-0.587,0.001,0,0,12.865,-29.854,56.666,100403.008,28.61,0.099,-0.051,0.01,-0.949,0.035,0.029,-0.209
1231.979,-0.051,0.053,0.063,-0.05,-0.009,0.088,-0.059,-0.032,0.076,1003.093,25.439,84.859,-0.004,1003.43,25.69,82.033,-0.872,-0.754,0.215,-9.855,0.115,-0.051,-0.013,-2738,-2439,-3742,-0.841,0.539,0.036,0.014,38.3982943,-78.0637903,94.148,-0.043,0.035,-0.281,11,-0.514,0.079,-9.607,69.58,-3.058,-0.586,0,0,0.001,12.407,-29.639,56.419,100387,28.605,0.099,-0.051,0.01,-0.949,0.035,0.031,-0.205
1232.079,-0.066,0.034,0.061,-0.033,0.004,0.097,0.003,0.019,0.06,1003.093,25.44,84.857,-0.007,1003.39,25.7,82.368,-0.487,-0.733,0.23,-9.841,-0.102,0.058,0.038,-2754,-2438,-3768,-0.84,0.54,0.037,0.009,38.3982943,-78.0637904,94.169,-0.041,0.021,-0.232,11,-0.512,0.109,-9.623,69.582,-3.06,-0.586,-0.001,-0.001,-0.001,12.521,-29.745,55.908,100391.008,28.61,0.101,-0.053,0.01,-0.973,0.034,0.032,-0.209
1232.179,-0.058,0.019,0.018,-0.034,0.008,0.08,-0.037,0.054,0.046,1003.094,25.446,84.851,-0.012,1003.37,25.69,82.536,-0.327,-0.812,0.266,-9.819,0,0.032,0.038,-2756,-2438,-3733,-0.839,0.542,0.039,0.01,38.3982942,-78.0637905,94.191,-0.049,0.008,-0.184,11,-0.511,0.116,-9.64,69.586,-3.056,-0.59,0.001,0,0,12.632,-29.952,56.281,100395.008,28.62,0.099,-0.05,0.011,-0.949,0.035,0.031,-0.202
1232.279,-0.059,0.015,0.018,-0.04,0.03,0.09,-0.035,0.091,0.068,1003.094,25.442,84.855,-0.007,1003.35,25.7,82.704,-0.109,-0.833,0.23,-9.841,0.017,0.111,0.036,-2744,-2468,-3744,-0.839,0.543,0.038,0.01,38.3982942,-78.0637905,94.22,-0.046,0.003,-0.127,11,-0.509,0.093,-9.611,69.579,-3.056,-0.59,0,-0.001,0,12.75,-29.853,56.159,100391.008,28.61,0.099,-0.051,0.01,-0.949,0.036,0.029,-0.212
1232.379,-0.058,0.017,0.037,-0.035,0.057,0.099,-0.001,0.087,0.044,1003.091,25.442,84.877,0.016,1003.3,25.7,83.123,0.336,-0.819,0.158,-9.819,0.006,0.077,-0.015,-2762,-2448,-3701,-0.839,0.543,0.037,0.012,38.3982943,-78.0637906,94.273,-0.032,-0.009,-0.05,11,-0.542,0.068,-9.619,69.576,-3.06,-0.586,0.001,0,-0.001,12.634,-29.85,56.159,100395.008,28.62,0.1,-0.052,0.01,-0.961,0.038,0.03,-0.21
1232.479,-0.054,0.019,0.046,-0.012,0.053,0.122,0.032,0.017,0.103,1003.094,25.451,84.851,-0.01,1003.26,25.68,83.458,0.746,-0.74,0.18,-9.884,-0.055,0.009,0.045,-2735,-2437,-3746,-0.838,0.544,0.037,0.011,38.3982943,-78.0637907,94.318,-0.03,-0.021,0.019,11,-0.521,0.109,-9.596,69.581,-3.063,-0.582,0,0,0,12.511,-30.156,56.4,100391.008,28.61,0.099,-0.052,0.009,-0.949,0.035,0.032,-0.202
1232.579,-0.045,0.023,0.062,0.003,0.065,0.134,0.014,0.052,0.093,1003.093,25.445,84.859,-0.001,1003.25,25.69,83.542,0.78,-0.769,0.273,-9.869,-0.121,0.051,0.064,-2730,-2494,-3767,-0.836,0.547,0.039,0.007,38.3982943,-78.0637907,94.383,-0.027,-0.024,0.106,11,-0.5,0.111,-9.612,69.582,-3.061,-0.584,0,0,0.001,12.629,-30.056,56.15,100391.008,28.61,0.1,-0.051,0.01,-0.962,0.033,0.033,-0.207
1232.679,-0.043,0.011,0.077,-0.018,-0.012,0.163,-0.037,-0.086,0.134,1003.093,25.436,84.862,-0.001,1003.37,25.69,82.536,-0.184,-0.704,0.366,-9.912,0.075,-0.1,-0.072,-2739,-2459,-3735,-0.838,0.544,0.041,0.008,38.3982942,-78.0637907,94.413,-0.033,-0.026,0.159,11,-0.505,0.09,-9.655,69.582,-3.057,-0.584,-0.001,0.001,0,12.516,-29.95,56.28,100403.008,28.61,0.1,-0.051,0.011,-0.961,0.037,0.032,-0.208
1232.779,-0.042,-0.007,0.083,-0.007,0.036,0.136,0.005,0.083,0.062,1003.093,25.445,84.858,-0.005,1003.41,25.7,82.201,-0.612,-0.84,0.251,-9.833,-0.017,0.064,0.19,-2731,-2452,-3785,-0.833,0.552,0.04,0.009,38.3982942,-78.0637908,94.47,-0.03,-0.038,0.235,11,-0.518,0.094,-9.637,69.578,-3.057,-0.585,0.001,0,-0.001,12.513,-30.053,56.404,100391.008,28.61,0.099,-0.051,0.011,-0.949,0.037,0.029,-0.211
1232.879,-0.034,-0.004,0.084,0.005,0.055,0.121,0.009,0.044,0.063,1003.092,25.431,84.867,0.003,1003.28,25.69,83.291,0.537,-0.848,0.266,-9.833,-0.03,-0.006,-0.009,-2765,-2510,-3758,-0.833,0.551,0.042,0.01,38.3982942,-78.0637908,94.49,-0.027,-0.039,0.273,11,-0.526,0.092,-9.623,69.579,-3.059,-0.581,0,0,-0.001,12.75,-29.853,56.032,100391.008,28.61,0.099,-0.051,0.009,-0.949,0.037,0.029,-0.206
1232.979,-0.013,-0.025,0.075,0.06,-0.043,0.103,0.061,-0.086,0.054,1003.093,25.447,84.856,-0.008,1003.29,25.7,83.207,0.512,-0.668,0.18,-9.841,0.064,-0.064,-0.047,-2811,-2451,-3728,-0.834,0.55,0.038,0.013,38.3982942,-78.0637909,94.555,-0.023,-0.049,0.352,11,-0.514,0.077,-9.611,69.58,-3.06,-0.579,-0.002,0,0.002,12.519,-29.848,56.031,100391.008,28.62,0.099,-0.052,0.009,-0.95,0.035,0.032,-0.206
1233.079,0.011,-0.058,0.045,0.051,-0.04,0.003,0.008,-0.002,-0.049,1003.094,25.434,84.851,-0.012,1003.42,25.7,82.117,-0.553,-0.718,0.201,-9.733,-0.021,0.038,-0.092,-2730,-2435,-3728,-0.837,0.546,0.037,0.011,38.3982942,-78.0637909,94.555,-0.02,-0.049,0.363,11,-0.517,0.122,-9.622,69.584,-3.058,-0.58,0,0.001,0.001,12.748,-29.955,56.155,100407.008,28.62,0.1,-0.052,0.01,-0.961,0.034,0.033,-0.206
1233.179,0.005,-0.06,0.009,0.044,-0.044,0.002,-0.008,-0.036,0.083,1003.094,25.443,84.854,-0.009,1003.34,25.69,82.787,0.151,-0.747,0.215,-9.862,0.036,-0.075,-0.036,-2748,-2452,-3709,-0.838,0.544,0.038,0.013,38.3982943,-78.063791,94.597,-0.006,-0.057,0.413,11,-0.501,0.107,-9.606,69.586,-3.054,-0.587,0,0,-0.001,12.634,-29.85,56.159,100403.008,28.61,0.099,-0.051,0.011,-0.949,0.034,0.033,-0.202
1233.279,0.007,-0.057,-0.007,0.023,-0.031,0.003,-0.067,0.03,0.027,1003.096,25.451,84.837,-0.025,1003.25,25.69,83.542,0.889,-0.754,0.28,-9.805,0.015,0.128,0.049,-2765,-2479,-3732,-0.837,0.546,0.036,0.01,38.3982943,-78.0637908,94.558,-0.002,-0.038,0.376,11,-0.519,0.084,-9.594,69.579,-3.052,-0.585,0,0.001,0,12.401,-29.949,55.901,100407.008,28.62,0.1,-0.051,0.01,-0.961,0.038,0.031,-0.215
1233.379,0.004,-0.055,-0.011,0.012,-0.018,-0.003,-0.019,0.021,-0.012,1003.094,25.447,84.848,-0.015,1003.32,25.7,82.955,0.268,-0.747,0.151,-9.769,0.089,0.006,-0.115,-2764,-2476,-3728,-0.84,0.542,0.035,0.014,38.3982942,-78.0637908,94.551,-0.011,-0.037,0.365,11,-0.529,0.086,-9.629,69.58,-3.057,-0.58,0,0,0,12.751,-29.854,55.78,100391.008,28.61,0.099,-0.052,0.01,-0.949,0.038,0.028,-0.207
1233.479,-0.002,-0.045,-0.002,-0.018,0.009,0.009,-0.058,0.044,0.017,1003.092,25.447,84.87,0.007,1003.29,25.69,83.207,0.436,-0.826,0.194,-9.79,0.013,0.026,-0.072,-2762,-2470,-3768,-0.842,0.539,0.037,0.014,38.3982942,-78.0637907,94.521,-0.01,-0.024,0.323,12,-0.503,0.085,-9.593,69.582,-3.058,-0.579,0,0,0.001,12.632,-29.953,56.283,100403.008,28.62,0.099,-0.051,0.009,-0.95,0.034,0.033,-0.205
1233.579,-0.021,-0.031,0.018,-0.049,-0.004,0.062,-0.054,-0.034,0.092,1003.091,25.44,84.879,0.016,1003.29,25.69,83.207,0.428,-0.74,0.323,-9.869,-0.03,0.009,0.079,-2749,-2468,-3753,-0.839,0.542,0.039,0.01,38.3982941,-78.0637906,94.491,-0.02,-0.012,0.272,12,-0.528,0.11,-9.626,69.581,-3.056,-0.581,-0.002,0.001,0.001,12.631,-30.057,56.026,100407.008,28.615,0.101,-0.052,0.01,-0.972,0.033,0.033,-0.209
1233.679,-0.037,-0.019,0.032,-0.043,0.015,0.073,-0.004,0.02,0.051,1003.092,25.44,84.864,0.003,1003.34,25.7,82.787,0,-0.79,0.237,-9.826,0.023,-0.009,0.134,-2734,-2478,-3676,-0.836,0.548,0.039,0.011,38.3982941,-78.0637906,94.472,-0.019,-0.009,0.229,12,-0.481,0.117,-9.611,69.582,-3.052,-0.586,0,0,0,12.515,-30.055,56.025,100395.008,28.63,0.099,-0.05,0.011,-0.949,0.034,0.032,-0.204
1233.779,-0.037,-0.009,0.037,-0.003,-0.022,0.086,0.037,-0.057,0.066,1003.094,25.445,84.852,-0.008,1003.32,25.7,82.955,0.302,-0.725,0.201,-9.848,0.013,-0.087,-0.081,-2723,-2490,-3699,-0.838,0.544,0.04,0.013,38.3982941,-78.0637905,94.487,-0.018,0.004,0.214,12,-0.507,0.101,-9.558,69.578,-3.055,-0.585,0,0,0,12.755,-29.647,56.295,100403.008,28.62,0.099,-0.051,0.01,-0.948,0.037,0.029,-0.208
1233.879,-0.031,-0.011,0.041,0.008,-0.05,0.081,0.01,-0.05,0.043,1003.094,25.446,84.851,-0.009,1003.32,25.7,82.955,0.176,-0.79,0.237,-9.819,-0.002,-0.1,0.004,-2736,-2447,-3700,-0.838,0.545,0.042,0.014,38.398294,-78.0637904,94.494,-0.028,0.017,0.186,12,-0.495,0.097,-9.605,69.579,-3.058,-0.583,0,0,0,12.517,-29.951,56.283,100395.008,28.62,0.101,-0.053,0.01,-0.973,0.037,0.029,-0.212
1233.979,-0.02,-0.018,0.044,0.029,-0.055,0.082,0.026,-0.029,0.048,1003.094,25.451,84.851,-0.009,1003.28,25.7,83.291,0.394,-0.754,0.23,-9.826,-0.03,0.013,-0.017,-2716,-2462,-3725,-0.838,0.544,0.04,0.012,38.398294,-78.0637904,94.526,-0.027,0.023,0.178,12,-0.515,0.072,-9.623,69.575,-3.058,-0.58,-0.001,0.001,0,12.748,-29.956,56.284,100395.008,28.62,0.099,-0.052,0.009,-0.949,0.035,0.032,-0.207
1234.079,-0.016,-0.017,0.067,-0.002,-0.039,0.117,-0.024,-0.007,0.076,1003.092,25.448,84.869,0.011,1003.29,25.7,83.207,0.336,-0.819,0.294,-9.848,0,-0.021,0.034,-2722,-2426,-3735,-0.837,0.545,0.042,0.011,38.398294,-78.0637904,94.51,-0.026,0.027,0.123,12,-0.5,0.116,-9.645,69.583,-3.057,-0.582,0,0.001,0,12.752,-29.749,56.672,100391.008,28.61,0.1,-0.052,0.01,-0.96,0.033,0.034,-0.203
1234.179,-0.023,0.004,0.056,-0.003,-0.036,0.125,0.006,-0.042,0.126,1003.088,25.441,84.898,0.039,1003.38,25.71,82.452,-0.445,-0.733,0.266,-9.905,0.038,0.002,0.132,-2749,-2460,-3734,-0.833,0.551,0.04,0.011,38.398294,-78.0637905,94.537,-0.027,0.023,0.11,12,-0.513,0.106,-9.605,69.582,-3.054,-0.587,0.001,0,0,12.746,-30.06,56.026,100403.008,28.62,0.101,-0.052,0.012,-0.973,0.036,0.032,-0.214
1234.279,-0.025,0.016,0.056,0,-0.023,0.112,0.012,0.022,-0.002,1003.091,25.439,84.879,0.022,1003.33,25.7,82.871,-0.109,-0.84,0.237,-9.769,-0.015,-0.049,0.117,-2714,-2425,-3763,-0.83,0.556,0.042,0.013,38.398294,-78.0637903,94.518,-0.028,0.043,0.057,12,-0.518,0.106,-9.601,69.58,-3.056,-0.587,0.001,0,-0.001,12.513,-30.158,56.021,100395.008,28.63,0.099,-0.051,0.011,-0.947,0.037,0.028,-0.211
1234.379,-0.027,0.023,0.065,-0.013,-0.007,0.101,-0.036,0.027,0.009,1003.091,25.446,84.878,0.024,1003.31,25.7,83.039,0.076,-0.812,0.215,-9.783,0.083,0.094,-0.058,-2717,-2449,-3725,-0.832,0.554,0.038,0.014,38.398294,-78.0637903,94.538,-0.027,0.045,0.049,12,-0.511,0.097,-9.618,69.58,-3.061,-0.584,0.001,0.001,0,12.744,-30.163,56.15,100395.008,28.62,0.1,-0.052,0.01,-0.961,0.037,0.028,-0.209
1234.479,-0.032,0.026,0.064,-0.02,-0.028,0.099,-0.018,-0.055,0.057,1003.093,25.45,84.86,0.003,1003.29,25.71,83.207,0.269,-0.776,0.251,-9.833,0.019,-0.087,0.019,-2728,-2459,-3761,-0.831,0.554,0.041,0.014,38.398294,-78.0637903,94.576,-0.026,0.045,0.067,12,-0.506,0.09,-9.596,69.579,-3.063,-0.582,-0.002,0.001,0.001,12.634,-29.85,56.414,100395.008,28.63,0.101,-0.053,0.009,-0.973,0.034,0.033,-0.21
1234.579,-0.035,0.022,0.088,0.008,-0.055,0.144,0.048,-0.068,0.135,1003.089,25.438,84.895,0.037,1003.32,25.7,82.955,0.05,-0.776,0.244,-9.912,-0.06,-0.115,0.085,-2754,-2427,-3660,-0.829,0.558,0.043,0.013,38.3982939,-78.0637902,94.523,-0.034,0.052,0.003,12,-0.495,0.095,-9.607,69.583,-3.063,-0.585,0,0,0,12.637,-29.748,56.291,100407.008,28.62,0.099,-0.051,0.01,-0.948,0.032,0.032,-0.205
1234.679,-0.026,0.015,0.112,0.035,-0.071,0.146,0.044,-0.057,0.083,1003.088,25.444,84.902,0.043,1003.35,25.69,82.704,-0.226,-0.754,0.208,-9.862,0.006,-0.038,-0.111,-2757,-2437,-3733,-0.832,0.553,0.041,0.014,38.3982939,-78.0637901,94.516,-0.033,0.06,-0.01,12,-0.527,0.12,-9.599,69.582,-3.061,-0.588,0.001,-0.001,0,12.524,-29.644,55.914,100403.008,28.62,0.1,-0.051,0.011,-0.96,0.035,0.031,-0.209
1234.779,-0.018,0.019,0.132,0.02,-0.07,0.153,-0.008,-0.044,0.093,1003.087,25.435,84.912,0.055,1003.28,25.69,83.291,0.285,-0.776,0.251,-9.869,0.026,-0.026,0,-2708,-2447,-3819,-0.832,0.554,0.041,0.013,38.3982939,-78.0637898,94.552,-0.032,0.084,0.024,12,-0.523,0.104,-9.63,69.582,-3.058,-0.587,0,0.002,-0.001,12.637,-29.748,56.418,100395.008,28.63,0.1,-0.051,0.01,-0.961,0.036,0.031,-0.208
1234.879,-0.018,0.027,0.112,-0.018,-0.057,0.13,-0.043,-0.025,0.077,1003.093,25.441,84.863,0.007,1003.39,25.7,82.368,-0.604,-0.761,0.244,-9.855,0.092,0.034,0.124,-2747,-2423,-3713,-0.828,0.559,0.038,0.014,38.398294,-78.0637897,94.595,-0.019,0.089,0.067,12,-0.53,0.072,-9.621,69.579,-3.063,-0.583,0.001,-0.001,0.001,12.635,-29.852,56.288,100395.008,28.63,0.099,-0.052,0.009,-0.948,0.037,0.027,-0.21
1234.979,-0.01,0.034,0.11,0.024,-0.044,0.126,0.041,-0.017,0.073,1003.091,25.447,84.877,0.022,1003.26,25.69,83.458,0.478,-0.819,0.194,-9.848,-0.064,-0.113,-0.015,-2744,-2470,-3757,-0.829,0.558,0.042,0.015,38.3982941,-78.0637897,94.584,-0.006,0.085,0.059,12,-0.531,0.104,-9.603,69.581,-3.066,-0.581,-0.002,0,-0.001,12.64,-29.646,56.169,100395.008,28.63,0.1,-0.053,0.009,-0.96,0.034,0.031,-0.208
1235.079,0.001,0.03,0.12,0.031,-0.089,0.17,0.015,-0.072,0.118,1003.091,25.445,84.879,0.022,1003.31,25.71,83.039,-0.05,-0.747,0.201,-9.898,0.055,-0.038,0.038,-2731,-2462,-3720,-0.827,0.56,0.039,0.015,38.398294,-78.0637896,94.596,-0.014,0.089,0.075,12,-0.507,0.122,-9.586,69.586,-3.065,-0.583,0.001,0,0.001,12.633,-29.954,56.411,100383,28.63,0.1,-0.052,0.01,-0.96,0.033,0.033,-0.203
1235.179,-0.011,0.062,0.053,0.024,-0.083,0.141,-0.004,-0.064,0.063,1003.092,25.45,84.867,0.005,1003.23,25.7,83.71,0.654,-0.769,0.223,-9.841,0.013,-0.068,-0.087,-2741,-2429,-3708,-0.83,0.556,0.04,0.015,38.3982939,-78.0637895,94.583,-0.022,0.093,0.068,12,-0.508,0.072,-9.591,69.582,-3.06,-0.584,0.002,0,0,12.518,-29.952,56.157,100395.008,28.62,0.099,-0.05,0.011,-0.949,0.037,0.032,-0.209
1235.279,-0.016,0.059,0.052,0.015,-0.104,0.132,-0.018,-0.105,0.021,1003.091,25.447,84.877,0.011,1003.31,25.7,83.039,0.05,-0.654,0.309,-9.805,0.004,-0.015,0.098,-2754,-2463,-3723,-0.827,0.561,0.039,0.011,38.3982938,-78.0637895,94.597,-0.03,0.089,0.086,12,-0.532,0.089,-9.59,69.586,-3.06,-0.584,0.001,0,-0.003,12.636,-29.852,56.162,100391.008,28.62,0.1,-0.052,0.01,-0.96,0.036,0.03,-0.209
1235.379,-0.012,0.041,0.052,0.021,-0.099,0.124,0.019,-0.009,0.038,1003.093,25.438,84.859,-0.01,1003.31,25.69,83.039,0.042,-0.725,0.194,-9.819,0.034,-0.011,0.019,-2738,-2480,-3729,-0.827,0.562,0.037,0.012,38.3982939,-78.0637896,94.611,-0.017,0.076,0.102,12,-0.499,0.085,-9.593,69.582,-3.063,-0.579,-0.001,0,0,12.521,-29.745,56.798,100383,28.64,0.1,-0.052,0.01,-0.961,0.038,0.029,-0.213
1235.479,-0.008,0.019,0.049,0.011,-0.105,0.084,-0.017,-0.04,-0.017,1003.094,25.446,84.851,-0.018,1003.28,25.7,83.291,0.293,-0.725,0.287,-9.762,-0.026,-0.051,-0.07,-2725,-2494,-3755,-0.828,0.559,0.039,0.011,38.3982939,-78.0637897,94.611,-0.014,0.064,0.096,12,-0.515,0.089,-9.619,69.582,-3.064,-0.576,0,0.001,0.001,12.633,-29.955,56.158,100395.008,28.63,0.1,-0.053,0.009,-0.961,0.035,0.033,-0.206
1235.579,-0.01,-0.002,0.045,-0.012,-0.131,0.128,-0.038,-0.094,0.155,1003.095,25.452,84.843,-0.026,1003.28,25.7,83.291,0.319,-0.754,0.259,-9.934,0.147,-0.132,0.023,-2755,-2458,-3777,-0.827,0.56,0.04,0.015,38.3982939,-78.0637896,94.572,-0.012,0.069,0.054,12,-0.513,0.098,-9.612,69.585,-3.064,-0.578,0,-0.001,0.001,12.519,-29.954,55.777,100395.008,28.63,0.1,-0.052,0.01,-0.961,0.034,0.032,-0.206
1235.679,-0.023,-0.017,0.032,-0.031,-0.099,0.07,-0.029,-0.011,0.001,1003.096,25.449,84.833,-0.041,1003.36,25.71,82.62,-0.344,-0.79,0.244,-9.776,0.013,0.023,0.111,-2733,-2470,-3815,-0.824,0.565,0.039,0.014,38.3982938,-78.0637896,94.547,-0.021,0.065,0.024,12,-0.507,0.108,-9.582,69.588,-3.062,-0.583,-0.001,-0.001,-0.001,12.515,-30.055,56.534,100395.008,28.63,0.1,-0.051,0.011,-0.96,0.033,0.031,-0.206
1235.779,-0.038,-0.015,0.01,-0.055,-0.092,0.057,-0.044,-0.049,0.047,1003.096,25.444,84.832,-0.047,1003.24,25.7,83.626,0.629,-0.733,0.259,-9.826,0.072,0.002,-0.034,-2740,-2439,-3753,-0.825,0.564,0.038,0.013,38.3982938,-78.0637895,94.533,-0.019,0.067,0.004,12,-0.497,0.096,-9.584,69.586,-3.06,-0.584,0.001,0,0.001,12.756,-29.649,56.171,100395.008,28.63,0.099,-0.05,0.01,-0.948,0.036,0.031,-0.206
1235.879,-0.046,-0.001,0.001,-0.05,-0.039,0.058,-0.018,0.015,0.043,1003.095,25.449,84.839,-0.042,1003.35,25.7,82.704,-0.235,-0.761,0.316,-9.819,-0.096,0.043,-0.013,-2745,-2459,-3765,-0.826,0.563,0.04,0.008,38.3982939,-78.0637894,94.537,-0.008,0.07,-0.002,12,-0.542,0.06,-9.612,69.577,-3.063,-0.586,0.001,-0.001,-0.002,12.745,-30.164,56.024,100395.008,28.63,0.1,-0.052,0.01,-0.961,0.035,0.029,-0.216
1235.979,-0.044,0.016,0.001,-0.003,-0.033,0.091,0.034,-0.021,0.078,1003.096,25.448,84.834,-0.049,1003.34,25.71,82.787,-0.168,-0.776,0.215,-9.855,0.047,-0.098,0.053,-2762,-2458,-3775,-0.824,0.565,0.041,0.013,38.3982938,-78.0637894,94.542,-0.02,0.064,-0.003,12,-0.522,0.092,-9.603,69.581,-3.067,-0.581,0,0,0,12.409,-29.642,56.296,100395.008,28.63,0.1,-0.052,0.009,-0.961,0.036,0.03,-0.207
1236.079,-0.025,0.042,0.009,0.026,0.011,0.071,0.024,0.024,0.023,1003.095,25.448,84.841,-0.044,1003.4,25.7,82.284,-0.654,-0.804,0.215,-9.797,-0.034,0.023,0.081,-2752,-2468,-3752,-0.822,0.568,0.04,0.013,38.3982938,-78.0637892,94.486,-0.02,0.074,-0.068,12,-0.517,0.094,-9.581,69.584,-3.065,-0.582,0,0.001,0.001,12.518,-29.953,56.031,100395.008,28.63,0.099,-0.051,0.01,-0.949,0.034,0.033,-0.203
1236.179,-0.02,0.067,-0.024,0.024,0.005,0.065,-0.017,-0.079,0.074,1003.096,25.453,84.835,-0.047,1003.39,25.71,82.368,-0.696,-0.783,0.338,-9.848,0.004,-0.128,0.085,-2777,-2453,-3804,-0.819,0.572,0.044,0.012,38.3982938,-78.063789,94.445,-0.019,0.083,-0.113,12,-0.532,0.089,-9.606,69.583,-3.062,-0.583,0.001,0,0.001,12.638,-29.749,56.166,100407.008,28.64,0.1,-0.051,0.01,-0.961,0.036,0.032,-0.208
1236.279,-0.014,0.071,-0.027,0.026,0,0.082,0.01,-0.023,0.093,1003.097,25.457,84.83,-0.052,1003.29,25.7,83.207,0.126,-0.79,0.215,-9.869,0.075,0.015,-0.045,-2762,-2445,-3736,-0.82,0.57,0.04,0.015,38.3982938,-78.063789,94.434,-0.017,0.076,-0.132,12,-0.496,0.107,-9.587,69.587,-3.06,-0.583,0,0,-0.001,12.634,-29.955,56.158,100395.008,28.63,0.101,-0.051,0.011,-0.973,0.036,0.032,-0.207
1236.379,-0.009,0.07,-0.018,0.02,-0.009,0.105,-0.013,-0.026,0.091,1003.097,25.447,84.827,-0.052,1003.34,25.71,82.787,-0.294,-0.761,0.215,-9.869,0.043,0.015,-0.017,-2739,-2478,-3806,-0.821,0.57,0.038,0.014,38.3982938,-78.063789,94.429,-0.016,0.07,-0.144,12,-0.542,0.113,-9.601,69.578,-3.061,-0.582,-0.001,-0.001,-0.001,12.753,-29.751,56.293,100407.008,28.63,0.099,-0.051,0.01,-0.949,0.037,0.029,-0.214
1236.479,-0.007,0.06,0.001,0.007,-0.021,0.106,-0.021,-0.023,0.042,1003.095,25.444,84.839,-0.04,1003.29,25.69,83.207,0.118,-0.783,0.215,-9.819,0.032,-0.034,-0.019,-2736,-2464,-3734,-0.821,0.569,0.039,0.015,38.3982938,-78.0637891,94.447,-0.014,0.056,-0.13,12,-0.512,0.076,-9.615,69.582,-3.064,-0.579,-0.001,0.001,0.003,12.75,-29.958,55.905,100399,28.64,0.1,-0.053,0.009,-0.96,0.036,0.032,-0.205
1236.579,-0.014,0.055,-0.004,-0.005,-0.005,0.067,-0.013,0.025,0.001,1003.099,25.457,84.809,-0.064,1003.28,25.7,83.291,0.168,-0.783,0.266,-9.776,-0.075,0.068,-0.004,-2734,-2463,-3805,-0.822,0.569,0.039,0.011,38.3982937,-78.063789,94.436,-0.026,0.059,-0.146,12,-0.49,0.095,-9.603,69.584,-3.062,-0.581,-0.001,-0.001,0,12.749,-29.958,56.159,100395.008,28.63,0.1,-0.051,0.01,-0.96,0.034,0.031,-0.208
1236.679,-0.019,0.053,0.005,0.003,0.015,0.063,0.016,0.034,0.032,1003.095,25.455,84.839,-0.027,1003.42,25.72,82.117,-0.998,-0.725,0.244,-9.812,-0.019,0.081,0.196,-2746,-2466,-3807,-0.816,0.577,0.037,0.009,38.3982937,-78.0637891,94.436,-0.024,0.046,-0.149,12,-0.534,0.116,-9.585,69.585,-3.062,-0.585,-0.001,-0.001,0.001,12.52,-29.85,56.162,100407.008,28.63,0.099,-0.052,0.01,-0.949,0.032,0.032,-0.204
1236.779,-0.011,0.054,0.014,0.045,0.014,0.058,0.062,0.006,0.027,1003.095,25.454,84.841,-0.017,1003.34,25.7,82.787,-0.361,-0.668,0.23,-9.812,-0.085,0.002,-0.043,-2780,-2457,-3805,-0.817,0.575,0.037,0.008,38.3982937,-78.0637891,94.426,-0.023,0.044,-0.157,12,-0.506,0.119,-9.609,69.587,-3.056,-0.589,0.001,-0.001,0.001,12.747,-30.061,56.282,100407.008,28.63,0.1,-0.051,0.012,-0.961,0.037,0.033,-0.203
1236.879,0.003,0.058,0,0.046,0.056,-0.004,0.018,0.065,-0.044,1003.097,25.458,84.828,-0.028,1003.37,25.71,82.536,-0.646,-0.79,0.194,-9.733,0.017,-0.002,-0.011,-2744,-2481,-3825,-0.818,0.574,0.038,0.012,38.3982937,-78.0637892,94.433,-0.022,0.032,-0.144,12,-0.49,0.079,-9.614,69.579,-3.058,-0.588,0,0,-0.002,12.642,-29.648,55.791,100399,28.64,0.1,-0.051,0.01,-0.961,0.038,0.028,-0.219
1236.979,0.007,0.052,-0.018,0.018,-0.019,-0.071,-0.014,-0.063,-0.079,1003.095,25.455,84.846,-0.005,1003.23,25.7,83.71,0.596,-0.776,0.244,-9.697,0.06,-0.158,0.017,-2785,-2445,-3753,-0.817,0.575,0.041,0.016,38.3982937,-78.0637892,94.426,-0.019,0.03,-0.147,12,-0.512,0.08,-9.569,69.582,-3.061,-0.586,-0.001,0.001,0.001,12.751,-29.854,56.544,100395.008,28.63,0.1,-0.052,0.01,-0.961,0.035,0.031,-0.204
1237.079,-0.012,0.016,-0.017,-0.019,-0.087,0.057,-0.026,-0.073,0.114,1003.096,25.451,84.837,-0.011,1003.33,25.7,82.871,-0.168,-0.783,0.223,-9.891,0.102,-0.06,0.151,-2777,-2490,-3807,-0.812,0.582,0.04,0.018,38.3982936,-78.0637891,94.405,-0.028,0.035,-0.157,12,-0.512,0.108,-9.595,69.579,-3.06,-0.585,-0.001,0,0,12.749,-29.958,56.413,100395.008,28.63,0.1,-0.051,0.01,-0.961,0.035,0.03,-0.211
1237.179,-0.022,0.024,0.01,-0.029,-0.087,0.063,-0.046,-0.047,-0.002,1003.093,25.448,84.862,0.018,1003.3,25.7,83.123,0.218,-0.725,0.33,-9.776,-0.047,0.051,-0.058,-2778,-2482,-3740,-0.814,0.579,0.039,0.011,38.3982936,-78.063789,94.404,-0.027,0.039,-0.144,12,-0.541,0.101,-9.604,69.585,-3.062,-0.585,-0.001,0.001,0.001,12.755,-29.753,56.041,100395.008,28.63,0.1,-0.053,0.01,-0.961,0.036,0.032,-0.204
1237.279,-0.028,0.016,0.018,-0.021,-0.071,0.085,0.029,0.038,0.096,1003.095,25.457,84.844,0.005,1003.32,25.71,82.955,0.034,-0.819,0.237,-9.869,-0.045,-0.002,-0.034,-2754,-2493,-3782,-0.815,0.578,0.041,0.012,38.3982936,-78.063789,94.429,-0.027,0.035,-0.103,12,-0.505,0.103,-9.588,69.591,-3.059,-0.589,0,-0.001,-0.001,12.871,-29.755,56.042,100399,28.64,0.1,-0.051,0.011,-0.96,0.033,0.032,-0.205
1237.379,-0.03,0.013,0.033,0,-0.054,0.116,0.053,0.022,0.108,1003.095,25.454,84.84,0.003,1003.33,25.72,82.871,-0.025,-0.804,0.194,-9.884,-0.04,-0.002,-0.115,-2787,-2465,-3780,-0.819,0.573,0.04,0.013,38.3982936,-78.0637888,94.431,-0.026,0.047,-0.083,12,-0.51,0.083,-9.623,69.585,-3.059,-0.588,0.002,-0.001,0.001,12.868,-29.858,56.165,100395.008,28.64,0.1,-0.051,0.01,-0.961,0.037,0.029,-0.213
1237.479,-0.025,0.005,0.057,0.019,-0.024,0.113,0.04,0.052,0.034,1003.094,25.455,84.854,0.018,1003.29,25.7,83.207,0.319,-0.761,0.223,-9.812,-0.092,0.107,-0.064,-2753,-2466,-3768,-0.821,0.57,0.038,0.009,38.3982936,-78.063789,94.457,-0.024,0.024,-0.04,12,-0.512,0.09,-9.594,69.588,-3.061,-0.585,0.001,0,0,12.632,-30.059,56.156,100395.008,28.64,0.1,-0.052,0.01,-0.961,0.036,0.031,-0.206
1237.579,-0.019,0.01,0.068,0.009,0,0.089,-0.015,0.029,0.015,1003.094,25.465,84.849,0.017,1003.3,25.71,83.123,0.235,-0.797,0.208,-9.79,0.077,-0.006,-0.038,-2782,-2481,-3808,-0.822,0.569,0.038,0.014,38.3982936,-78.0637889,94.436,-0.022,0.028,-0.048,12,-0.514,0.097,-9.615,69.586,-3.062,-0.582,0,0,0,12.748,-30.062,56.157,100395.008,28.64,0.1,-0.052,0.01,-0.961,0.036,0.03,-0.209
1237.679,-0.019,0.015,0.052,-0.004,-0.006,0.011,-0.018,-0.015,-0.061,1003.096,25.462,84.838,0.006,1003.32,25.7,82.955,0.117,-0.812,0.266,-9.711,-0.013,-0.072,0.094,-2772,-2492,-3786,-0.819,0.572,0.042,0.014,38.3982936,-78.0637889,94.448,-0.021,0.024,-0.024,12,-0.523,0.112,-9.588,69.591,-3.062,-0.583,0.001,0,0.002,12.634,-29.956,56.16,100395.008,28.63,0.1,-0.052,0.01,-0.961,0.036,0.033,-0.207
1237.779,-0.012,0.016,0.012,0.04,-0.023,-0.027,0.061,-0.03,-0.019,1003.098,25.461,84.818,-0.015,1003.25,25.72,83.542,0.788,-0.74,0.158,-9.762,-0.013,-0.015,-0.075,-2728,-2479,-3770,-0.821,0.569,0.039,0.014,38.3982936,-78.0637888,94.465,-0.02,0.029,0.003,12,-0.519,0.09,-9.601,69.591,-3.061,-0.586,-0.001,-0.001,0,12.747,-30.061,56.537,100411,28.65,0.1,-0.051,0.011,-0.96,0.034,0.031,-0.209
1237.879,-0.014,0.003,-0.009,-0.033,-0.042,-0.062,-0.08,-0.032,-0.053,1003.096,25.463,84.837,0.004,1003.37,25.71,82.536,-0.201,-0.79,0.366,-9.718,-0.002,-0.002,-0.156,-2769,-2481,-3811,-0.825,0.563,0.042,0.011,38.3982936,-78.0637889,94.498,-0.018,0.018,0.047,12,-0.524,0.119,-9.596,69.589,-3.06,-0.587,0,0,0.001,12.632,-30.059,56.029,100388.008,28.65,0.099,-0.051,0.01,-0.949,0.036,0.03,-0.207
1237.979,-0.032,-0.001,-0.004,-0.039,-0.024,0.054,-0.015,0.003,0.114,1003.096,25.464,84.835,0.002,1003.3,25.71,83.123,0.294,-0.776,0.237,-9.891,0.066,0.049,-0.092,-2744,-2449,-3736,-0.828,0.559,0.038,0.012,38.3982936,-78.0637888,94.496,-0.017,0.025,0.056,12,-0.531,0.115,-9.601,69.588,-3.06,-0.586,-0.001,-0.001,0.001,12.635,-29.852,56.798,100383,28.63,0.1,-0.052,0.01,-0.961,0.035,0.031,-0.206
1238.079,-0.04,-0.011,0.022,-0.031,-0.07,0.065,-0.006,-0.06,0.03,1003.096,25.462,84.831,-0.003,1003.41,25.72,82.201,-0.687,-0.725,0.158,-9.812,0.119,-0.072,-0.045,-2745,-2486,-3734,-0.829,0.558,0.037,0.017,38.3982936,-78.0637888,94.507,-0.014,0.024,0.075,12,-0.528,0.109,-9.586,69.586,-3.063,-0.585,0,-0.001,-0.001,12.745,-30.164,56.407,100388.008,28.65,0.1,-0.052,0.01,-0.961,0.036,0.03,-0.215
1238.179,-0.026,0.006,0.017,-0.037,-0.056,0.053,-0.078,0.018,-0.032,1003.095,25.469,84.844,0.009,1003.31,25.7,83.039,0.076,-0.776,0.129,-9.747,0.141,0.092,0.075,-2763,-2448,-3798,-0.827,0.561,0.033,0.018,38.3982936,-78.0637888,94.503,-0.012,0.024,0.075,12,-0.502,0.093,-9.577,69.594,-3.066,-0.584,-0.002,0,0.001,12.523,-29.748,56.421,100388.008,28.65,0.099,-0.052,0.01,-0.949,0.034,0.03,-0.199
1238.279,-0.027,0.005,0.026,-0.067,-0.053,0.062,-0.122,-0.006,0.043,1003.093,25.459,84.856,0.019,1003.33,25.72,82.871,-0.067,-0.769,0.316,-9.819,-0.03,0.049,-0.109,-2742,-2472,-3783,-0.83,0.557,0.036,0.012,38.3982936,-78.0637888,94.499,-0.01,0.024,0.072,12,-0.524,0.103,-9.633,69.588,-3.066,-0.584,0,0,0,12.635,-29.957,55.906,100395.008,28.63,0.1,-0.052,0.011,-0.96,0.037,0.032,-0.212
1238.379,-0.036,0.005,0.026,-0.072,-0.03,0.045,-0.032,0.044,-0.021,1003.096,25.456,84.838,0,1003.35,25.7,82.704,-0.243,-0.804,0.172,-9.754,0.058,0.023,0.045,-2728,-2466,-3846,-0.828,0.559,0.036,0.015,38.3982936,-78.0637887,94.509,-0.008,0.031,0.082,12,-0.518,0.087,-9.605,69.59,-3.069,-0.581,0,0,0.001,12.984,-29.86,56.292,100395.008,28.64,0.1,-0.052,0.01,-0.961,0.037,0.03,-0.209
1238.479,-0.049,0.006,0.026,-0.063,-0.025,0.016,-0.001,-0.005,-0.041,1003.094,25.466,84.847,0.007,1003.35,25.71,82.704,-0.243,-0.733,0.158,-9.74,0.013,0.009,0.068,-2719,-2460,-3853,-0.827,0.562,0.036,0.015,38.3982935,-78.0637887,94.503,-0.017,0.031,0.075,12,-0.505,0.104,-9.578,69.592,-3.069,-0.581,0.001,0.001,0,12.634,-29.956,56.16,100395.008,28.63,0.1,-0.052,0.01,-0.96,0.036,0.031,-0.207
1238.579,-0.064,0.016,0.021,-0.099,-0.01,0.042,-0.096,0.004,0.071,1003.095,25.459,84.842,-0.002,1003.4,25.71,82.284,-0.646,-0.869,0.215,-9.841,0.115,-0.045,-0.038,-2755,-2472,-3872,-0.827,0.56,0.038,0.018,38.3982935,-78.0637885,94.457,-0.016,0.047,0.029,12,-0.5,0.09,-9.61,69.593,-3.071,-0.581,-0.001,0,0,12.637,-29.854,56.037,100399,28.64,0.1,-0.052,0.01,-0.961,0.035,0.031,-0.21
1238.679,-0.081,0.039,0.03,-0.105,0.004,0.079,-0.057,-0.003,0.089,1003.095,25.457,84.844,0,1003.34,25.72,82.787,-0.227,-0.819,0.259,-9.862,-0.021,0.049,0.023,-2748,-2431,-3857,-0.827,0.561,0.039,0.014,38.3982935,-78.0637882,94.361,-0.014,0.072,-0.068,12,-0.499,0.094,-9.593,69.598,-3.067,-0.58,0.001,0,0.002,12.632,-30.059,56.409,100399,28.64,0.1,-0.051,0.01,-0.96,0.036,0.033,-0.205
1238.779,-0.084,0.052,0.038,-0.07,-0.01,0.119,-0.006,-0.029,0.112,1003.097,25.467,84.825,-0.016,1003.28,25.71,83.291,0.201,-0.747,0.237,-9.891,-0.006,0.009,-0.089,-2753,-2456,-3757,-0.829,0.558,0.038,0.012,38.3982935,-78.0637882,94.35,-0.013,0.069,-0.083,12,-0.53,0.101,-9.613,69.596,-3.066,-0.584,-0.001,0,-0.001,12.632,-30.059,56.156,100395.008,28.645,0.099,-0.051,0.011,-0.949,0.034,0.029,-0.209
1238.879,-0.072,0.058,0.061,-0.042,0.004,0.147,-0.006,0.01,0.099,1003.096,25.458,84.835,-0.007,1003.31,25.71,83.039,-0.05,-0.769,0.23,-9.876,-0.006,0.026,0.002,-2766,-2445,-3861,-0.829,0.558,0.038,0.012,38.3982935,-78.0637882,94.361,-0.012,0.066,-0.079,12,-0.527,0.111,-9.554,69.596,-3.069,-0.583,0.001,-0.001,0.001,12.523,-29.748,56.294,100383,28.64,0.1,-0.052,0.01,-0.96,0.036,0.03,-0.207
1238.979,-0.066,0.078,0.074,-0.043,0.05,0.154,-0.026,0.051,0.089,1003.097,25.463,84.823,-0.019,1003.41,25.73,82.201,-0.83,-0.826,0.208,-9.862,0.026,0.045,-0.055,-2750,-2440,-3829,-0.831,0.555,0.038,0.013,38.3982934,-78.0637881,94.288,-0.022,0.072,-0.159,12,-0.512,0.117,-9.607,69.597,-3.069,-0.581,0,0.001,0.001,12.984,-29.861,56.292,100383,28.64,0.1,-0.052,0.01,-0.96,0.037,0.03,-0.209
1239.079,-0.063,0.111,0.081,-0.039,0.064,0.13,-0.017,0.025,0.053,1003.097,25.467,84.825,-0.016,1003.3,25.71,83.123,0.159,-0.833,0.201,-9.826,0.013,-0.006,-0.028,-2761,-2439,-3856,-0.831,0.554,0.039,0.014,38.3982934,-78.0637879,94.254,-0.022,0.086,-0.203,12,-0.533,0.101,-9.608,69.594,-3.068,-0.579,0.001,0.001,-0.001,12.519,-29.954,56.287,100399,28.65,0.1,-0.051,0.01,-0.961,0.037,0.031,-0.213
1239.179,-0.041,0.105,0.018,-0.023,0.063,0.097,0.031,0.033,0.012,1003.098,25.463,84.816,-0.023,1003.36,25.71,82.62,-0.335,-0.769,0.208,-9.79,-0.096,0.068,0.043,-2737,-2471,-3809,-0.83,0.556,0.039,0.011,38.3982934,-78.0637878,94.227,-0.022,0.093,-0.24,12,-0.528,0.11,-9.616,69.602,-3.066,-0.578,0.001,0,0.001,12.638,-29.855,55.784,100399,28.65,0.1,-0.052,0.009,-0.961,0.035,0.032,-0.202
1239.279,-0.036,0.113,0.008,-0.022,0.064,0.096,-0.01,0.014,0.046,1003.099,25.464,84.808,-0.032,1003.24,25.71,83.626,0.679,-0.804,0.28,-9.819,-0.021,-0.019,0.019,-2751,-2485,-3805,-0.83,0.556,0.041,0.011,38.3982934,-78.0637877,94.188,-0.022,0.1,-0.286,12,-0.517,0.103,-9.578,69.6,-3.064,-0.579,0,-0.001,0,12.639,-29.751,56.295,100388.008,28.65,0.101,-0.052,0.01,-0.973,0.036,0.031,-0.214
1239.379,-0.035,0.118,0.019,-0.008,0.018,0.1,0.03,-0.109,0.043,1003.097,25.472,84.826,-0.014,1003.25,25.71,83.542,0.612,-0.704,0.223,-9.826,0.072,-0.138,-0.151,-2748,-2460,-3750,-0.834,0.55,0.04,0.014,38.3982934,-78.0637877,94.176,-0.022,0.1,-0.306,12,-0.513,0.078,-9.596,69.598,-3.068,-0.575,0,0,0.001,12.982,-29.964,56.289,100388.008,28.65,0.099,-0.052,0.009,-0.949,0.036,0.03,-0.207
1239.479,-0.037,0.114,0.022,-0.04,-0.01,0.09,-0.077,-0.052,0.031,1003.099,25.471,84.807,-0.032,1003.32,25.71,82.955,0.075,-0.761,0.388,-9.805,0.009,0.015,0.087,-2758,-2467,-3768,-0.831,0.554,0.041,0.009,38.3982934,-78.0637876,94.144,-0.021,0.106,-0.342,12,-0.52,0.101,-9.643,69.598,-3.068,-0.575,0,-0.001,-0.001,12.637,-29.854,56.165,100399,28.65,0.1,-0.052,0.01,-0.961,0.035,0.031,-0.208
1239.579,-0.041,0.11,0.023,-0.025,-0.008,0.089,0.011,0.003,0.06,1003.099,25.465,84.806,-0.033,1003.39,25.72,82.368,-0.428,-0.826,0.215,-9.833,0.062,-0.049,0.017,-2724,-2437,-3804,-0.831,0.555,0.041,0.014,38.3982934,-78.0637875,94.142,-0.02,0.111,-0.347,12,-0.528,0.103,-9.614,69.599,-3.068,-0.577,-0.001,-0.001,-0.002,12.526,-29.645,56.426,100399,28.65,0.1,-0.052,0.01,-0.961,0.034,0.03,-0.208
1239.679,-0.034,0.11,0.027,-0.015,0.001,0.073,-0.004,0.011,0.031,1003.098,25.465,84.821,-0.018,1003.23,25.71,83.71,0.931,-0.79,0.302,-9.805,-0.085,0.062,-0.085,-2727,-2452,-3795,-0.833,0.551,0.042,0.009,38.3982935,-78.0637874,94.122,-0.008,0.114,-0.358,12,-0.508,0.1,-9.608,69.601,-3.067,-0.578,-0.001,0.001,0.002,12.635,-29.957,56.288,100399,28.65,0.099,-0.051,0.01,-0.949,0.034,0.032,-0.205
1239.779,-0.026,0.118,0.012,0.016,0.023,0.028,0.034,0.029,-0.011,1003.099,25.464,84.809,-0.031,1003.34,25.72,82.787,0.033,-0.74,0.23,-9.769,-0.009,0.062,0.064,-2744,-2452,-3826,-0.832,0.554,0.039,0.009,38.3982934,-78.0637873,94.119,-0.018,0.117,-0.349,13,-0.519,0.113,-9.628,69.6,-3.066,-0.58,0,-0.001,-0.002,12.869,-29.859,56.039,100399,28.65,0.1,-0.051,0.011,-0.96,0.035,0.03,-0.211
1239.879,-0.013,0.123,0.013,0.022,0.018,0.04,0.009,0.003,0.036,1003.096,25.468,84.831,-0.009,1003.3,25.71,83.123,0.319,-0.761,0.302,-9.812,-0.043,-0.036,0.07,-2738,-2478,-3768,-0.83,0.557,0.041,0.008,38.3982934,-78.0637873,94.132,-0.017,0.111,-0.323,13,-0.514,0.088,-9.629,69.605,-3.068,-0.578,-0.001,0,-0.001,12.515,-30.161,56.28,100399,28.65,0.1,-0.052,0.01,-0.961,0.037,0.031,-0.207
1239.979,-0.004,0.123,0.022,0.021,0.02,0.049,0.006,0.013,0.03,1003.096,25.458,84.836,-0.002,1003.34,25.72,82.787,0.075,-0.776,0.302,-9.805,-0.009,0.004,0.03,-2739,-2431,-3768,-0.829,0.558,0.041,0.009,38.3982934,-78.0637873,94.13,-0.014,0.105,-0.304,13,-0.53,0.077,-9.647,69.605,-3.068,-0.578,0,0.001,0.001,12.521,-29.852,56.419,100388.008,28.65,0.099,-0.051,0.01,-0.949,0.034,0.03,-0.206
1240.079,0.017,0.119,0.022,0.103,0.018,0.057,0.096,0.009,0.036,1003.097,25.47,84.822,-0.016,1003.3,25.72,83.123,0.319,-0.711,0.201,-9.819,-0.072,0,0.043,-2745,-2455,-3766,-0.828,0.56,0.039,0.009,38.3982933,-78.0637873,94.137,-0.023,0.097,-0.271,13,-0.495,0.089,-9.609,69.608,-3.067,-0.579,0,0.001,-0.001,12.518,-30.058,56.158,100399,28.65,0.1,-0.052,0.01,-0.96,0.034,0.033,-0.209
1240.179,0.001,0.112,0.006,0.091,0.018,0.065,0.002,0.016,0.11,1003.097,25.465,84.827,-0.008,1003.28,25.72,83.291,0.528,-0.733,0.223,-9.891,0.064,0.038,0.079,-2739,-2433,-3797,-0.826,0.563,0.036,0.011,38.3982933,-78.0637871,94.128,-0.021,0.106,-0.253,13,-0.517,0.129,-9.578,69.609,-3.065,-0.581,0,0,0,12.523,-29.853,56.039,100388.008,28.65,0.1,-0.051,0.01,-0.96,0.033,0.031,-0.206
1240.279,0.006,0.111,0.009,0.074,0.012,0.078,-0.037,-0.013,0.068,1003.097,25.476,84.822,-0.008,1003.22,25.72,83.794,0.956,-0.733,0.266,-9.848,0.034,-0.013,-0.111,-2748,-2397,-3813,-0.829,0.558,0.037,0.011,38.3982933,-78.063787,94.117,-0.019,0.105,-0.233,13,-0.509,0.088,-9.636,69.609,-3.062,-0.582,0.001,-0.001,0,12.638,-29.855,56.42,100399,28.65,0.099,-0.05,0.011,-0.948,0.037,0.03,-0.208
1240.379,0.006,0.111,0.013,0.033,0.004,0.096,-0.087,-0.016,0.082,1003.099,25.472,84.805,-0.024,1003.4,25.73,82.284,-0.638,-0.804,0.302,-9.855,0.083,-0.03,-0.228,-2754,-2470,-3814,-0.835,0.549,0.039,0.013,38.3982932,-78.0637869,94.095,-0.028,0.105,-0.221,13,-0.513,0.107,-9.597,69.606,-3.062,-0.578,-0.001,-0.001,0,12.522,-29.852,56.419,100399,28.65,0.1,-0.051,0.01,-0.961,0.038,0.029,-0.21
1240.479,-0.003,0.107,0.026,0.014,-0.013,0.097,-0.017,-0.034,0.044,1003.099,25.474,84.809,-0.016,1003.31,25.72,83.039,0.092,-0.79,0.266,-9.819,0.011,-0.06,0.043,-2735,-2485,-3824,-0.833,0.551,0.041,0.013,38.3982931,-78.0637868,94.091,-0.038,0.104,-0.19,13,-0.516,0.077,-9.596,69.607,-3.063,-0.579,0,0.001,0,12.638,-29.855,56.294,100388.008,28.65,0.1,-0.052,0.01,-0.961,0.035,0.031,-0.209
1240.579,-0.011,0.099,0.048,0.017,-0.025,0.131,0.023,-0.024,0.114,1003.098,25.476,84.821,-0.001,1003.23,25.72,83.71,0.755,-0.79,0.172,-9.891,0.043,-0.032,-0.009,-2756,-2425,-3794,-0.834,0.551,0.04,0.015,38.3982931,-78.0637867,94.08,-0.037,0.104,-0.169,12,-0.524,0.101,-9.604,69.611,-3.065,-0.578,-0.001,0,0.001,12.752,-29.961,56.29,100392.008,28.655,0.099,-0.051,0.01,-0.948,0.035,0.03,-0.202
1240.679,-0.024,0.085,0.053,-0.028,-0.065,0.107,-0.058,-0.074,0.045,1003.1,25.479,84.803,-0.016,1003.36,25.72,82.62,-0.428,-0.804,0.251,-9.819,0.092,-0.079,-0.072,-2765,-2469,-3839,-0.835,0.548,0.041,0.016,38.3982931,-78.0637866,94.067,-0.037,0.106,-0.158,12,-0.5,0.11,-9.64,69.609,-3.062,-0.578,-0.001,0,0.001,12.638,-29.856,56.294,100399,28.65,0.1,-0.051,0.01,-0.961,0.036,0.032,-0.208
1240.779,-0.049,0.069,0.06,-0.068,-0.044,0.076,-0.061,0.006,0.017,1003.097,25.467,84.825,0.008,1003.28,25.73,83.291,0.293,-0.812,0.266,-9.79,0.002,0.1,-0.092,-2769,-2485,-3690,-0.838,0.544,0.039,0.013,38.3982931,-78.0637866,94.051,-0.036,0.098,-0.151,12,-0.508,0.127,-9.62,69.605,-3.062,-0.58,0.001,-0.001,-0.001,12.757,-29.756,56.045,100388.008,28.65,0.1,-0.051,0.011,-0.961,0.036,0.03,-0.21
1240.879,-0.069,0.056,0.054,-0.058,-0.063,0.065,-0.011,-0.043,0.036,1003.097,25.475,84.822,0.005,1003.39,25.72,82.368,-0.638,-0.682,0.244,-9.819,0.023,0.032,-0.013,-2803,-2461,-3752,-0.838,0.544,0.037,0.011,38.3982931,-78.0637866,94.041,-0.034,0.09,-0.138,12,-0.532,0.085,-9.598,69.604,-3.064,-0.581,0,-0.001,0,12.754,-29.858,56.168,100399,28.65,0.1,-0.052,0.01,-0.961,0.036,0.03,-0.209
1240.979,-0.072,0.049,0.067,-0.03,-0.047,0.132,0.007,-0.008,0.119,1003.097,25.472,84.827,0.009,1003.24,25.71,83.626,0.562,-0.761,0.172,-9.898,0.04,-0.06,0.004,-2786,-2495,-3831,-0.838,0.544,0.037,0.014,38.3982931,-78.0637865,94.04,-0.034,0.092,-0.123,12,-0.536,0.117,-9.596,69.605,-3.066,-0.578,-0.001,-0.001,0.001,12.749,-30.064,56.414,100399,28.65,0.1,-0.052,0.01,-0.96,0.036,0.031,-0.21
1241.079,-0.08,0.056,0.11,-0.061,-0.026,0.167,-0.046,-0.001,0.094,1003.094,25.464,84.85,0.032,1003.33,25.72,82.871,-0.193,-0.776,0.287,-9.869,-0.028,0.03,-0.004,-2751,-2475,-3788,-0.838,0.544,0.039,0.01,38.398293,-78.0637864,94.04,-0.044,0.095,-0.112,12,-0.519,0.1,-9.625,69.608,-3.068,-0.58,-0.001,0,0,12.632,-30.165,56.029,100388.008,28.65,0.1,-0.052,0.01,-0.96,0.034,0.031,-0.208
1241.179,-0.069,0.079,0.047,-0.056,-0.021,0.137,-0.016,-0.026,0.045,1003.097,25.47,84.822,0.003,1003.32,25.71,82.955,-0.176,-0.704,0.259,-9.826,0.034,0.017,-0.03,-2800,-2478,-3774,-0.839,0.543,0.037,0.01,38.3982929,-78.0637863,94.022,-0.054,0.098,-0.12,12,-0.527,0.096,-9.632,69.611,-3.066,-0.581,0,-0.001,0,12.634,-30.061,56.414,100388.008,28.65,0.099,-0.051,0.01,-0.949,0.035,0.033,-0.202
1241.279,-0.072,0.082,0.049,-0.063,-0.011,0.143,-0.042,0.025,0.073,1003.097,25.476,84.829,0.008,1003.32,25.73,82.955,-0.193,-0.776,0.309,-9.848,-0.023,0.03,-0.051,-2723,-2450,-3797,-0.84,0.541,0.039,0.008,38.3982929,-78.0637863,94.037,-0.053,0.092,-0.098,13,-0.502,0.092,-9.611,69.613,-3.063,-0.583,0,-0.001,0,12.87,-29.86,56.55,100388.008,28.65,0.1,-0.051,0.01,-0.962,0.034,0.031,-0.21
1241.379,-0.077,0.082,0.05,-0.045,0.001,0.127,0.031,0.029,0.017,1003.099,25.483,84.806,-0.013,1003.31,25.72,83.039,0.017,-0.725,0.237,-9.797,-0.053,0.038,-0.19,-2769,-2498,-3817,-0.846,0.532,0.038,0.007,38.3982929,-78.0637863,94.048,-0.051,0.085,-0.079,12,-0.512,0.105,-9.589,69.612,-3.064,-0.579,0.001,-0.002,0,12.87,-29.861,56.423,100388.008,28.65,0.1,-0.051,0.01,-0.961,0.039,0.028,-0.21
1241.479,-0.083,0.081,0.062,-0.041,0.002,0.116,-0.007,0.005,0.036,1003.097,25.482,84.822,0.003,1003.34,25.72,82.787,-0.243,-0.747,0.352,-9.812,-0.062,-0.021,0.072,-2781,-2503,-3833,-0.844,0.535,0.041,0.005,38.3982928,-78.0637863,94.049,-0.059,0.078,-0.072,12,-0.523,0.103,-9.599,69.611,-3.068,-0.577,-0.001,-0.001,0,12.412,-29.646,56.302,100403.008,28.655,0.099,-0.052,0.01,-0.949,0.035,0.029,-0.208
1241.579,-0.078,0.085,0.058,0.003,0.023,0.065,0.06,0.039,-0.02,1003.098,25.474,84.817,-0.003,1003.31,25.72,83.039,-0.126,-0.704,0.266,-9.762,-0.07,0.055,-0.092,-2747,-2446,-3801,-0.846,0.531,0.039,0.004,38.3982928,-78.0637862,94.038,-0.056,0.079,-0.077,12,-0.512,0.09,-9.632,69.61,-3.066,-0.579,-0.001,0,0.001,12.635,-30.062,56.161,100392.008,28.655,0.1,-0.051,0.01,-0.961,0.034,0.031,-0.207
1241.679,-0.066,0.096,0.04,0.026,0.046,0.064,0.031,0.044,0.064,1003.1,25.486,84.802,-0.017,1003.37,25.71,82.536,-0.52,-0.79,0.201,-9.841,0.038,-0.036,-0.092,-2728,-2467,-3780,-0.849,0.527,0.04,0.01,38.3982927,-78.0637861,94.053,-0.062,0.081,-0.057,12,-0.524,0.082,-9.631,69.611,-3.062,-0.582,0,0.001,-0.001,12.408,-29.852,56.167,100403.008,28.655,0.1,-0.051,0.01,-0.962,0.035,0.031,-0.208
1241.779,-0.058,0.105,0.024,-0.003,0.046,-0.004,-0.036,0.021,-0.053,1003.099,25.483,84.813,-0.007,1003.34,25.72,82.787,-0.319,-0.819,0.28,-9.718,0.013,0.006,0.015,-2754,-2493,-3797,-0.848,0.528,0.041,0.01,38.3982927,-78.0637861,94.051,-0.059,0.075,-0.052,12,-0.502,0.081,-9.616,69.611,-3.062,-0.585,0,0.001,0.001,12.637,-29.96,55.911,100388.008,28.65,0.099,-0.051,0.011,-0.949,0.036,0.03,-0.205
1241.879,-0.049,0.106,0.006,0.013,0.045,0.044,0.016,0.023,0.081,1003.1,25.482,84.8,-0.02,1003.39,25.73,82.368,-0.663,-0.819,0.187,-9.855,0.03,0.002,0.049,-2753,-2455,-3811,-0.847,0.53,0.04,0.013,38.3982928,-78.0637861,94.049,-0.044,0.069,-0.045,12,-0.505,0.11,-9.561,69.605,-3.063,-0.586,0.001,0,-0.001,12.639,-29.857,56.042,100399,28.65,0.1,-0.052,0.011,-0.96,0.036,0.03,-0.212
1241.979,-0.042,0.089,0.03,-0.001,-0.002,0.114,-0.016,-0.027,0.104,1003.099,25.479,84.811,-0.007,1003.24,25.72,83.626,0.512,-0.833,0.201,-9.876,0.053,-0.06,-0.119,-2740,-2476,-3817,-0.85,0.525,0.041,0.015,38.3982928,-78.0637862,94.076,-0.041,0.053,-0.009,12,-0.549,0.103,-9.594,69.604,-3.064,-0.585,0,0,0,12.747,-30.167,56.537,100399,28.65,0.101,-0.053,0.01,-0.973,0.036,0.03,-0.212
1242.079,-0.034,0.041,0.07,0.025,-0.094,0.14,0.026,-0.088,0.075,1003.097,25.47,84.828,0.007,1003.33,25.72,82.871,-0.218,-0.733,0.244,-9.855,-0.038,-0.066,0.004,-2713,-2495,-3808,-0.85,0.525,0.042,0.012,38.3982928,-78.0637862,94.07,-0.038,0.045,-0.005,12,-0.509,0.108,-9.613,69.605,-3.064,-0.585,0,0.001,0.001,12.869,-29.965,56.039,100392.008,28.66,0.099,-0.051,0.01,-0.949,0.034,0.032,-0.204
1242.179,-0.038,0.038,0.033,0.035,-0.085,0.129,0.074,0.024,0.083,1003.097,25.474,84.823,0.003,1003.32,25.72,82.955,-0.101,-0.754,0.208,-9.862,-0.136,0.047,-0.011,-2724,-2448,-3796,-0.85,0.525,0.041,0.008,38.3982927,-78.0637861,94.062,-0.044,0.047,-0.002,12,-0.484,0.095,-9.575,69.606,-3.064,-0.587,0.001,-0.001,0,12.641,-29.753,56.299,100403.008,28.655,0.1,-0.051,0.011,-0.961,0.035,0.031,-0.208
1242.279,-0.033,0.031,0.04,0.035,-0.074,0.13,0.007,0.023,0.044,1003.097,25.476,84.829,0.008,1003.32,25.72,82.955,-0.017,-0.783,0.287,-9.819,-0.036,0.015,0.006,-2694,-2439,-3839,-0.85,0.525,0.041,0.007,38.3982927,-78.063786,94.07,-0.04,0.05,0.014,12,-0.513,0.11,-9.623,69.607,-3.065,-0.589,0,-0.001,0,12.87,-29.86,56.55,100399,28.65,0.1,-0.052,0.01,-0.961,0.034,0.029,-0.209
1242.379,-0.023,0.019,0.043,0.062,-0.069,0.103,0.081,-0.003,-0.022,1003.099,25.477,84.813,-0.009,1003.38,25.73,82.452,-0.596,-0.783,0.208,-9.754,-0.051,-0.102,-0.015,-2702,-2473,-3732,-0.851,0.524,0.043,0.01,38.3982927,-78.063786,94.079,-0.037,0.045,0.027,12,-0.505,0.096,-9.62,69.607,-3.064,-0.589,-0.001,-0.001,0,12.986,-29.863,56.296,100392.008,28.66,0.1,-0.051,0.01,-0.961,0.035,0.031,-0.21
1242.479,-0.007,0.009,0.046,0.073,-0.049,0.082,0.039,0.023,0.008,1003.098,25.475,84.816,-0.007,1003.4,25.74,82.284,-0.738,-0.812,0.194,-9.783,-0.013,0.021,-0.115,-2718,-2463,-3753,-0.854,0.519,0.042,0.011,38.3982927,-78.063786,94.084,-0.033,0.04,0.036,12,-0.519,0.09,-9.594,69.605,-3.062,-0.587,0,0,-0.001,12.637,-29.959,56.037,100403.008,28.655,0.1,-0.052,0.01,-0.961,0.036,0.031,-0.21
1242.579,0.011,-0.009,0.054,0.081,-0.095,0.078,0.041,-0.105,0.04,1003.096,25.477,84.835,0.012,1003.29,25.72,83.207,0.252,-0.754,0.215,-9.819,0.038,-0.166,-0.143,-2699,-2467,-3749,-0.857,0.513,0.043,0.014,38.3982927,-78.0637861,94.07,-0.03,0.027,0.027,12,-0.52,0.086,-9.619,69.609,-3.064,-0.586,0.001,0,0.001,12.868,-29.964,56.038,100399,28.65,0.1,-0.052,0.01,-0.961,0.035,0.031,-0.206
1242.679,0.016,-0.03,0.063,0.032,-0.111,0.113,-0.042,-0.068,0.11,1003.096,25.465,84.835,0.013,1003.3,25.73,83.123,0.176,-0.718,0.266,-9.891,0.075,0.075,-0.03,-2707,-2465,-3764,-0.858,0.512,0.038,0.011,38.3982927,-78.063786,94.045,-0.026,0.031,0.003,12,-0.505,0.124,-9.602,69.611,-3.062,-0.587,0,0,0,12.754,-29.858,56.295,100392.008,28.66,0.099,-0.051,0.01,-0.949,0.032,0.032,-0.204
1242.779,0.017,-0.04,0.066,0.059,-0.073,0.083,0.062,0.002,0.026,1003.097,25.476,84.828,0.007,1003.32,25.72,82.955,0.059,-0.754,0.237,-9.805,-0.149,-0.06,0.079,-2747,-2447,-3820,-0.856,0.515,0.042,0.008,38.3982927,-78.063786,94.042,-0.021,0.027,0,12,-0.526,0.069,-9.631,69.611,-3.062,-0.586,0.001,-0.001,0,12.519,-30.06,55.907,100392.008,28.655,0.1,-0.052,0.01,-0.961,0.038,0.031,-0.209
1242.879,0.019,-0.038,0.071,0.033,-0.042,0.144,-0.006,0.002,0.138,1003.098,25.471,84.82,0.001,1003.29,25.72,83.207,0.311,-0.783,0.316,-9.912,-0.006,0.015,0.077,-2725,-2476,-3780,-0.854,0.518,0.042,0.007,38.3982927,-78.0637861,94.049,-0.018,0.014,0.006,12,-0.502,0.101,-9.596,69.609,-3.061,-0.586,0,0,-0.001,12.637,-29.959,56.164,100403.008,28.66,0.1,-0.051,0.01,-0.961,0.034,0.03,-0.209
1242.979,0.007,-0.012,0.085,0.016,0.021,0.071,0.002,0.046,-0.019,1003.095,25.473,84.839,0.022,1003.35,25.73,82.704,-0.193,-0.804,0.251,-9.754,0.015,0.04,0.051,-2704,-2434,-3818,-0.853,0.521,0.041,0.008,38.3982926,-78.063786,94.016,-0.026,0.02,-0.03,12,-0.518,0.106,-9.576,69.611,-3.062,-0.585,0.001,-0.001,0,12.634,-30.062,56.287,100392.008,28.655,0.099,-0.051,0.01,-0.948,0.037,0.029,-0.206
1243.079,0.003,0.011,0.083,0.057,-0.012,0.1,0.058,-0.039,0.075,1003.096,25.476,84.836,0.021,1003.25,25.73,83.542,0.646,-0.74,0.223,-9.855,-0.017,-0.089,-0.055,-2704,-2440,-3856,-0.854,0.518,0.041,0.01,38.3982925,-78.0637859,93.979,-0.034,0.027,-0.07,12,-0.53,0.093,-9.6,69.611,-3.063,-0.585,-0.001,0,0,12.528,-29.648,56.303,100380.008,28.66,0.1,-0.052,0.009,-0.962,0.033,0.031,-0.208
1243.179,-0.007,0.019,0.044,0.071,-0.01,0.065,0.122,-0.007,-0.066,1003.096,25.484,84.833,0.017,1003.32,25.73,82.955,0.059,-0.704,0.151,-9.718,-0.098,-0.043,0.185,-2730,-2449,-3796,-0.85,0.526,0.04,0.009,38.3982926,-78.0637859,93.967,-0.021,0.025,-0.086,12,-0.507,0.096,-9.585,69.614,-3.062,-0.584,-0.001,-0.001,0,12.408,-29.852,56.041,100403.008,28.655,0.1,-0.052,0.01,-0.96,0.036,0.031,-0.207
1243.279,-0.002,0.019,0.048,0.048,-0.011,0.08,-0.068,-0.01,0.077,1003.095,25.472,84.846,0.031,1003.33,25.74,82.871,-0.025,-0.819,0.316,-9.848,0.079,-0.002,0.038,-2722,-2448,-3766,-0.848,0.528,0.041,0.011,38.3982926,-78.0637859,93.925,-0.019,0.023,-0.132,12,-0.527,0.083,-9.638,69.614,-3.061,-0.584,0,0,0,12.865,-30.066,56.542,100403.008,28.66,0.099,-0.051,0.01,-0.949,0.035,0.032,-0.205
1243.379,0.003,0.013,0.059,0.044,-0.016,0.097,0.001,-0.012,0.072,1003.095,25.473,84.845,0.03,1003.35,25.72,82.704,-0.134,-0.783,0.237,-9.848,0.015,-0.006,-0.094,-2707,-2497,-3815,-0.851,0.524,0.04,0.011,38.3982926,-78.063786,93.911,-0.017,0.011,-0.149,12,-0.506,0.105,-9.62,69.613,-3.061,-0.583,0,0,0,12.523,-29.854,56.422,100403.008,28.66,0.1,-0.051,0.01,-0.96,0.037,0.031,-0.21
1243.479,0,0.005,0.068,0.009,-0.027,0.078,-0.056,-0.024,0.003,1003.095,25.472,84.841,0.026,1003.35,25.74,82.704,-0.084,-0.783,0.345,-9.776,0.009,0.013,0.004,-2724,-2427,-3861,-0.851,0.524,0.041,0.009,38.3982925,-78.063786,93.882,-0.027,0.009,-0.181,12,-0.528,0.086,-9.608,69.615,-3.06,-0.582,0.001,-0.001,0,12.75,-30.065,56.161,100399,28.655,0.1,-0.051,0.01,-0.96,0.036,0.03,-0.21
1243.579,-0.011,0.006,0.068,-0.015,0.008,0.052,-0.031,0.053,-0.002,1003.095,25.486,84.845,0.028,1003.35,25.73,82.704,-0.1,-0.754,0.266,-9.776,0.026,0.151,-0.002,-2743,-2470,-3835,-0.851,0.524,0.037,0.007,38.3982925,-78.0637859,93.857,-0.026,0.017,-0.209,12,-0.521,0.106,-9.6,69.613,-3.061,-0.583,0,0,0,12.638,-29.96,55.912,100399,28.655,0.099,-0.052,0.01,-0.949,0.034,0.031,-0.205
1243.679,-0.02,0.014,0.061,-0.026,0.009,0.054,-0.021,-0.001,0.051,1003.095,25.483,84.841,0.021,1003.36,25.72,82.62,-0.243,-0.754,0.33,-9.826,-0.026,-0.043,0.053,-2715,-2425,-3777,-0.849,0.526,0.04,0.006,38.3982926,-78.0637859,93.827,-0.014,0.016,-0.239,12,-0.515,0.076,-9.585,69.614,-3.06,-0.584,0,0.001,0,12.755,-29.859,56.17,100403.008,28.66,0.1,-0.051,0.01,-0.961,0.034,0.031,-0.207
1243.779,-0.023,0.021,0.052,0,0.044,0.026,0.028,0.056,-0.002,1003.095,25.482,84.842,0.02,1003.34,25.73,82.787,-0.092,-0.776,0.201,-9.776,0.013,0.04,0.047,-2745,-2413,-3752,-0.848,0.528,0.039,0.009,38.3982926,-78.063786,93.815,-0.014,0.006,-0.25,12,-0.52,0.094,-9.606,69.612,-3.059,-0.583,0.001,0,-0.001,12.635,-30.063,56.161,100392.008,28.66,0.1,-0.051,0.01,-0.961,0.035,0.031,-0.21
1243.879,-0.02,0.031,0.029,-0.009,0.035,0.035,-0.015,0.005,0.046,1003.098,25.486,84.816,-0.008,1003.33,25.74,82.871,-0.092,-0.819,0.244,-9.819,0.038,-0.058,0.092,-2749,-2433,-3760,-0.846,0.532,0.041,0.012,38.3982926,-78.063786,93.771,-0.013,0.006,-0.294,12,-0.533,0.104,-9.592,69.61,-3.061,-0.583,0,0,0.001,12.177,-29.847,56.167,100403.008,28.66,0.1,-0.052,0.01,-0.961,0.037,0.031,-0.209
1243.979,-0.026,0.036,0.036,0.013,0.027,0.081,0.026,0.005,0.078,1003.097,25.488,84.827,0.001,1003.26,25.74,83.458,0.587,-0.776,0.208,-9.855,-0.028,0.021,-0.004,-2748,-2453,-3807,-0.846,0.532,0.04,0.011,38.3982924,-78.0637859,93.721,-0.033,0.013,-0.338,12,-0.493,0.087,-9.616,69.608,-3.062,-0.581,0.001,-0.001,0,12.868,-29.964,56.419,100403.008,28.66,0.1,-0.051,0.009,-0.961,0.035,0.029,-0.21
1244.079,-0.02,0.029,0.054,0.022,0,0.085,0.014,-0.015,0.04,1003.096,25.483,84.834,0.007,1003.3,25.72,83.123,0.185,-0.819,0.287,-9.812,-0.058,-0.083,0.107,-2766,-2431,-3817,-0.843,0.536,0.044,0.01,38.3982924,-78.0637859,93.695,-0.03,0.01,-0.355,12,-0.506,0.097,-9.627,69.607,-3.064,-0.582,0,-0.001,0,12.524,-29.855,56.042,100392.008,28.655,0.1,-0.052,0.01,-0.96,0.034,0.031,-0.208
1244.179,-0.017,0.017,0.034,0.028,-0.01,0.085,0.041,-0.033,0.084,1003.095,25.485,84.845,0.017,1003.27,25.73,83.374,0.436,-0.747,0.287,-9.862,-0.036,0,0.06,-2735,-2443,-3802,-0.841,0.539,0.042,0.008,38.3982925,-78.0637859,93.673,-0.018,0.009,-0.367,12,-0.508,0.086,-9.608,69.607,-3.059,-0.582,0.001,0,-0.002,12.404,-30.058,56.033,100403.008,28.66,0.1,-0.051,0.01,-0.961,0.034,0.033,-0.208
1244.279,-0.006,0.009,0.035,0.045,0.008,0.085,0.061,0.074,-1.085,-0.043,-9.826,-0.011,-0.068,0.092,-2924,-2328,-3675,-0.998,0.044,0.045,-0.004,0,0,0,0,0,0,0,0,0,-0.0000012,2347553530709.7216797,-3.002,-0.363,0.016,-0.019,91,13.704,-30.066,56.201,100446.008,21.845,0.1,-0.073,-0.032,-0.953,0.127,-0.017,-0.863,44.379,-0.076,-0.046,0.014,-0.193,-0.02,0.119,-0.109,0.132
1244.379,-0.076,-0.046,0.014,-0.193,-0.02,0.119,-0.109,0.132,0.15,1003.47,21.654,81.699,0.01,1003.85,22.1,78.511,0.252,-1.121,-0.108,-9.898,-0.03,0.006,-0.092,-2879,-2348,-3703,-0.998,0.039,0.05,0.001,0,0,0,0,0,0,0,-0.826,-0.162,-9.804,64.391,-3.027,-0.373,-0.016,0.012,-0.056,13.474,-30.262,56.192,100430.008,21.835,0.1,-0.063,-0.005,-0.983,0.01,0.012,-0.418
1244.479,-0.091,-0.044,0.018,-0.095,-0.082,-0.017,0.147,-0.158,-0.257,1003.472,21.66,81.678,-0.009,1003.95,22.09,77.672,-0.57,-0.661,0.381,-9.524,-0.077,-0.019,0.028,-2936,-2417,-3703,-0.998,0.041,0.043,-0.011,0,0,0,0,0,0,0,-0.405,0.259,-9.504,64.72,-2.946,-0.463,-0.007,0.01,0.049,13.703,-30.168,55.827,100435.008,21.85,0.1,-0.065,0.005,-0.96,-0.038,0.111,0.096
1244.579,-0.052,-0.068,-0.028,0.112,-0.154,-0.276,0.322,-0.171,-0.495,1003.47,21.656,81.696,0.014,1003.88,22.1,78.259,-0.017,-0.172,0.589,-9.302,-0.075,-0.058,0.196,-2926,-2335,-3718,-0.998,0.051,0.029,-0.023,0,0,0,0,0,0,0,0.061,0.728,-9.251,65.438,-2.896,-0.523,-0.001,0.007,0.156,13.71,-29.867,55.963,100435.008,21.85,0.1,-0.029,0.037,-0.911,0.017,0.071,0.516
1244.679,-0.028,-0.102,-0.06,-0.105,-0.184,-0.05,-0.34,-0.117,0.25,1003.47,21.657,81.695,0.012,1003.84,22.1,78.594,0.327,-1.271,0.776,-9.955,0.021,-0.077,0.064,-2932,-2391,-3681,-0.997,0.055,0.049,-0.028,0,0,0,0,0,0,0,-0.333,-0.528,-10.58,64.929,-2.859,-0.402,0.053,0.012,0.051,14.167,-29.574,56.347,100450.008,21.855,0.1,-0.023,0.066,-0.988,0.141,0.065,-0.708
1244.779,-0.038,-0.013,-0.016,-0.011,0.384,0.032,0.094,0.72,0.06,1003.468,21.661,81.711,0.024,1003.85,22.11,78.511,0.143,-0.804,-0.941,-9.819,0.087,0.077,-0.19,-2920,-2334,-3657,-0.998,0.044,0.042,0.013,0,0,0,0,0,0,0,-0.548,-0.759,-9.479,64.974,-2.969,-0.096,0.044,-0.012,-0.137,13.717,-29.566,56.099,100446.008,21.85,0.1,-0.042,-0.018,-0.981,0.345,-0.079,-0.187
1244.879,-0.073,0.118,0.087,-0.241,0.186,0.45,-0.31,-0.15,0.554,1003.47,21.662,81.697,0.008,1003.89,22.09,78.175,-0.285,-1.458,0.201,-10.264,-0.087,0.009,-0.104,-2887,-2344,-3618,-0.998,0.039,0.056,0.001,0,0,0,0,0,0,0,-1.022,-0.345,-9.811,64.352,-3.078,0.097,-0.01,-0.019,-0.057,13.489,-29.661,56.465,100439,21.858,0.1,-0.067,-0.059,-0.968,0.183,-0.077,-0.871
1244.979,-0.115,0.104,0.21,-0.104,0.02,0.405,0.074,-0.11,0.132,1003.47,21.664,81.694,0.006,1003.92,22.1,77.924,-0.561,-0.919,0.201,-9.898,0.021,0.036,-0.128,-2849,-2380,-3694,-0.998,0.033,0.05,-0.003,0,0,0,0,0,0,0,-0.719,0.23,-9.633,64.604,-3.095,-0.092,-0.049,0.015,0.056,13.708,-29.968,56.084,100423.008,21.852,0.1,-0.091,-0.031,-0.968,-0.151,0.018,-0.02
1245.079,-0.08,0.012,0.225,-0.003,-0.165,0.188,0.053,-0.166,-0.043,1003.468,21.659,81.714,0.023,1003.97,22.11,77.505,-0.88,-0.912,0.381,-9.718,0.047,-0.062,0.083,-2852,-2452,-3628,-0.998,0.037,0.05,-0.009,0,0,0,0,0,0,0,-0.61,0.145,-9.449,64.791,-2.978,-0.31,-0.019,0.019,0.067,14.049,-29.874,56.337,100439,21.86,0.1,-0.052,0.023,-0.954,-0.167,0.148,-0.043
1245.179,-0.03,-0.008,0.087,0.081,-0.179,0.16,0.378,-0.098,0.239,1003.47,21.67,81.694,0.003,1003.86,22.09,78.427,-0.017,-0.165,0.345,-10.049,0.021,0.07,0.066,-2889,-2348,-3668,-0.999,0.041,0.028,-0.013,0,0,0,0,0,0,0,0.143,0.515,-9.639,65.428,-2.897,-0.368,0.002,0.009,-0.054,13.717,-29.566,56.348,100439,21.86,0.1,-0.022,0.043,-0.956,0.018,0.103,0.418
1245.279,-0.004,-0.031,0.091,0.076,-0.151,0.193,-0.021,0.072,0.181,1003.465,21.652,81.736,0.042,1003.94,22.11,77.756,-0.788,-0.646,0.115,-9.97,0.034,-0.049,0.207,-2889,-2388,-3648,-0.998,0.051,0.031,-0.008,0,0,0,0,0,0,0,-0.468,-0.216,-9.653,65.078,-2.925,-0.281,0.016,-0.018,0.136,13.824,-29.871,55.967,100439,21.86,0.1,-0.041,0.007,-0.963,0.107,-0.001,-0.526
1245.379,0.008,-0.051,0.096,0.018,-0.117,0.17,-0.149,0.057,0.016,1003.468,21.662,81.71,0.014,1003.93,22.11,77.84,-0.679,-0.934,0.072,-9.783,0.023,-0.019,-0.034,-2902,-2378,-3640,-0.998,0.05,0.04,-0.004,0,0,0,0,0,0,0,-0.757,-0.216,-9.542,64.919,-2.985,-0.241,-0.003,-0.005,-0.155,13.828,-29.669,56.345,100439,21.86,0.1,-0.036,-0.005,-0.958,0.063,-0.03,-0.419
1245.479,0.012,-0.073,0.095,0.027,-0.156,0.099,0.026,-0.127,-0.066,1003.469,21.658,81.708,0.012,1003.87,22.1,78.343,-0.151,-0.718,0.381,-9.711,-0.026,-0.019,-0.068,-2894,-2365,-3596,-0.998,0.046,0.039,-0.011,0,0,0,0,0,0,0,-0.511,0.294,-9.556,65.083,-3.038,-0.269,-0.003,0,0.05,13.939,-29.773,56.095,100427,21.86,0.1,-0.083,0.001,-0.953,0.015,-0.015,-0.04
1245.579,0.01,-0.094,0.088,-0.01,-0.132,0.141,-0.056,-0.024,0.164,1003.469,21.674,81.704,0.006,1003.85,22.1,78.511,0.051,-0.84,0.316,-9.934,0.017,0.036,0.136,-2926,-2348,-3659,-0.998,0.053,0.04,-0.012,0,0,0,0,0,0,0,-0.533,0.01,-9.746,64.897,-2.977,-0.263,0.009,0.009,0.006,13.834,-29.47,55.982,100443.008,21.875,0.1,-0.049,0.022,-0.976,0.038,0.092,-0.411
1245.679,0.119,-0.099,0.069,0.607,-0.112,-0.043,0.995,-0.042,-0.214,1003.468,21.655,81.718,0.021,1003.93,22.11,77.84,-0.671,1.113,0.122,-9.582,0.034,-0.115,-0.079,-2883,-2388,-3650,-0.999,0.05,-0.006,-0.01,0,0,0,0,0,0,0,1.675,0.329,-9.583,65.858,-2.992,-0.231,-0.008,-0.01,-0.105,13.378,-29.661,56.22,100427,21.86,0.099,-0.025,-0.002,-0.953,0.115,0.012,0.737
1245.779,0.189,-0.099,0.047,0.018,-0.121,0.058,-0.623,-0.081,0.154,1003.467,21.66,81.719,0.024,1003.88,22.1,78.259,-0.159,-1.235,0.56,-9.891,-0.072,-0.147,0.147,-2929,-2341,-3689,-0.998,0.057,0.033,-0.019,0,0,0,0,0,0,0,-0.913,-0.015,-9.809,64.735,-2.998,-0.235,-0.006,-0.024,0.106,14.167,-29.677,56.224,100439,21.86,0.1,-0.065,-0.018,-0.954,-0.028,0.024,-1.294
1245.879,0.066,-0.082,-0.08,-0.146,-0.031,-0.656,-0.144,0.049,-0.91,1003.468,21.671,81.714,0.02,1003.9,22.11,78.091,-0.268,-0.747,0.33,-8.864,-0.058,0.132,-0.254,-2884,-2374,-3674,-0.998,0.044,0.035,-0.019,0,0,0,0,0,0,0,-0.529,0.009,-9.493,65.09,-3.061,-0.273,-0.006,0.007,-0.213,13.827,-29.772,56.096,100443.008,21.88,0.1,-0.046,0.017,-0.958,0.016,-0.031,0.091
1245.979,-0.038,-0.01,-0.22,-0.15,0.157,-0.29,-0.026,0.187,0.178,1003.47,21.666,81.699,0.004,1003.87,22.1,78.343,0.059,-0.74,0.022,-9.963,0.03,0.017,0.092,-2920,-2341,-3704,-0.998,0.048,0.035,-0.009,0,0,0,0,0,0,0,-0.337,0.294,-9.849,65.222,-3.032,-0.277,0.005,0.002,0.134,13.942,-29.673,56.348,100439,21.86,0.1,-0.075,0.014,-0.96,0.041,0.06,-0.04
1246.079,-0.086,0.091,-0.124,-0.124,0.225,0.026,-0.02,0.11,0.17,1003.466,21.669,81.73,0.034,1003.92,22.11,77.924,-0.302,-0.797,-0.079,-9.948,0.075,-0.04,0.058,-2918,-2373,-3739,-0.998,0.051,0.038,0.001,0,0,0,0,0,0,0,-0.52,-0.228,-9.636,64.971,-2.992,-0.223,0.01,0.003,0.069,13.715,-29.77,55.972,100439,21.865,0.1,-0.039,0.007,-0.974,0.078,0.071,-0.472
1246.179,-0.041,0.054,-0.027,-0.047,0.258,0.284,0.304,0.352,1.277,1003.469,21.665,81.706,0.008,1003.91,22.11,78.008,-0.209,-0.431,-0.524,-11.076,-0.03,0.004,-0.183,-2854,-2374,-3728,-0.999,0.041,0.031,0.008,0,0,0,0,0,0,0,-0.366,-0.115,-9.705,64.914,-3.014,-0.207,-0.009,-0.006,-0.124,13.941,-29.775,55.974,100443.008,21.88,0.1,-0.032,-0.011,-0.953,0.045,0.006,-0.311
1246.279,-0.032,0.069,0.038,-0.068,0.219,0.315,-0.105,-0.074,0.136,1003.467,21.666,81.72,0.018,1003.94,22.1,77.756,-0.377,-0.826,0.079,-9.912,-0.049,0.002,-0.017,-2896,-2379,-3638,-0.999,0.041,0.037,0.002,0,0,0,0,0,0,0,-0.398,-0.079,-9.605,65.031,-3.055,-0.263,-0.004,-0.011,-0.044,13.943,-29.674,56.473,100431.008,21.88,0.1,-0.06,0.007,-0.967,-0.013,-0.01,-0.105
1246.379,-0.022,0.09,0.1,0.051,0.175,0.39,0.3,-0.059,0.286,1003.468,21.668,81.71,0.008,1003.78,22.1,79.098,1.031,-0.165,0.079,-10.099,-0.013,-0.034,0.111,-2921,-2335,-3780,-0.999,0.046,0.023,-0.001,0,0,0,0,0,0,0,-0.201,0.153,-9.405,65.064,-3.069,-0.237,-0.01,-0.038,0.074,13.828,-29.773,56.222,100443.008,21.88,0.1,-0.057,0.011,-0.952,0.065,0.019,-0.161
1246.479,-0.045,0.086,0.175,-0.256,0.02,0.527,-0.67,-0.269,0.466,1003.47,21.666,81.699,-0.007,1003.93,22.12,77.84,-0.293,-1.659,0.711,-10.142,0.019,0.083,0.136,-2907,-2363,-3679,-0.997,0.053,0.051,-0.016,0,0,0,0,0,0,0,-0.95,0.025,-9.431,64.817,-3.078,-0.217,0.002,-0.01,0.048,13.943,-29.675,56.35,100447.008,21.895,0.1,-0.055,0.007,-0.961,0.043,0.024,-0.472
1246.579,-0.092,0.059,0.254,-0.116,0.025,0.542,0.178,0.048,0.305,1003.468,21.667,81.711,0.004,1003.97,22.12,77.505,-0.654,-0.776,0.23,-10.085,-0.011,-0.102,-0.205,-2891,-2385,-3690,-0.998,0.043,0.047,-0.012,0,0,0,0,0,0,0,-0.537,-0.275,-9.811,64.919,-3.063,-0.179,0.004,0.009,-0.121,13.835,-29.472,56.11,100443.008,21.88,0.1,-0.045,-0.002,-0.967,0.074,0.039,-0.151
1246.679,-0.076,0.072,0.246,-0.01,0.179,0.239,0.102,0.279,-0.154,1003.469,21.666,81.706,-0.003,1003.86,22.11,78.427,0.344,-0.704,-0.215,-9.632,-0.077,0.049,0.053,-2861,-2379,-3688,-0.998,0.045,0.041,-0.002,0,0,0,0,0,0,0,-0.462,0.046,-9.718,65.173,-3.089,-0.213,-0.005,-0.001,0.061,13.827,-29.874,56.095,100436.008,21.89,0.1,-0.057,-0.004,-0.961,0.011,0.005,0.049
1246.779,-0.047,0.099,0.153,-0.025,0.125,0.08,-0.052,0.001,-0.013,1003.471,21.675,81.688,-0.021,1003.95,22.1,77.672,-0.386,-0.919,-0.022,-9.754,0.104,-0.026,0,-2895,-2400,-3675,-0.998,0.045,0.044,0.003,0,0,0,0,0,0,0,-0.662,0.117,-9.55,65.301,-3.106,-0.217,0.004,0.003,0.047,13.714,-29.872,56.219,100431.008,21.885,0.1,-0.069,0.004,-0.962,0.039,0.028,-0.091
1246.879,-0.005,0.107,0.086,0.109,0.142,0.017,0.15,0.088,0.008,1003.468,21.662,81.717,0.006,1003.93,22.11,77.84,-0.21,-0.532,-0.043,-9.805,-0.181,0.06,0.145,-2890,-2402,-3642,-0.998,0.052,0.034,-0.001,0,0,0,0,0,0,0,-0.342,0.149,-9.572,65.411,-3.055,-0.241,-0.012,0.012,0.026,13.717,-29.772,55.975,100447.008,21.895,0.1,-0.059,-0.003,-0.956,0.008,0.091,-0.123
1246.979,0.054,0.062,0.109,0.129,-0.096,0.284,0.051,-0.208,0.348,1003.466,21.66,81.734,0.022,1003.91,22.12,78.008,-0.084,-0.639,0.503,-10.128,-0.036,-0.089,0.015,-2900,-2381,-3696,-0.998,0.053,0.036,-0.013,0,0,0,0,0,0,0,-0.368,0.019,-9.774,65.359,-2.962,-0.304,0.001,0.008,-0.005,13.491,-29.767,55.975,100431.008,21.885,0.1,-0.034,0.021,-0.964,-0.019,0.111,-0.274
1247.079,0.096,-0.021,0.185,0.155,-0.102,0.261,0.073,-0.016,0.091,1003.463,21.667,81.754,0.041,1003.95,22.12,77.672,-0.461,-0.682,0.187,-9.876,0.115,-0.134,-0.153,-2892,-2388,-3656,-0.998,0.046,0.039,-0.007,0,0,0,0,0,0,0,-0.454,-0.06,-9.648,65.294,-2.975,-0.26,0.007,-0.017,-0.006,13.725,-29.37,56.238,100447.008,21.9,0.1,-0.024,0.007,-0.971,0.079,0.001,-0.276
1247.179,0.049,-0.016,0.075,0.116,-0.103,0.124,-0.067,-0.057,-0.429,1003.468,21.668,81.717,0.003,1003.84,22.12,78.594,0.503,-0.797,0.23,-9.345,0.077,0.043,0.098,-2905,-2380,-3677,-0.998,0.051,0.04,-0.007,0,0,0,0,0,0,0,-0.702,0.045,-9.124,65.335,-3.084,-0.255,-0.006,-0.011,-0.026,13.608,-29.568,56.23,100436.008,21.9,0.1,-0.063,-0.006,-0.95,0.035,-0.07,-0.183
1247.279,0.043,-0.03,0.043,0.077,-0.163,-0.005,-0.1,-0.244,-0.395,1003.469,21.679,81.705,-0.008,1003.76,22.11,79.265,1.174,-0.948,0.596,-9.352,0.062,-0.051,-0.198,-2885,-2387,-3667,-0.998,0.042,0.047,-0.016,0,0,0,0,0,0,0,-0.669,0.458,-9.13,65.222,-3.07,-0.29,0.001,0.012,-0.085,13.832,-29.674,55.98,100436.008,21.9,0.1,-0.068,0.031,-0.926,0.002,0.055,-0.352
1247.379,0.066,-0.052,0.073,0.258,-0.122,0.539,0.521,0.075,1.522,1003.47,21.67,81.694,-0.019,1003.91,22.12,78.008,-0.209,-0.417,0.201,-11.335,0.064,-0.026,0.209,-2912,-2367,-3645,-0.998,0.052,0.042,-0.012,0,0,0,0,0,0,0,0.134,0.308,-11.023,65.279,-2.997,-0.178,0.029,0.011,0.073,13.947,-29.576,56.109,100436.008,21.905,0.1,-0.045,0.044,-1.001,0.161,0.104,-0.13
1247.479,0.103,-0.061,0.117,0.15,-0.067,-0.011,-0.162,0.075,-1.045,1003.467,21.674,81.725,0.013,1003.95,22.12,77.672,-0.495,-1.142,0.086,-8.691,0.068,-0.128,-0.002,-2903,-2356,-3653,-0.997,0.052,0.056,-0.005,0,0,0,0,0,0,0,-0.734,-1.117,-8.916,64.516,-2.96,0.026,0.027,-0.012,-0.078,13.502,-29.265,56.366,100451.008,21.915,0.1,-0.04,-0.062,-0.988,0.194,0.063,-1.002
1247.579,0.205,-0.012,0.162,0.67,0.209,0.722,1.038,0.469,1.462,1003.47,21.67,81.701,-0.012,1003.89,22.12,78.175,0.109,-0.043,-0.603,-11.313,0.043,-0.058,-0.19,-2852,-2347,-3678,-0.998,0.042,0.046,0.004,0,0,0,0,0,0,0,-0.08,0.222,-9.776,65.036,-3.087,0.012,-0.046,-0.016,-0.185,13.164,-29.258,56.736,100424,21.9,0.1,-0.023,-0.032,-0.926,0.036,-0.096,0.236
1247.679,0.299,0.059,0.242,0.296,0.139,0.323,-0.335,-0.061,-0.294,1003.469,21.674,81.703,-0.009,1003.87,22.11,78.343,0.218,-1.566,0.273,-9.388,-0.119,-0.047,0.147,-2904,-2380,-3730,-0.997,0.05,0.066,-0.006,0,0,0,0,0,0,0,-1.109,0.274,-9.353,64.35,-3.154,-0.23,-0.021,-0.016,0.211,14.164,-29.983,56.343,100428,21.92,0.099,-0.12,0.012,-0.973,-0.241,-0.029,-0.896
