State - Time (s),State - Stage,State - PX (m),State - PY (m),State - PZ (m),State - VX (m/s),State - VY (m/s),State - VZ (m/s),State - AX (m/s/s),State - AY (m/s/s),State - AZ (m/s/s),State - Actuation Angle (deg),State - CdA,State - Est Apo (m),DPS310 - Pres (hPa),DPS310 - Temp (C),DPS310 - Alt ASL (m),DPS310 - Alt AGL (m),MS5611 - Pres (hPa),MS5611 - Temp (C),MS5611 - Alt ASL (m),MS5611 - Alt AGL (m),BMI088andLIS3MDL - AccX (m/s^2),BMI088andLIS3MDL - AccY (m/s^2),BMI088andLIS3MDL - AccZ (m/s^2),BMI088andLIS3MDL - GyroX (rad/s),BMI088andLIS3MDL - GyroY (rad/s),BMI088andLIS3MDL - GyroZ (rad/s),BMI088andLIS3MDL - MagX (uT),BMI088andLIS3MDL - MagY (uT),BMI088andLIS3MDL - MagZ (uT),BMI088andLIS3MDL - OriX,BMI088andLIS3MDL - OriY,BMI088andLIS3MDL - OriZ,BMI088andLIS3MDL - OriW,MAX-M10S - Lat,MAX-M10S - Lon,MAX-M10S - Alt (m),MAX-M10S - Disp X (m),MAX-M10S - Disp Y (m),MAX-M10S - Disp Z (m),MAX-M10S - Fix Quality,MAX-M10S - Time of Day,VN_100 - VN-AX (m/s/s),VN_100 - VN-AY (m/s/s),VN_100 - VN-AZ (m/s/s),VN_100 - VN-ULRX (deg),VN_100 - VN-ULRY (deg),VN_100 - VN-ULRZ (deg),VN_100 - VN-ANGVX (rad/s),VN_100 - VN-ANGVY (rad/s),VN_100 - VN-ANGVZ (rad/s),VN_100 - VN-MAGX (uT),VN_100 - VN-MAGY (uT),VN_100 - VN-MAGZ (uT),VN_100 - VN-P (Pa),VN_100 - VN-T (C),VN_100 - VN-DT (s),VN_100 - VN-DV-X (m/s/s),VN_100 - VN-DV-Y (m/s/s),VN_100 - VN-DV-Z (m/s/s),VN_100 - VN-DTH-X (deg/s),VN_100 - VN-DTH-Y (deg/s),VN_100 - VN-DTH-Z (deg/s),E5 - Rel Steps,BR - BR-ALT (ft),BR - BR-PRES (Pa),BR - BR-TEMP (C),BR - BR-VEL (m/s),BR - BR-ANG (deg),BR - BR-ACCX (m/s^2),BR - BR-ACCY (m/s^2),BR - BR-ACCZ (m/s^2),BR - BR-GYROX (rad/s),BR - BR-GYROY (rad/s),BR - BR-GYROZ (rad/s),BR - BR-ROLL (deg),BR - BR-TILT (deg)
920.061,1,nan,nan,nan,nan,nan,nan,-13.279,5.738,69.922,35.000,0.550,nan,1018.516,14.277,-43.723,-0.095,127.640,-140.280,14434.960,-21.498,79.320,-4.295,-16.011,-0.236,-0.616,-0.119,2772.000,-3722.000,2861.000,-0.715,0.042,-0.696,-0.040,0.0000000,0.0000000,0.000,0.000,0.000,0.000,0,00:00:00,0.560,6.049,-79.495,-34.798,-0.959,-0.295,-1.313,-0.147,-0.236,29.689,22.354,15.816,101869.000,18.550,0.044,-0.049,-0.030,-1.978,-0.532,0.440,-0.436,0,1.000,10057.000,6592.000,1.000,0.000,12.000,164.000,-24.0
920.103,1,nan,nan,nan,nan,nan,nan,4.006,-2.197,66.630,35.000,0.550,nan,1018.750,14.277,-45.664,-2.036,127.010,-140.280,14463.072,6.614,76.519,1.580,2.521,0.072,0.119,0.004,2772.000,-3722.000,2861.000,-0.714,0.041,-0.698,-0.039,0.0000000,0.0000000,0.000,0.000,0.000,0.000,0,00:00:00,-1.793,-3.560,-72.995,-34.778,-0.859,-0.130,0.087,0.016,-0.118,35.001,26.221,18.672,101949.008,18.545,0.040,0.019,0.147,-3.177,0.176,0.111,-0.023,0,1.000,10057.000,6592.000,1.000,0.000,12.000,164.000,-24.000,-230.000,
920.144,1,nan,nan,nan,nan,nan,nan,-8.010,1.265,70.443,35.000,0.550,nan,1018.749,14.267,-45.653,-2.025,126.870,-140.280,14469.335,12.877,79.902,-0.661,-11.026,0.450,-0.358,-0.011,3461.000,-3970.000,3059.000,-0.719,0.035,-0.693,-0.032,0.0000000,0.0000000,0.000,0.000,0.000,0.000,0,00:00:00,-4.192,6.979,-78.784,-35.240,-0.807,-0.304,-0.315,0.036,-0.591,33.757,26.373,29.771,101842.000,18.530,0.040,0.009,0.037,-3.178,-0.169,0.067,-0.509,0,1.000,10057.000,6592.000,1.000,0.000,12.000,164.000,-24.000,-2
920.185,1,nan,nan,nan,nan,nan,nan,-2.455,-8.747,73.253,35.000,0.550,nan,1018.260,14.276,-41.602,2.026,127.140,-140.260,14457.262,0.804,82.976,8.275,-5.337,0.603,-0.145,0.113,3461.000,-3970.000,3059.000,-0.721,0.028,-0.692,-0.022,0.0000000,0.0000000,0.000,0.000,0.000,0.000,0,00:00:00,6.136,7.854,-78.913,-36.296,-0.680,-0.280,0.007,0.034,-0.411,25.625,21.186,31.120,101865.008,18.530,0.044,0.029,0.096,-3.470,0.052,0.156,-1.147,0,1.000,10057.000,6592.000,1.000,0.000,12.000,164.000,-24.000,-230.000,
920.226,1,nan,nan,nan,nan,nan,nan,1.994,2.906,73.171,35.000,0.550,nan,1018.201,14.276,-41.116,2.511,127.170,-140.260,14455.922,-0.536,82.948,-3.836,-1.803,0.720,-0.055,0.036,2290.000,-5141.000,2370.000,-0.722,0.019,-0.691,-0.011,0.0000000,0.0000000,0.000,0.000,0.000,0.000,0,00:00:00,-8.903,5.297,-82.242,-37.295,-0.656,-0.300,-0.178,-0.172,-0.690,15.216,13.867,34.451,101937.008,18.540,0.039,-0.044,0.066,-3.097,-0.010,0.056,-1.105,0,1.000,10057.000,6592.000,1.000,0.000,12.000,164.000,-24.000,-230
920.267,1,nan,nan,nan,nan,nan,nan,6.451,4.488,75.281,35.000,0.550,nan,1018.201,14.272,-41.112,2.516,126.600,-140.300,14481.428,24.971,85.232,-5.646,2.435,0.420,-0.043,0.017,2290.000,-5141.000,2370.000,-0.723,0.013,-0.691,-0.005,0.0000000,0.0000000,0.000,0.000,0.000,0.000,0,00:00:00,-5.362,-2.373,-80.607,-38.270,-0.635,-0.212,-0.180,0.032,-0.324,8.238,10.235,32.450,101915.008,18.535,0.044,0.005,0.019,-3.520,0.033,-0.004,-0.944,0,1.000,10057.000,6592.000,1.000,0.000,12.000,164.000,-24.000,-230.00
920.308,1,nan,nan,nan,nan,nan,nan,11.961,-4.298,79.305,35.000,0.550,nan,1018.149,14.271,-40.686,2.941,127.050,-140.260,14461.284,4.826,89.556,2.780,8.663,-0.181,0.185,0.030,2290.000,-5141.000,2370.000,-0.720,0.016,-0.693,-0.007,0.0000000,0.0000000,0.000,0.000,0.000,0.000,0,00:00:00,-5.520,1.346,-84.889,-38.789,-0.662,-0.212,0.140,-0.031,-0.363,22.839,21.962,41.015,101869.000,18.550,0.038,0.022,0.134,-3.045,0.019,0.016,-0.545,0,10.000,10053.000,6593.000,52.000,0.000,31.000,577.000,-78.000,135.00
920.349,1,nan,nan,nan,nan,nan,nan,-0.468,-5.591,77.746,35.000,0.550,nan,1018.149,14.271,-40.686,2.941,126.780,-140.290,14473.364,16.906,87.538,4.640,-3.642,-0.160,-0.006,-0.032,2574.000,-5496.000,2411.000,-0.720,0.018,-0.693,-0.010,0.0000000,0.0000000,0.000,0.000,0.000,0.000,0,00:00:00,1.851,-0.447,-84.719,-38.247,-0.580,-0.168,0.281,0.209,0.145,-29.804,-22.482,47.249,101983.000,18.550,0.044,0.042,0.074,-3.581,0.066,0.078,0.494,0,10.000,10053.000,6593.000,52.000,0.000,31.000,577.000,-78.000,135
920.390,1,nan,nan,nan,nan,nan,nan,-0.390,-7.562,69.099,35.000,0.550,nan,1018.041,14.271,-39.790,3.837,127.000,-140.260,14463.519,7.062,78.932,6.759,-2.808,-0.200,0.092,-0.011,2574.000,-5496.000,2411.000,-0.719,0.021,-0.694,-0.013,0.0000000,0.0000000,0.000,0.000,0.000,0.000,0,00:00:00,-7.149,11.372,-80.525,-37.994,-0.553,-0.331,-0.092,0.145,0.154,-79.359,-66.178,20.471,101944.008,18.540,0.039,0.033,0.115,-3.196,-0.138,0.019,0.230,0,10.000,10053.000,6593.000,52.000,0.000,31.000,577.000,-78.000,13
920.431,1,nan,nan,nan,nan,nan,nan,-10.408,-3.060,84.467,35.000,0.550,nan,1017.873,14.271,-38.394,5.234,126.730,-140.280,14475.603,19.145,93.607,2.744,-15.364,-0.115,-0.484,-0.026,47.000,-2873.000,1769.000,-0.726,0.022,-0.687,-0.015,0.0000000,0.0000000,0.000,0.000,0.000,0.000,0,00:00:00,7.555,4.351,-83.041,-37.699,-0.459,-0.236,0.209,0.352,0.070,-1.462,-1.803,18.775,101858.000,18.550,0.041,0.034,0.044,-3.418,0.031,0.068,0.251,0,10.000,10053.000,6593.000,52.000,0.000,31.000,577.000,-78.000,135.00
920.472,1,nan,nan,nan,nan,nan,nan,3.146,1.265,77.541,35.000,0.550,nan,1017.872,14.269,-38.392,5.236,127.210,-140.240,14454.135,-2.322,87.365,-2.413,-1.767,0.011,-0.021,0.055,47.000,-2873.000,1769.000,-0.726,0.023,-0.687,-0.014,0.0000000,0.0000000,0.000,0.000,0.000,0.000,0,00:00:00,-2.106,0.606,-84.807,-37.960,-0.500,-0.216,0.338,0.155,-0.051,-0.898,-1.110,22.951,101869.000,18.550,0.044,-0.069,0.089,-3.691,0.091,0.032,-0.349,0,10.000,10053.000,6593.000,52.000,0.000,31.000,577.000,-78.000,135.000
920.513,1,nan,nan,nan,nan,nan,nan,1.707,-0.152,77.854,35.000,0.550,nan,1017.692,14.280,-36.894,6.734,126.940,-140.250,14466.203,9.745,87.624,-0.704,-3.096,0.185,0.013,-0.070,457.000,-4260.000,1745.000,-0.726,0.019,-0.687,-0.012,0.0000000,0.0000000,0.000,0.000,0.000,0.000,0,00:00:00,-1.299,1.959,-83.888,-38.333,-0.580,-0.243,0.132,0.005,-0.155,-0.897,-1.009,23.442,101956.000,18.530,0.038,-0.015,0.112,-3.160,-0.003,-0.073,-0.423,0,20.000,10049.000,6594.000,105.000,0.000,53.000,734.000,-85.000,70.
920.554,1,nan,nan,nan,nan,nan,nan,1.299,-2.138,77.608,35.000,0.550,nan,1017.692,14.280,-36.894,6.734,127.080,-140.240,14459.943,3.485,87.387,1.042,-3.254,0.320,0.047,0.062,457.000,-4260.000,1745.000,-0.725,0.016,-0.688,-0.007,0.0000000,0.0000000,0.000,0.000,0.000,0.000,0,00:00:00,-0.402,3.434,-84.714,-38.827,-0.789,-0.183,0.081,-0.077,-0.223,-1.004,-0.809,23.449,101903.008,18.545,0.044,-0.029,0.092,-3.710,0.057,-0.192,-0.535,0,20.000,10049.000,6594.000,105.000,0.000,53.000,734.000,-85.000,70.00
920.595,1,nan,nan,nan,nan,nan,nan,0.787,-2.160,78.580,35.000,0.550,nan,1017.456,14.288,-34.938,8.690,126.650,-140.260,14479.187,22.729,88.342,0.338,-3.699,0.153,0.034,0.200,457.000,-4260.000,1745.000,-0.725,0.016,-0.689,-0.002,0.0000000,0.0000000,0.000,0.000,0.000,0.000,0,00:00:00,-0.131,2.432,-85.853,-39.288,-1.060,-0.092,0.009,-0.160,-0.225,-0.771,-0.316,23.835,101820.008,18.540,0.039,-0.020,0.080,-3.304,0.095,-0.270,-0.525,0,20.000,10049.000,6594.000,105.000,0.000,53.000,734.000,-85.000,70.0
920.636,1,nan,nan,nan,nan,nan,nan,0.070,-1.764,78.851,35.000,0.550,nan,1017.182,14.286,-32.668,10.960,126.400,-140.280,14490.400,33.942,88.579,-0.797,-4.116,0.339,0.089,0.196,418.000,-4238.000,1815.000,-0.724,0.015,-0.690,0.006,0.0000000,0.0000000,0.000,0.000,0.000,0.000,0,00:00:00,-0.940,2.325,-85.729,-39.876,-1.447,0.041,0.062,-0.179,-0.265,-0.766,-0.119,23.477,101774.000,18.535,0.041,-0.020,0.113,-3.530,0.146,-0.387,-0.654,0,20.000,10049.000,6594.000,105.000,0.000,53.000,734.000,-85.000,70.0
920.677,1,nan,nan,nan,nan,nan,nan,0.514,-3.388,79.241,35.000,0.550,nan,1017.182,14.286,-32.668,10.960,126.930,-140.230,14466.650,10.192,89.060,0.022,-3.175,0.209,0.141,0.213,418.000,-4238.000,1815.000,-0.721,0.015,-0.692,0.012,0.0000000,0.0000000,0.000,0.000,0.000,0.000,0,00:00:00,-0.900,3.394,-86.408,-40.500,-1.976,0.207,0.078,-0.207,-0.233,-0.201,0.266,23.494,101710.008,18.550,0.044,0.005,0.139,-3.767,0.149,-0.509,-0.659,0,20.000,10049.000,6594.000,105.000,0.000,53.000,734.000,-85.000,70.000,
920.718,1,nan,nan,nan,nan,nan,nan,-0.078,-4.064,80.796,35.000,0.550,nan,1016.888,14.294,-30.231,13.397,126.660,-140.240,14478.739,22.281,90.633,-0.259,-3.390,0.236,0.121,0.239,485.000,-4246.000,1840.000,-0.720,0.015,-0.694,0.019,0.0000000,0.0000000,0.000,0.000,0.000,0.000,0,00:00:00,-0.293,3.633,-86.557,-41.067,-2.485,0.333,0.049,-0.253,-0.277,-0.091,0.163,22.881,101813.000,18.550,0.038,0.003,0.114,-3.239,0.115,-0.500,-0.612,0,20.000,10049.000,6594.000,105.000,0.000,53.000,734.000,-85.000,70.00
920.759,1,nan,nan,nan,nan,nan,nan,-1.860,-5.671,79.698,35.000,0.550,nan,1016.537,14.294,-27.311,16.317,126.750,-140.230,14474.707,18.249,89.563,0.223,-5.064,0.232,0.023,0.313,485.000,-4246.000,1840.000,-0.719,0.016,-0.694,0.026,0.0000000,0.0000000,0.000,0.000,0.000,0.000,0,00:00:00,-0.416,3.304,-87.476,-41.885,-3.146,0.463,0.029,-0.242,-0.351,0.145,0.753,22.660,101779.008,18.550,0.044,0.013,0.144,-3.800,0.099,-0.638,-0.843,0,64.000,10034.000,6592.000,161.000,0.000,50.000,808.000,-90.000,427.000
920.800,1,nan,nan,nan,nan,nan,nan,-0.389,-6.640,80.237,35.000,0.550,nan,1016.536,14.289,-27.304,16.324,126.630,-140.230,14480.084,23.626,90.224,0.201,-3.520,0.526,0.034,0.249,510.000,-4213.000,1978.000,-0.718,0.013,-0.695,0.037,0.0000000,0.0000000,0.000,0.000,0.000,0.000,0,00:00:00,0.420,2.626,-87.073,-42.749,-3.749,0.550,-0.020,-0.310,-0.422,0.477,0.647,22.658,101706.000,18.535,0.039,0.021,0.118,-3.376,0.049,-0.620,-0.934,0,64.000,10034.000,6592.000,161.000,0.000,50.000,808.000,-90.000,427.000
920.841,1,nan,nan,nan,nan,nan,nan,0.285,-8.822,80.789,35.000,0.550,nan,1016.197,14.289,-24.492,19.136,126.520,-140.230,14485.016,28.558,90.971,1.472,-2.852,0.631,0.038,0.224,510.000,-4213.000,1978.000,-0.717,0.007,-0.695,0.049,0.0000000,0.0000000,0.000,0.000,0.000,0.000,0,00:00:00,-0.239,2.546,-87.796,-43.842,-4.408,0.671,0.043,-0.289,-0.502,0.606,1.438,22.323,101745.000,18.550,0.041,0.025,0.117,-3.610,0.050,-0.681,-1.172,0,64.000,10034.000,6592.000,161.000,0.000,50.000,808.000,-90.000,427.000,
920.882,1,nan,nan,nan,nan,nan,nan,-0.985,-8.788,80.610,35.000,0.550,nan,1016.197,14.289,-24.492,19.136,126.380,-140.230,14491.298,34.840,90.777,0.022,-3.685,0.518,0.121,0.352,510.000,-4213.000,1978.000,-0.715,0.005,-0.697,0.062,0.0000000,0.0000000,0.000,0.000,0.000,0.000,0,00:00:00,-0.015,3.036,-87.902,-45.292,-5.171,0.833,0.014,-0.306,-0.603,1.063,1.923,21.977,101710.008,18.545,0.044,0.039,0.127,-3.841,0.057,-0.747,-1.459,0,64.000,10034.000,6592.000,161.000,0.000,50.000,808.000,-90.000,427.000
920.923,1,nan,nan,nan,nan,nan,nan,-0.263,-11.439,81.672,35.000,0.550,nan,1015.805,14.296,-21.239,22.388,126.590,-140.200,14481.877,25.419,92.127,1.358,-3.247,0.629,0.002,0.317,557.000,-4141.000,2069.000,-0.714,0.001,-0.696,0.075,0.0000000,0.0000000,0.000,0.000,0.000,0.000,0,00:00:00,0.226,3.035,-88.132,-46.637,-5.815,1.019,0.043,-0.314,-0.638,1.294,2.315,21.871,101620.000,18.550,0.038,0.034,0.105,-3.303,0.069,-0.654,-1.377,0,64.000,10034.000,6592.000,161.000,0.000,50.000,808.000,-90.000,427.000
920.964,1,nan,nan,nan,nan,nan,nan,-0.948,-13.094,82.720,35.000,0.550,nan,1015.387,14.296,-17.764,25.864,126.430,-140.200,14489.054,32.596,93.348,1.918,-4.073,0.731,0.032,0.207,557.000,-4141.000,2069.000,-0.712,-0.006,-0.696,0.088,0.0000000,0.0000000,0.000,0.000,0.000,0.000,0,00:00:00,1.333,2.836,-89.028,-48.422,-6.594,1.274,0.030,-0.315,-0.701,1.200,3.010,21.287,101620.000,18.550,0.044,0.056,0.142,-3.870,0.071,-0.780,-1.764,0,77.000,10029.000,6594.000,218.000,0.000,59.000,863.000,-91.000,450.00
921.005,1,nan,nan,nan,nan,nan,nan,0.461,-13.176,81.273,35.000,0.550,nan,1015.389,14.311,-17.782,25.846,126.300,-140.200,14494.890,38.432,91.984,1.063,-2.787,0.846,-0.017,0.326,623.000,-4102.000,2158.000,-0.711,-0.013,-0.695,0.105,0.0000000,0.0000000,0.000,0.000,0.000,0.000,0,00:00:00,1.531,3.435,-88.643,-50.113,-7.215,1.511,0.027,-0.330,-0.826,1.549,3.697,21.193,101552.000,18.550,0.039,0.066,0.132,-3.436,0.047,-0.667,-1.770,0,77.000,10029.000,6594.000,218.000,0.000,59.000,863.000,-91.000,450.00
921.046,1,nan,nan,nan,nan,nan,nan,-0.016,-15.881,82.934,35.000,0.550,nan,1014.936,14.301,-14.016,29.612,125.800,-140.230,14517.384,60.926,93.988,2.212,-3.886,0.882,-0.015,0.283,623.000,-4102.000,2158.000,-0.709,-0.022,-0.694,0.121,0.0000000,0.0000000,0.000,0.000,0.000,0.000,0,00:00:00,2.131,3.329,-89.608,-52.131,-7.801,1.813,0.067,-0.268,-0.913,1.346,4.594,20.859,101597.008,18.550,0.041,0.106,0.131,-3.680,0.044,-0.650,-2.102,0,77.000,10029.000,6594.000,218.000,0.000,59.000,863.000,-91.000,450.0
921.087,1,nan,nan,nan,nan,nan,nan,-0.607,-18.039,81.615,35.000,0.550,nan,1014.413,14.301,-9.675,33.953,126.110,-140.190,14503.429,46.972,92.953,4.073,-5.229,1.057,-0.043,0.023,623.000,-4102.000,2158.000,-0.707,-0.036,-0.693,0.137,0.0000000,0.0000000,0.000,0.000,0.000,0.000,0,00:00:00,1.377,5.031,-89.911,-54.792,-8.306,2.185,-0.018,-0.198,-1.045,1.262,5.785,20.416,101513.008,18.530,0.044,0.114,0.182,-3.915,0.019,-0.561,-2.614,0,77.000,10029.000,6594.000,218.000,0.000,59.000,863.000,-91.000,450.0
921.128,1,nan,nan,nan,nan,nan,nan,-0.374,-16.225,81.876,35.000,0.550,nan,1014.414,14.307,-9.683,33.945,125.860,-140.200,14514.681,58.223,92.975,1.638,-4.755,1.229,-0.026,0.130,550.000,-4078.000,2287.000,-0.704,-0.051,-0.691,0.156,0.0000000,0.0000000,0.000,0.000,0.000,0.000,0,00:00:00,1.175,4.550,-89.830,-57.266,-8.585,2.493,-0.045,-0.160,-1.199,1.161,6.284,20.556,101491.008,18.535,0.038,0.101,0.143,-3.360,-0.053,-0.366,-2.487,0,77.000,10029.000,6594.000,218.000,0.000,59.000,863.000,-91.000,450.
921.169,1,nan,nan,nan,nan,nan,nan,0.213,-18.786,84.128,35.000,0.550,nan,1013.873,14.312,-5.183,38.444,125.650,-140.200,14524.147,67.689,95.640,2.485,-4.920,1.325,0.047,0.300,550.000,-4078.000,2287.000,-0.699,-0.065,-0.689,0.179,0.0000000,0.0000000,0.000,0.000,0.000,0.000,0,00:00:00,2.210,4.116,-89.544,-60.555,-8.789,2.842,-0.119,-0.129,-1.294,0.073,7.397,20.470,101472.008,18.550,0.044,0.090,0.169,-3.931,-0.129,-0.330,-3.205,0,127.000,10011.000,6594.000,275.000,0.000,71.000,879.000,-89.000,261.0
921.210,1,nan,nan,nan,nan,nan,nan,1.498,-19.438,81.452,35.000,0.550,nan,1013.873,14.312,-5.183,38.444,125.380,-140.210,14536.336,79.878,93.169,3.462,-4.037,1.419,0.038,0.070,451.000,-4023.000,2463.000,-0.693,-0.084,-0.687,0.199,0.0000000,0.0000000,0.000,0.000,0.000,0.000,0,00:00:00,2.262,3.994,-89.659,-63.500,-8.856,3.109,-0.076,-0.090,-1.400,-0.242,8.297,20.381,101427.000,18.550,0.039,0.091,0.169,-3.487,-0.179,-0.212,-3.051,0,127.000,10011.000,6594.000,275.000,0.000,71.000,879.000,-89.000,261.
921.251,1,nan,nan,nan,nan,nan,nan,1.346,-20.088,80.413,35.000,0.550,nan,1013.288,14.313,-0.313,43.315,125.800,-140.160,14517.384,60.926,92.257,3.060,-4.985,1.372,-0.089,0.228,451.000,-4023.000,2463.000,-0.689,-0.100,-0.683,0.221,0.0000000,0.0000000,0.000,0.000,0.000,0.000,0,00:00:00,2.309,4.031,-90.443,-67.073,-8.806,3.359,-0.113,-0.041,-1.490,-1.449,9.116,20.649,101359.000,18.550,0.044,0.106,0.160,-3.937,-0.303,-0.135,-3.694,0,127.000,10011.000,6594.000,275.000,0.000,71.000,879.000,-89.000,261
921.292,1,nan,nan,nan,nan,nan,nan,3.435,-18.599,82.703,35.000,0.550,nan,1012.726,14.313,4.358,47.986,125.470,-140.180,14532.270,75.812,94.354,1.868,-3.182,1.447,-0.179,0.066,296.000,-4044.000,2605.000,-0.685,-0.119,-0.677,0.242,0.0000000,0.0000000,0.000,0.000,0.000,0.000,0,00:00:00,1.694,3.808,-90.149,-70.644,-8.641,3.565,-0.165,-0.004,-1.559,-2.653,10.034,20.677,101313.000,18.550,0.038,0.081,0.119,-3.383,-0.302,-0.034,-3.362,0,127.000,10011.000,6594.000,275.000,0.000,71.000,879.000,-89.000,261
921.333,1,nan,nan,nan,nan,nan,nan,3.705,-20.229,81.835,35.000,0.550,nan,1012.727,14.321,4.349,47.977,125.000,-140.200,14553.526,97.068,93.772,3.060,-4.382,1.722,-0.100,0.053,296.000,-4044.000,2605.000,-0.678,-0.142,-0.670,0.266,0.0000000,0.0000000,0.000,0.000,0.000,0.000,0,00:00:00,1.548,2.981,-90.768,-74.317,-8.380,3.754,-0.162,0.023,-1.611,-3.743,11.149,21.080,101381.008,18.550,0.041,0.097,0.116,-3.726,-0.358,0.043,-3.807,0,127.000,10011.000,6594.000,275.000,0.000,71.000,879.000,-89.000,261.0
921.374,1,nan,nan,nan,nan,nan,nan,5.412,-19.134,82.652,35.000,0.550,nan,1012.104,14.318,9.539,53.167,124.770,-140.200,14563.951,107.494,94.476,3.017,-3.125,1.724,-0.158,-0.064,296.000,-4044.000,2605.000,-0.670,-0.167,-0.663,0.288,0.0000000,0.0000000,0.000,0.000,0.000,0.000,0,00:00:00,2.282,2.103,-90.511,-78.579,-7.969,3.931,-0.170,0.063,-1.673,-5.397,11.878,21.343,101268.008,18.550,0.044,0.095,0.119,-3.952,-0.401,0.139,-4.174,0,127.000,10011.000,6594.000,275.000,0.000,71.000,879.000,-89.000,261
921.415,1,nan,nan,nan,nan,nan,nan,7.101,-17.432,82.693,35.000,0.550,nan,1011.446,14.318,15.022,58.650,124.700,-140.190,14567.127,110.670,94.318,3.563,-1.595,1.807,-0.164,-0.249,71.000,-4036.000,2762.000,-0.661,-0.195,-0.656,0.308,0.0000000,0.0000000,0.000,0.000,0.000,0.000,0,00:00:00,2.368,2.057,-90.041,-82.226,-7.537,4.058,-0.185,0.102,-1.699,-7.162,12.608,21.239,101211.008,18.550,0.039,0.070,0.089,-3.500,-0.364,0.194,-3.804,0,182.000,9991.000,6593.000,333.000,0.000,77.000,888.000,-82.000,-332
921.456,1,nan,nan,nan,nan,nan,nan,4.600,-16.572,81.634,35.000,0.550,nan,1011.446,14.320,15.019,58.646,125.030,-140.150,14552.167,95.710,92.953,1.846,-3.749,1.730,-0.185,-0.173,71.000,-4036.000,2762.000,-0.652,-0.221,-0.648,0.327,0.0000000,0.0000000,0.000,0.000,0.000,0.000,0,00:00:00,1.663,1.601,-89.794,-86.456,-6.971,4.225,-0.103,0.116,-1.751,-8.599,13.135,21.740,101143.008,18.550,0.044,0.065,0.061,-3.949,-0.374,0.286,-4.405,0,182.000,9991.000,6593.000,333.000,0.000,77.000,888.000,-82.000,-332.
921.497,1,nan,nan,nan,nan,nan,nan,6.168,-14.620,82.230,35.000,0.550,nan,1010.737,14.325,20.932,64.560,124.610,-140.160,14571.213,114.755,93.363,1.695,-1.918,1.783,-0.153,-0.072,-155.000,-4089.000,2790.000,-0.641,-0.246,-0.638,0.349,0.0000000,0.0000000,0.000,0.000,0.000,0.000,0,00:00:00,1.243,1.437,-89.909,-90.525,-6.381,4.408,-0.106,0.130,-1.791,-10.365,13.867,22.003,101132.000,18.550,0.039,0.038,0.046,-3.498,-0.254,0.288,-3.999,0,182.000,9991.000,6593.000,333.000,0.000,77.000,888.000,-82.000,-
921.538,1,nan,nan,nan,nan,nan,nan,4.020,-15.398,81.319,35.000,0.550,nan,1010.737,14.325,20.932,64.560,124.240,-140.180,14588.034,131.577,92.422,0.754,-3.922,1.764,0.021,-0.096,-155.000,-4089.000,2790.000,-0.628,-0.269,-0.630,0.370,0.0000000,0.0000000,0.000,0.000,0.000,0.000,0,00:00:00,1.057,1.314,-89.786,-94.643,-5.760,4.640,-0.082,0.133,-1.810,-12.471,14.308,22.252,101075.008,18.535,0.040,0.028,0.053,-3.602,-0.191,0.308,-4.183,0,182.000,9991.000,6593.000,333.000,0.000,77.000,888.000,-82.000,-3
921.579,1,nan,nan,nan,nan,nan,nan,5.402,-13.818,82.634,35.000,0.550,nan,1010.004,14.331,27.043,70.671,124.010,-140.180,14598.511,142.054,93.586,1.774,-2.140,1.932,-0.079,-0.305,-529.000,-4082.000,2919.000,-0.612,-0.298,-0.620,0.390,0.0000000,0.0000000,0.000,0.000,0.000,0.000,0,00:00:00,0.897,1.148,-90.048,-99.365,-5.016,4.946,-0.044,0.138,-1.870,-14.463,14.845,22.263,101041.008,18.550,0.044,0.030,0.052,-3.932,-0.123,0.352,-4.668,0,182.000,9991.000,6593.000,333.000,0.000,77.000,888.000,-82.000,-
921.620,2,nan,nan,nan,nan,nan,nan,4.035,-12.655,81.264,35.000,0.550,nan,1009.243,14.331,33.393,77.020,123.720,-140.180,14611.744,155.286,92.012,0.790,-2.004,1.922,0.002,-0.213,-529.000,-4082.000,2919.000,-0.596,-0.324,-0.610,0.410,0.0000000,0.0000000,0.000,0.000,0.000,0.000,0,00:00:00,0.901,1.371,-89.335,-103.384,-4.352,5.248,-0.014,0.144,-1.899,-16.237,15.179,22.266,101007.000,18.550,0.039,0.025,0.044,-3.478,-0.010,0.328,-4.233,0,261.000,9963.000,6595.000,391.000,0.000,81.000,889.000,-105.000,
921.663,2,nan,nan,nan,nan,nan,nan,4.778,-12.590,81.721,35.000,-nan,nan,1009.244,14.333,33.390,77.018,123.380,-140.190,14627.290,170.832,92.479,1.839,-1.839,2.003,-0.038,-0.162,-529.000,-4082.000,2919.000,-0.578,-0.351,-0.597,0.432,0.0000000,0.0000000,0.000,0.000,0.000,0.000,0,00:00:00,0.229,1.084,-89.406,-108.285,-3.501,5.658,0.075,0.146,-1.929,-18.911,15.136,22.617,100928.000,18.550,0.046,0.008,0.055,-4.139,0.084,0.409,-5.141,0,261.000,9963.000,6595.000,391.000,0.000,81.000,889.000,-105.000,39
921.704,2,nan,nan,nan,nan,nan,nan,3.386,-11.695,82.629,35.000,-nan,nan,1008.399,14.333,40.442,84.070,123.400,-140.170,14626.375,169.917,93.234,0.496,-0.646,1.973,0.230,-0.117,-834.000,-4053.000,2945.000,-0.557,-0.373,-0.587,0.454,0.0000000,0.0000000,0.000,0.000,0.000,0.000,0,00:00:00,-0.204,1.153,-89.685,-112.692,-2.709,6.030,0.045,0.151,-1.957,-20.465,15.367,22.862,100871.000,18.550,0.037,-0.000,0.056,-3.346,0.144,0.326,-4.227,0,261.000,9963.000,6595.000,391.000,0.000,81.000,889.000,-105.000,3
921.745,2,nan,nan,nan,nan,nan,nan,2.644,-13.461,80.233,35.000,-nan,nan,1007.540,14.333,47.622,91.250,122.860,-140.190,14651.134,194.676,91.043,1.307,-2.334,2.048,0.145,-0.279,-834.000,-4053.000,2945.000,-0.534,-0.399,-0.575,0.475,0.0000000,0.0000000,0.000,0.000,0.000,0.000,0,00:00:00,-0.434,2.317,-88.786,-117.175,-1.897,6.417,0.112,0.139,-2.002,-22.801,15.414,22.608,100780.008,18.550,0.041,-0.014,0.091,-3.669,0.224,0.344,-4.733,0,261.000,9963.000,6595.000,391.000,0.000,81.000,889.000,-105.000,3
921.786,2,nan,nan,nan,nan,nan,nan,1.260,-13.899,80.560,35.000,-nan,nan,1007.540,14.338,47.618,91.246,123.230,-140.140,14634.160,177.702,91.416,0.259,-2.126,2.114,0.256,-0.117,-1213.000,-4037.000,2884.000,-0.510,-0.421,-0.561,0.497,0.0000000,0.0000000,0.000,0.000,0.000,0.000,0,00:00:00,-0.564,2.349,-88.021,-122.050,-1.029,6.780,0.131,0.114,-2.042,-24.925,14.961,22.092,100735.008,18.535,0.044,-0.029,0.112,-3.870,0.255,0.324,-5.146,0,261.000,9963.000,6595.000,391.000,0.000,81.000,889.000,-105.000,
921.827,2,nan,nan,nan,nan,nan,nan,0.374,-14.769,80.938,35.000,-nan,nan,1006.686,14.334,54.764,98.392,122.640,-140.160,14661.246,204.788,91.883,-0.711,-3.218,2.188,-0.055,-0.017,-1213.000,-4037.000,2884.000,-0.488,-0.446,-0.542,0.519,0.0000000,0.0000000,0.000,0.000,0.000,0.000,0,00:00:00,-0.800,3.407,-88.210,-126.750,-0.222,7.041,0.055,0.079,-2.113,-26.718,14.503,22.676,100712.008,18.540,0.038,-0.035,0.115,-3.300,0.211,0.228,-4.511,0,316.000,9943.000,6593.000,448.000,0.000,64.000,886.000,-103.00
921.868,2,nan,nan,nan,nan,nan,nan,0.895,-16.557,79.622,35.000,-nan,nan,1006.686,14.334,54.764,98.392,122.060,-140.190,14687.977,231.519,90.820,-0.302,-4.956,2.182,0.040,-0.051,-1213.000,-4037.000,2884.000,-0.464,-0.470,-0.523,0.539,0.0000000,0.0000000,0.000,0.000,0.000,0.000,0,00:00:00,-0.581,3.190,-86.475,-131.931,0.599,7.247,0.091,0.041,-2.178,-29.287,14.057,21.792,100655.008,18.550,0.043,-0.048,0.132,-3.716,0.234,0.186,-5.296,0,316.000,9943.000,6593.000,448.000,0.000,64.000,886.000,-103.000,
921.909,2,nan,nan,nan,nan,nan,nan,1.867,-16.193,80.036,35.000,-nan,nan,1005.755,14.343,62.556,106.184,122.220,-140.150,14680.592,224.134,91.215,0.330,-4.195,2.229,0.113,-0.013,-1497.000,-4008.000,2850.000,-0.438,-0.491,-0.503,0.560,0.0000000,0.0000000,0.000,0.000,0.000,0.000,0,00:00:00,0.645,3.824,-86.593,-136.944,1.343,7.337,0.048,0.020,-2.241,-31.198,13.204,21.750,100576.008,18.535,0.039,-0.006,0.140,-3.369,0.178,0.105,-4.958,0,316.000,9943.000,6593.000,448.000,0.000,64.000,886.000,-103.000,1
921.950,2,nan,nan,nan,nan,nan,nan,2.401,-15.793,76.517,35.000,-nan,nan,1004.850,14.343,70.133,113.761,121.930,-140.150,14693.982,237.524,87.696,0.646,-4.080,2.371,0.092,-0.043,-1497.000,-4008.000,2850.000,-0.410,-0.514,-0.480,0.581,0.0000000,0.0000000,0.000,0.000,0.000,0.000,0,00:00:00,0.273,3.685,-86.030,-142.464,2.153,7.296,0.019,0.017,-2.315,-33.341,11.958,21.815,100583.008,18.530,0.044,-0.000,0.166,-3.783,0.141,0.116,-5.794,0,316.000,9943.000,6593.000,448.000,0.000,64.000,886.000,-103.000,1
921.991,2,nan,nan,nan,nan,nan,nan,2.717,-16.735,78.280,35.000,-nan,nan,1004.848,14.329,70.150,113.777,121.310,-140.180,14722.694,266.237,89.606,0.431,-4.231,2.520,0.181,-0.026,-1818.000,-3990.000,2682.000,-0.378,-0.535,-0.456,0.602,0.0000000,0.0000000,0.000,0.000,0.000,0.000,0,00:00:00,-0.034,3.700,-85.479,-147.531,2.877,7.133,0.014,0.032,-2.420,-35.267,10.410,21.747,100474.008,18.550,0.039,-0.002,0.151,-3.327,0.074,0.094,-5.341,0,316.000,9943.000,6593.000,448.000,0.000,64.000,886.000,-103.000,
922.032,2,nan,nan,nan,nan,nan,nan,1.985,-15.409,77.401,35.000,-nan,nan,1003.863,14.340,78.405,122.033,121.330,-140.150,14721.766,265.308,88.529,0.029,-3.139,2.414,-0.070,-0.062,-1818.000,-3990.000,2682.000,-0.349,-0.558,-0.429,0.619,0.0000000,0.0000000,0.000,0.000,0.000,0.000,0,00:00:00,0.641,3.582,-84.342,-153.432,3.670,6.807,-0.014,-0.008,-2.461,-37.193,8.861,21.313,100417.008,18.550,0.041,0.009,0.137,-3.508,0.021,0.083,-5.822,0,316.000,9943.000,6593.000,448.000,0.000,64.000,886.000,-103.000,
922.073,2,nan,nan,nan,nan,nan,nan,2.992,-13.871,75.138,35.000,-nan,nan,1003.863,14.340,78.405,122.033,120.910,-140.160,14741.282,284.824,86.079,0.797,-2.679,2.516,-0.038,0.113,-2069.000,-4020.000,2243.000,-0.319,-0.579,-0.399,0.636,0.0000000,0.0000000,0.000,0.000,0.000,0.000,0,00:00:00,0.347,2.806,-83.472,-159.492,4.439,6.378,-0.001,-0.009,-2.531,-38.693,6.512,21.949,100345.000,18.530,0.043,-0.009,0.125,-3.593,0.008,0.083,-6.149,0,414.000,9907.000,6593.000,504.000,0.000,62.000,863.000,-86.000,9
922.114,2,nan,nan,nan,nan,nan,nan,2.896,-13.234,76.308,35.000,-nan,nan,1002.843,14.342,86.957,130.585,120.270,-140.190,14771.125,314.668,87.150,0.682,-2.083,2.604,-0.017,0.055,-2069.000,-4020.000,2243.000,-0.286,-0.599,-0.368,0.652,0.0000000,0.0000000,0.000,0.000,0.000,0.000,0,00:00:00,0.355,3.704,-84.219,-165.337,5.136,5.877,0.029,0.097,-2.561,-40.292,4.558,21.135,100270.008,18.550,0.039,0.019,0.128,-3.247,0.004,0.081,-5.729,0,414.000,9907.000,6593.000,504.000,0.000,62.000,863.000,-86.000,949.
922.155,2,nan,nan,nan,nan,nan,nan,4.820,-12.638,75.323,35.000,-nan,nan,1001.804,14.338,95.679,139.307,120.470,-140.150,14761.785,305.328,86.123,2.140,-2.974,2.574,0.023,0.028,-2069.000,-4020.000,2243.000,-0.252,-0.616,-0.336,0.666,0.0000000,0.0000000,0.000,0.000,0.000,0.000,0,00:00:00,1.028,2.224,-82.992,-171.321,5.796,5.294,-0.029,0.042,-2.638,-41.460,2.103,21.525,100197.008,18.530,0.041,0.034,0.099,-3.420,-0.006,0.089,-6.230,0,414.000,9907.000,6593.000,504.000,0.000,62.000,863.000,-86.000,949
922.196,2,nan,nan,nan,nan,nan,nan,5.652,-12.402,73.678,35.000,-nan,nan,1001.804,14.338,95.679,139.307,120.280,-140.140,14770.658,314.200,84.463,2.615,-3.893,2.676,-0.023,-0.064,-2301.000,-4033.000,1805.000,-0.216,-0.634,-0.303,0.678,0.0000000,0.0000000,0.000,0.000,0.000,0.000,0,00:00:00,1.090,2.776,-82.363,-177.818,6.515,4.619,0.069,0.146,-2.666,-42.633,-0.653,20.927,100122.000,18.550,0.044,0.059,0.107,-3.592,0.050,0.191,-6.745,0,414.000,9907.000,6593.000,504.000,0.000,62.000,863.000,-86.000,94
922.237,2,nan,nan,nan,nan,nan,nan,3.856,-10.944,73.014,35.000,-nan,nan,1000.767,14.350,104.391,148.019,119.970,-140.140,14785.159,328.701,83.551,3.096,-2.011,2.827,-0.011,-0.277,-2301.000,-4033.000,1805.000,-0.174,-0.651,-0.271,0.687,0.0000000,0.0000000,0.000,0.000,0.000,0.000,0,00:00:00,1.274,2.873,-80.896,175.967,7.200,3.893,-0.035,0.081,-2.735,-43.918,-3.404,21.305,100077.000,18.550,0.039,0.043,0.104,-3.139,0.018,0.222,-6.063,0,414.000,9907.000,6593.000,504.000,0.000,62.000,863.000,-86.000,9
922.278,2,nan,nan,nan,nan,nan,nan,3.667,-13.527,71.031,35.000,-nan,nan,999.685,14.350,113.485,157.113,119.320,-140.170,14815.662,359.205,81.985,0.855,-3.067,2.731,0.179,-0.156,-2414.000,-3992.000,1403.000,-0.133,-0.663,-0.238,0.697,0.0000000,0.0000000,0.000,0.000,0.000,0.000,0,00:00:00,0.590,3.832,-79.638,169.270,7.920,3.042,0.041,0.165,-2.764,-44.546,-6.666,20.813,100009.000,18.545,0.043,0.023,0.110,-3.388,0.049,0.333,-6.721,0,499.000,9877.000,6593.000,556.000,0.000,59.000,828.000,-74.000,982.
922.319,2,nan,nan,nan,nan,nan,nan,0.494,-14.117,68.949,35.000,-nan,nan,999.685,14.344,113.491,157.119,118.980,-140.170,14831.672,375.214,80.010,-0.840,-0.424,2.736,0.079,-0.236,-2414.000,-3992.000,1403.000,-0.091,-0.675,-0.205,0.703,0.0000000,0.0000000,0.000,0.000,0.000,0.000,0,00:00:00,0.614,2.072,-78.667,162.857,8.526,2.142,-0.009,0.125,-2.807,-44.830,-9.539,20.338,99936.008,18.540,0.039,0.008,0.103,-3.055,0.026,0.320,-6.218,0,499.000,9877.000,6593.000,556.000,0.000,59.000,828.000,-74.000,982
922.360,2,nan,nan,nan,nan,nan,nan,2.741,-14.343,67.827,35.000,-nan,nan,998.530,14.342,123.206,166.833,119.050,-140.130,14828.373,371.915,78.954,-0.129,-2.629,2.853,-0.002,-0.145,-2440.000,-3971.000,822.000,-0.049,-0.686,-0.168,0.707,0.0000000,0.0000000,0.000,0.000,0.000,0.000,0,00:00:00,-1.435,2.444,-77.625,155.916,9.032,1.064,-0.028,0.089,-2.851,-44.782,-12.418,20.108,99872.000,18.550,0.044,-0.026,0.120,-3.406,-0.007,0.339,-7.126,0,499.000,9877.000,6593.000,556.000,0.000,59.000,828.000,-74.000
922.401,2,nan,nan,nan,nan,nan,nan,1.135,-13.903,68.367,35.000,-nan,nan,998.530,14.342,123.206,166.833,118.900,-140.110,14835.444,378.986,79.407,-0.050,-0.941,2.876,-0.004,-0.055,-2440.000,-3971.000,822.000,-0.008,-0.694,-0.129,0.708,0.0000000,0.0000000,0.000,0.000,0.000,0.000,0,00:00:00,-0.691,2.671,-75.580,149.656,9.344,0.046,-0.017,0.080,-2.910,-44.297,-15.702,20.231,99793.008,18.550,0.039,-0.030,0.096,-2.973,-0.002,0.269,-6.443,0,499.000,9877.000,6593.000,556.000,0.000,59.000,828.000,-74.000
922.442,2,nan,nan,nan,nan,nan,nan,1.099,-14.567,66.789,35.000,-nan,nan,997.300,14.342,133.573,177.201,118.350,-140.130,14861.434,404.977,77.970,-0.625,-1.063,2.904,-0.021,-0.149,-2440.000,-3971.000,822.000,0.036,-0.701,-0.091,0.707,0.0000000,0.0000000,0.000,0.000,0.000,0.000,0,00:00:00,-0.350,2.205,-75.272,142.442,9.519,-1.142,0.025,0.076,-2.943,-43.815,-19.186,19.492,99702.000,18.550,0.041,-0.020,0.087,-3.133,0.010,0.243,-6.958,0,499.000,9877.000,6593.000,556.000,0.000,59.000,828.000,-74.000,9
922.483,2,nan,nan,nan,nan,nan,nan,1.596,-11.147,66.496,35.000,-nan,nan,996.046,14.342,144.147,187.775,117.700,-140.150,14892.277,435.819,77.065,2.888,-1.422,3.023,0.070,-0.109,-2311.000,-4008.000,317.000,0.080,-0.704,-0.050,0.704,0.0000000,0.0000000,0.000,0.000,0.000,0.000,0,00:00:00,0.980,1.043,-74.768,135.154,9.513,-2.327,-0.013,0.100,-2.986,-42.431,-22.093,19.146,99607.000,18.545,0.043,-0.018,0.081,-3.186,0.027,0.222,-7.237,0,621.000,9834.000,6591.000,606.000,0.000,60.000,787.000,-93.000,108
922.524,2,nan,nan,nan,nan,nan,nan,1.606,-12.864,64.301,35.000,-nan,nan,996.046,14.345,144.144,187.772,117.480,-140.140,14902.747,446.289,75.226,0.323,-1.192,2.944,0.075,0.109,-2311.000,-4008.000,317.000,0.120,-0.705,-0.007,0.699,0.0000000,0.0000000,0.000,0.000,0.000,0.000,0,00:00:00,-1.103,1.893,-73.500,128.172,9.341,-3.445,-0.030,0.044,-3.036,-41.044,-24.799,19.661,99543.008,18.550,0.039,-0.002,0.098,-2.870,0.040,0.183,-6.720,0,621.000,9834.000,6591.000,606.000,0.000,60.000,787.000,-93.000,108
922.565,2,nan,nan,nan,nan,nan,nan,0.921,-13.014,64.360,35.000,-nan,nan,994.780,14.333,154.833,198.461,117.070,-140.140,14922.302,465.844,75.305,0.093,-0.761,3.008,-0.081,0.043,-2081.000,-4045.000,-157.000,0.161,-0.705,0.036,0.690,0.0000000,0.0000000,0.000,0.000,0.000,0.000,0,00:00:00,-0.036,1.925,-72.907,120.632,9.045,-4.578,0.045,0.070,-3.064,-38.993,-27.820,18.947,99441.000,18.545,0.044,0.010,0.074,-3.207,0.090,0.246,-7.718,0,621.000,9834.000,6591.000,606.000,0.000,60.000,787.000,-93.000,1086
922.606,2,nan,nan,nan,nan,nan,nan,1.194,-11.807,64.503,35.000,-nan,nan,993.487,14.333,165.759,209.387,116.690,-140.140,14940.475,484.017,75.226,1.379,-1.523,3.064,-0.002,-0.124,-2081.000,-4045.000,-157.000,0.204,-0.701,0.078,0.679,0.0000000,0.0000000,0.000,0.000,0.000,0.000,0,00:00:00,-0.579,2.164,-72.416,113.885,8.676,-5.518,0.037,0.064,-3.133,-37.260,-30.039,18.629,99380.008,18.540,0.039,-0.016,0.063,-2.813,0.113,0.236,-6.946,0,621.000,9834.000,6591.000,606.000,0.000,60.000,787.000,-93.000,10
922.647,3,nan,nan,nan,nan,nan,nan,3.021,-10.139,62.797,35.000,-nan,nan,993.487,14.337,165.754,209.382,116.140,-140.150,14966.864,510.407,73.280,1.516,-3.383,3.209,0.194,-0.030,-2081.000,-4045.000,-157.000,0.247,-0.692,0.123,0.667,0.0000000,0.0000000,0.000,0.000,0.000,0.000,0,00:00:00,1.069,2.811,-71.488,105.697,8.099,-6.546,0.084,0.125,-3.182,-33.859,-32.291,18.805,99282.008,18.550,0.044,-0.011,0.087,-3.137,0.182,0.292,-7.949,0,621.000,9834.000,6591.000,606.000,0.000,60.000,787.000,-93.000,1086
922.689,3,nan,nan,nan,nan,nan,nan,5.283,-10.605,61.878,35.000,-nan,nan,992.087,14.347,177.599,221.227,115.670,-140.150,14989.495,533.038,72.497,-0.589,-4.841,3.305,0.047,-0.081,-1670.000,-4011.000,-573.000,0.292,-0.681,0.167,0.650,0.0000000,0.0000000,0.000,0.000,0.000,0.000,0,00:00:00,-1.106,3.074,-70.775,98.239,7.462,-7.421,0.074,0.146,-3.268,-31.114,-34.035,18.753,99203.000,18.550,0.039,-0.023,0.122,-2.751,0.139,0.266,-7.231,0,621.000,9834.000,6591.000,606.000,0.000,60.000,787.000,-93.000,108
922.730,3,nan,nan,nan,nan,nan,nan,5.265,-14.010,61.207,35.000,-nan,nan,992.087,14.347,177.599,221.227,115.440,-140.140,15000.597,544.139,72.468,-3.405,-2.040,3.245,0.075,-0.075,-1670.000,-4011.000,-573.000,0.334,-0.668,0.210,0.631,0.0000000,0.0000000,0.000,0.000,0.000,0.000,0,00:00:00,-2.447,2.441,-69.451,90.687,6.661,-8.280,0.044,0.099,-3.298,-28.366,-35.679,18.584,99097.008,18.540,0.041,-0.050,0.136,-2.892,0.082,0.249,-7.819,0,736.000,9793.000,6590.000,651.000,0.000,54.000,744.000,-54.000,146
922.771,3,nan,nan,nan,nan,nan,nan,2.940,-11.233,61.046,35.000,-nan,nan,990.682,14.345,189.501,233.129,114.850,-140.150,15029.158,572.700,71.757,0.093,-2.514,3.234,-0.055,-0.094,-1202.000,-4109.000,-952.000,0.376,-0.653,0.252,0.608,0.0000000,0.0000000,0.000,0.000,0.000,0.000,0,00:00:00,-1.804,1.381,-69.301,82.634,5.607,-9.122,-0.016,0.032,-3.353,-25.276,-36.934,18.430,99022.000,18.550,0.044,-0.061,0.128,-3.042,0.034,0.192,-8.363,0,736.000,9793.000,6590.000,651.000,0.000,54.000,744.000,-54.000,14
922.812,3,nan,nan,nan,nan,nan,nan,4.019,-9.783,59.256,35.000,-nan,nan,989.217,14.345,201.925,245.553,114.430,-140.150,15049.562,593.104,69.746,-0.725,-4.130,3.403,-0.045,0.011,-1202.000,-4109.000,-952.000,0.416,-0.635,0.295,0.580,0.0000000,0.0000000,0.000,0.000,0.000,0.000,0,00:00:00,-0.813,4.662,-68.490,74.976,4.462,-9.784,0.016,0.095,-3.400,-21.723,-37.404,18.064,98942.000,18.550,0.037,-0.033,0.117,-2.575,0.021,0.125,-7.284,0,736.000,9793.000,6590.000,651.000,0.000,54.000,744.000,-54.000,1461
922.853,3,nan,nan,nan,nan,nan,nan,1.762,-8.468,60.235,35.000,-nan,nan,989.216,14.339,201.931,245.559,113.910,-140.160,15074.908,618.450,70.406,1.336,-4.712,3.253,-0.070,0.019,-619.000,-4101.000,-980.000,0.453,-0.615,0.335,0.551,0.0000000,0.0000000,0.000,0.000,0.000,0.000,0,00:00:00,0.020,4.793,-68.043,66.746,3.133,-10.376,-0.064,0.034,-3.430,-17.827,-37.385,18.329,98824.008,18.540,0.044,0.035,0.177,-2.977,-0.040,0.144,-8.612,0,736.000,9793.000,6590.000,651.000,0.000,54.000,744.000,-54.000,1461.
922.894,3,nan,nan,nan,nan,nan,nan,-0.929,-11.356,58.317,35.000,-nan,nan,987.868,14.332,213.371,256.999,113.780,-140.140,15081.260,624.802,69.006,2.787,-1.235,3.471,-0.040,-0.113,-619.000,-4101.000,-980.000,0.492,-0.590,0.376,0.518,0.0000000,0.0000000,0.000,0.000,0.000,0.000,0,00:00:00,1.572,2.511,-67.451,58.916,1.867,-10.823,-0.095,0.072,-3.486,-14.372,-37.258,17.985,98749.008,18.550,0.039,0.031,0.095,-2.615,-0.089,0.209,-7.725,0,736.000,9793.000,6590.000,651.000,0.000,54.000,744.000,-54.000,14
922.935,3,nan,nan,nan,nan,nan,nan,-0.847,-12.060,57.637,35.000,-nan,nan,986.489,14.332,225.089,268.717,113.220,-140.150,15108.686,652.228,68.453,2.959,-0.848,3.537,0.000,-0.202,-619.000,-4101.000,-980.000,0.530,-0.560,0.414,0.484,0.0000000,0.0000000,0.000,0.000,0.000,0.000,0,00:00:00,0.917,1.053,-66.840,50.968,0.599,-11.095,-0.028,0.163,-3.537,-10.898,-36.239,17.797,98681.008,18.550,0.041,0.033,0.076,-2.762,-0.086,0.291,-8.346,0,873.000,9744.000,6589.000,694.000,0.000,40.000,698.000,-47.000,923
922.976,3,nan,nan,nan,nan,nan,nan,3.125,-14.695,57.573,35.000,-nan,nan,986.489,14.329,225.093,268.721,112.770,-140.150,15130.805,674.347,69.013,-0.532,1.760,3.582,0.111,-0.179,-83.000,-4087.000,-768.000,0.564,-0.526,0.453,0.448,0.0000000,0.0000000,0.000,0.000,0.000,0.000,0,00:00:00,-0.076,0.941,-65.979,42.453,-0.739,-11.131,0.020,0.129,-3.540,-7.082,-34.728,18.483,98563.000,18.540,0.044,-0.014,0.044,-2.902,-0.039,0.354,-8.920,0,873.000,9744.000,6589.000,694.000,0.000,40.000,698.000,-47.000,923.
923.017,3,nan,nan,nan,nan,nan,nan,4.620,-12.877,56.728,35.000,-nan,nan,984.963,14.337,238.079,281.707,112.190,-140.160,15159.419,702.961,67.907,-1.702,0.524,3.618,0.019,-0.138,-83.000,-4087.000,-768.000,0.596,-0.490,0.488,0.407,0.0000000,0.0000000,0.000,0.000,0.000,0.000,0,00:00:00,-1.409,0.692,-66.684,34.430,-1.968,-10.908,-0.012,0.126,-3.526,-4.251,-32.605,18.089,98484.000,18.535,0.039,-0.007,0.010,-2.563,0.044,0.328,-7.903,0,873.000,9744.000,6589.000,694.000,0.000,40.000,698.000,-47.000,923.
923.058,3,nan,nan,nan,nan,nan,nan,2.943,-10.127,54.672,35.000,-nan,nan,984.963,14.337,238.079,281.707,111.860,-140.150,15175.753,719.295,65.314,-0.575,-1.695,3.601,0.100,-0.107,434.000,-4121.000,-538.000,0.624,-0.452,0.523,0.365,0.0000000,0.0000000,0.000,0.000,0.000,0.000,0,00:00:00,-0.827,1.835,-63.544,25.867,-3.217,-10.371,0.052,0.133,-3.522,-1.751,-30.274,18.312,98386.000,18.545,0.042,-0.049,0.037,-2.754,0.169,0.366,-8.680,0,873.000,9744.000,6589.000,694.000,0.000,40.000,698.000,-47.000,923.
923.099,3,nan,nan,nan,nan,nan,nan,2.112,-7.681,51.074,35.000,-nan,nan,983.456,14.340,250.910,294.538,111.540,-140.140,15191.629,735.171,61.320,-0.747,-3.103,3.454,0.151,-0.096,434.000,-4121.000,-538.000,0.647,-0.413,0.554,0.324,0.0000000,0.0000000,0.000,0.000,0.000,0.000,0,00:00:00,-1.244,1.068,-60.096,17.777,-4.332,-9.629,0.095,0.183,-3.567,0.872,-27.350,18.923,98273.000,18.550,0.039,-0.079,0.056,-2.385,0.213,0.309,-7.940,0,873.000,9744.000,6589.000,694.000,0.000,40.000,698.000,-47.000,923.000
923.140,3,nan,nan,nan,nan,nan,nan,2.506,-5.321,44.477,35.000,-nan,nan,981.839,14.340,264.708,308.336,110.720,-140.170,15232.481,776.023,54.482,-1.631,-3.268,3.603,0.138,-0.362,724.000,-4157.000,-62.000,0.670,-0.366,0.581,0.282,0.0000000,0.0000000,0.000,0.000,0.000,0.000,0,00:00:00,-1.721,2.537,-54.365,9.634,-5.391,-8.705,0.169,0.175,-3.579,2.615,-24.013,18.935,98182.008,18.545,0.041,-0.086,0.085,-2.354,0.252,0.272,-8.481,0,873.000,9744.000,6589.000,694.000,0.000,40.000,698.000,-47.000,923.000,1
923.181,3,nan,nan,nan,nan,nan,nan,1.429,-5.776,37.456,35.000,-nan,nan,981.839,14.340,264.708,308.336,110.540,-140.140,15241.481,785.024,47.586,-0.438,-2.191,3.535,0.066,-0.017,724.000,-4157.000,-62.000,0.687,-0.324,0.607,0.234,0.0000000,0.0000000,0.000,0.000,0.000,0.000,0,00:00:00,-1.125,3.004,-46.013,0.924,-6.426,-7.573,0.142,0.051,-3.573,4.706,-19.985,19.707,98064.000,18.530,0.044,-0.066,0.113,-2.142,0.250,0.191,-9.044,0,1001.000,9699.000,6587.000,733.000,0.000,32.000,650.000,-77.000,1809.000
923.222,3,nan,nan,nan,nan,nan,nan,0.023,-2.909,33.171,35.000,-nan,nan,980.119,14.328,279.403,323.031,110.000,-140.140,15268.554,812.096,42.831,-1.350,-4.417,3.867,-0.038,-0.236,724.000,-4157.000,-62.000,0.705,-0.273,0.628,0.183,0.0000000,0.0000000,0.000,0.000,0.000,0.000,0,00:00:00,-1.851,3.632,-41.925,-7.511,-7.361,-6.472,0.072,0.076,-3.668,5.796,-15.940,19.743,97939.000,18.530,0.039,-0.065,0.215,-1.675,0.088,0.129,-8.215,0,1001.000,9699.000,6587.000,733.000,0.000,32.000,650.000,-77.000,1809.0
923.263,3,nan,nan,nan,nan,nan,nan,0.942,-4.755,30.037,35.000,-nan,nan,980.119,14.328,279.403,323.031,109.200,-140.160,15308.860,852.402,40.080,-0.309,-2.184,3.856,-0.055,-0.143,892.000,-4124.000,706.000,0.719,-0.222,0.646,0.130,0.0000000,0.0000000,0.000,0.000,0.000,0.000,0,00:00:00,-1.135,1.963,-40.297,-16.666,-8.175,-5.263,-0.027,0.046,-3.706,6.221,-11.781,19.902,97826.008,18.530,0.043,-0.044,0.139,-1.727,-0.039,0.115,-9.162,0,1001.000,9699.000,6587.000,733.000,0.000,32.000,650.000,-77.000,180
923.304,3,nan,nan,nan,nan,nan,nan,1.684,-6.182,29.140,35.000,-nan,nan,978.383,14.329,294.251,337.879,109.020,-140.140,15317.961,861.503,39.463,0.481,-0.776,3.814,0.034,0.038,892.000,-4124.000,706.000,0.726,-0.173,0.661,0.075,0.0000000,0.0000000,0.000,0.000,0.000,0.000,0,00:00:00,0.461,1.811,-38.966,-25.368,-8.800,-4.102,-0.127,0.012,-3.770,6.421,-7.716,20.177,97735.008,18.535,0.039,-0.020,0.086,-1.509,-0.103,0.104,-8.404,0,1001.000,9699.000,6587.000,733.000,0.000,32.000,650.000,-77.000,1809.000
923.345,3,nan,nan,nan,nan,nan,nan,1.590,-6.460,27.529,35.000,-nan,nan,976.721,14.326,308.487,352.114,108.350,-140.150,15351.947,895.489,37.897,1.228,-0.876,3.729,-0.083,-0.245,894.000,-4115.000,1462.000,0.731,-0.120,0.671,0.023,0.0000000,0.0000000,0.000,0.000,0.000,0.000,0,00:00:00,-0.317,-0.223,-36.799,-34.071,-9.208,-2.808,-0.054,-0.009,-3.737,5.727,-3.832,20.442,97671.008,18.550,0.041,0.008,0.028,-1.556,-0.063,0.119,-8.926,0,1001.000,9699.000,6587.000,733.000,0.000,32.000,650.000,-77.000,180
923.386,3,nan,nan,nan,nan,nan,nan,3.742,-4.104,25.500,35.000,-nan,nan,976.721,14.326,308.487,352.114,107.740,-140.160,15383.038,926.580,35.713,-0.869,1.207,3.775,0.058,-0.149,894.000,-4115.000,1462.000,0.731,-0.067,0.679,-0.030,0.0000000,0.0000000,0.000,0.000,0.000,0.000,0,00:00:00,-0.632,-0.122,-34.521,-43.340,-9.330,-1.318,-0.056,0.120,-3.862,4.362,-0.033,20.700,97508.000,18.530,0.044,0.012,-0.007,-1.561,0.009,0.235,-9.465,0,1180.000,9636.000,6587.000,757.000,0.000,21.000,492.000,-71.000,1153
923.427,3,nan,nan,nan,nan,nan,nan,2.043,-3.731,20.870,35.000,-nan,nan,975.037,14.329,322.932,366.560,107.210,-140.160,15410.167,953.709,30.972,-0.244,-0.165,3.592,-0.060,-0.243,593.000,-4096.000,2126.000,0.728,-0.014,0.681,-0.079,0.0000000,0.0000000,0.000,0.000,0.000,0.000,0,00:00:00,-0.917,0.206,-30.972,-52.097,-9.193,0.148,-0.042,0.019,-3.773,2.781,4.069,21.090,97444.008,18.540,0.039,-0.029,0.014,-1.243,0.061,0.249,-8.422,0,1180.000,9636.000,6587.000,757.000,0.000,21.000,492.000,-71.000,1153.
923.468,3,nan,nan,nan,nan,nan,nan,1.990,-3.456,16.396,35.000,-nan,nan,973.269,14.329,338.116,381.744,106.490,-140.180,15447.196,990.738,26.505,0.374,0.158,3.671,0.109,-0.262,593.000,-4096.000,2126.000,0.719,0.039,0.682,-0.128,0.0000000,0.0000000,0.000,0.000,0.000,0.000,0,00:00:00,-1.551,0.501,-25.617,-61.345,-8.746,1.747,-0.028,-0.019,-3.737,0.520,7.588,21.211,97293.008,18.530,0.043,-0.041,-0.020,-1.194,0.167,0.288,-9.191,0,1180.000,9636.000,6587.000,757.000,0.000,21.000,492.000,-71.000,1153.00
923.509,3,nan,nan,nan,nan,nan,nan,-0.523,-2.376,14.083,35.000,-nan,nan,973.269,14.329,338.116,381.744,105.960,-140.180,15474.583,1018.126,23.919,-1.207,-1.789,3.848,-0.015,-0.030,593.000,-4096.000,2126.000,0.707,0.092,0.677,-0.183,0.0000000,0.0000000,0.000,0.000,0.000,0.000,0,00:00:00,-3.183,0.336,-23.385,-70.017,-8.088,3.176,0.017,0.123,-3.717,-2.196,10.621,21.189,97179.000,18.530,0.039,-0.079,0.030,-0.952,0.170,0.300,-8.372,0,1180.000,9636.000,6587.000,757.000,0.000,21.000,492.000,-71.000,115
923.550,3,nan,nan,nan,nan,nan,nan,-0.135,0.820,8.469,35.000,-nan,nan,971.371,14.318,354.446,398.074,105.510,-140.160,15497.924,1041.466,18.029,-3.096,0.417,3.714,0.083,-0.168,128.000,-4099.000,2596.000,0.690,0.144,0.670,-0.232,0.0000000,0.0000000,0.000,0.000,0.000,0.000,0,00:00:00,-3.694,0.120,-16.477,-79.172,-7.307,4.572,0.091,0.068,-3.722,-5.480,13.270,22.004,97043.008,18.530,0.044,-0.141,0.032,-0.848,0.186,0.176,-9.424,0,1180.000,9636.000,6587.000,757.000,0.000,21.000,492.000,-71.000,1153.00
923.591,3,nan,nan,nan,nan,nan,nan,2.162,2.639,1.942,35.000,-nan,nan,971.371,14.318,354.446,398.074,104.700,-140.180,15540.141,1083.683,11.485,-2.076,3.678,3.735,0.094,-0.096,128.000,-4099.000,2596.000,0.669,0.194,0.659,-0.282,0.0000000,0.0000000,0.000,0.000,0.000,0.000,0,00:00:00,-1.681,1.302,-12.344,-87.194,-6.521,5.639,-0.063,0.035,-3.726,-8.560,14.920,21.807,96923.008,18.545,0.039,-0.112,0.042,-0.534,0.107,0.096,-8.310,0,1334.000,9582.000,6584.000,770.000,0.000,6.000,320.000,-7.000,1820.000,
923.632,3,nan,nan,nan,nan,nan,nan,-1.163,-1.073,-4.166,35.000,-nan,nan,969.346,14.314,371.897,415.525,104.110,-140.180,15571.058,1114.601,5.660,-0.761,-1.322,3.763,-0.023,-0.185,-470.000,-4037.000,2922.000,0.646,0.246,0.644,-0.329,0.0000000,0.0000000,0.000,0.000,0.000,0.000,0,00:00:00,-1.149,0.414,-5.121,-96.256,-5.530,6.747,0.075,0.032,-3.698,-12.414,16.885,21.983,96816.000,18.530,0.041,-0.101,0.039,-0.333,0.172,0.020,-8.853,0,1334.000,9582.000,6584.000,770.000,0.000,6.000,320.000,-7.000,1820.
923.673,3,nan,nan,nan,nan,nan,nan,0.167,0.811,-11.414,35.000,-nan,nan,967.221,14.314,390.238,433.866,103.740,-140.160,15590.520,1134.062,-1.674,-0.144,0.661,3.750,0.136,-0.023,-470.000,-4037.000,2922.000,0.618,0.293,0.625,-0.377,0.0000000,0.0000000,0.000,0.000,0.000,0.000,0,00:00:00,-0.634,1.289,0.067,-105.302,-4.373,7.645,0.089,0.058,-3.703,-16.405,17.663,22.358,96687.008,18.520,0.043,-0.050,0.039,-0.109,0.127,0.026,-9.130,0,1334.000,9582.000,6584.000,770.000,0.000,6.000,320.000,-7.000,1820.00
923.714,3,nan,nan,nan,nan,nan,nan,0.312,-0.427,-15.835,35.000,-nan,nan,967.222,14.317,390.234,433.862,103.020,-140.180,15628.552,1172.095,-5.926,0.934,-0.769,3.788,0.156,-0.222,-470.000,-4037.000,2922.000,0.584,0.341,0.605,-0.420,0.0000000,0.0000000,0.000,0.000,0.000,0.000,0,00:00:00,1.125,1.017,5.035,-113.675,-3.009,8.278,0.035,0.092,-3.709,-20.075,17.837,22.224,96555.008,18.530,0.039,0.018,0.025,0.136,0.097,0.198,-8.248,0,1334.000,9582.000,6584.000,770.000,0.000,6.000,320.000,-7.000,1820.000,
923.755,3,nan,nan,nan,nan,nan,nan,-0.931,0.125,-16.573,35.000,-nan,nan,965.354,14.308,406.386,450.014,102.650,-140.150,15648.180,1191.722,-6.759,-0.517,-0.819,3.711,0.107,-0.109,-1088.000,-3991.000,3074.000,0.549,0.385,0.580,-0.462,0.0000000,0.0000000,0.000,0.000,0.000,0.000,0,00:00:00,-0.753,3.232,7.893,-122.592,-1.415,8.630,-0.069,0.060,-3.703,-23.874,17.222,22.547,96419.008,18.530,0.044,-0.012,0.104,0.304,0.013,0.286,-9.363,0,1334.000,9582.000,6584.000,770.000,0.000,6.000,320.000,-7.000,1820
923.796,3,nan,nan,nan,nan,nan,nan,-1.568,-9.825,-11.041,35.000,-nan,nan,963.172,14.308,425.287,468.915,101.390,-140.200,15715.455,1258.997,-9.560,-2.650,1.444,3.812,0.011,-0.104,-1088.000,-3991.000,3074.000,0.665,0.746,-0.014,-0.002,0.0000000,0.0000000,0.000,0.000,0.000,0.000,0,00:00:00,-2.408,-0.430,9.587,-130.386,-0.019,8.845,0.116,0.074,-3.672,-27.681,16.208,22.124,96272.000,18.530,0.039,-0.084,0.006,0.342,0.145,0.206,-8.228,0,1334.000,9582.000,6584.000,770.000,0.000,6.000,320.000,-7.000,182
923.837,3,nan,nan,nan,nan,nan,nan,-1.238,-6.024,-3.032,35.000,-nan,nan,963.172,14.314,425.280,468.908,100.920,-140.190,15740.723,1284.265,-8.655,-2.952,-0.366,3.790,0.352,-0.034,-1703.000,-3969.000,2841.000,0.634,0.666,-0.372,0.126,0.0000000,0.0000000,0.000,0.000,0.000,0.000,0,00:00:00,-3.955,1.051,10.101,-139.249,1.531,8.883,0.058,0.074,-3.706,-31.051,14.788,21.931,96181.008,18.530,0.041,-0.127,0.012,0.398,0.163,0.169,-8.781,0,1553.000,9506.000,6583.000,763.000,0.000,-2.000,86.000,38.000,1819.
923.878,3,nan,nan,nan,nan,nan,nan,-0.368,-3.163,0.041,35.000,-nan,nan,960.951,14.309,444.558,488.186,100.610,-140.170,15757.441,1300.983,-9.762,-3.232,-1.200,3.756,0.043,-0.077,-1703.000,-3969.000,2841.000,0.614,0.566,-0.525,0.164,0.0000000,0.0000000,0.000,0.000,0.000,0.000,0,00:00:00,-2.621,1.675,10.020,-148.171,3.017,8.632,0.025,0.045,-3.680,-34.455,11.882,22.049,96033.008,18.530,0.043,-0.109,0.113,0.420,0.112,0.119,-9.089,0,1553.000,9506.000,6583.000,763.000,0.000,-2.000,86.000,38.000,1819.0
923.919,3,nan,nan,nan,nan,nan,nan,0.997,-2.952,1.412,35.000,-nan,nan,960.951,14.309,444.558,488.186,99.980,-140.180,15791.546,1335.088,-11.083,-2.888,-2.112,3.699,0.285,-0.098,-2133.000,-3979.000,2376.000,0.626,0.523,-0.565,0.121,0.0000000,0.0000000,0.000,0.000,0.000,0.000,0,00:00:00,-2.013,2.858,9.949,-156.576,4.288,8.249,0.046,-0.020,-3.735,-37.058,9.851,21.593,95897.000,18.530,0.039,-0.096,0.068,0.386,0.161,0.034,-8.261,0,1553.000,9506.000,6583.000,763.000,0.000,-2.000,86.000,38.000,1819.000
923.960,3,nan,nan,nan,nan,nan,nan,1.722,-1.415,0.530,35.000,-nan,nan,959.019,14.309,461.348,504.976,99.210,-140.190,15833.467,1377.009,-10.099,-0.869,-3.024,3.850,0.049,-0.011,-2133.000,-3979.000,2376.000,0.675,0.429,-0.580,0.154,0.0000000,0.0000000,0.000,0.000,0.000,0.000,0,00:00:00,-0.605,3.216,10.225,-165.579,5.601,7.526,0.024,0.026,-3.723,-39.917,6.437,21.694,95784.008,18.530,0.044,-0.029,0.150,0.442,0.071,0.083,-9.387,0,1553.000,9506.000,6583.000,763.000,0.000,-2.000,86.000,38.000,1819.000
924.001,3,nan,nan,nan,nan,nan,nan,0.465,-2.765,1.226,35.000,-nan,nan,957.069,14.309,478.331,521.959,98.520,-140.200,15871.257,1414.799,-11.313,-0.934,-0.891,3.677,0.015,-0.179,-2133.000,-3979.000,2376.000,0.683,0.369,-0.618,0.124,0.0000000,0.0000000,0.000,0.000,0.000,0.000,0,00:00:00,-2.486,2.117,10.088,-173.645,6.608,6.693,0.033,-0.011,-3.785,-41.439,2.996,21.801,95682.008,18.530,0.039,-0.053,0.136,0.395,0.036,0.009,-8.392,0,1553.000,9506.000,6583.000,763.000,0.000,-2.000,86.000,38.000,1819.00
924.042,3,nan,nan,nan,nan,nan,nan,1.526,-3.576,1.266,35.000,-nan,nan,957.069,14.308,478.332,521.960,97.480,-140.240,15928.622,1472.164,-11.672,0.208,-1.228,3.799,0.034,0.017,-2469.000,-3971.000,1837.000,0.692,0.319,-0.644,0.074,0.0000000,0.0000000,0.000,0.000,0.000,0.000,0,00:00:00,-0.573,1.543,10.374,177.218,7.589,5.613,0.043,0.015,-3.721,-42.974,-1.041,21.397,95523.000,18.530,0.041,-0.047,0.044,0.425,0.063,0.017,-8.902,0,1725.000,9446.000,6582.000,749.000,0.000,-15.000,-20.000,53.000,1743.000
924.083,3,nan,nan,nan,nan,nan,nan,0.718,-1.178,0.390,35.000,-nan,nan,955.172,14.302,494.875,538.503,97.210,-140.220,15943.596,1487.138,-10.157,-0.690,-1.523,3.743,0.036,0.023,-2469.000,-3971.000,1837.000,0.716,0.230,-0.655,0.071,0.0000000,0.0000000,0.000,0.000,0.000,0.000,0,00:00:00,-1.035,2.187,10.765,168.078,8.438,4.388,-0.027,0.078,-3.665,-43.726,-4.896,21.004,95432.008,18.530,0.042,-0.017,0.125,0.445,0.066,0.065,-9.146,0,1725.000,9446.000,6582.000,749.000,0.000,-15.000,-20.000,53.000,1743.0
924.124,3,nan,nan,nan,nan,nan,nan,0.952,-4.131,1.118,35.000,-nan,nan,953.155,14.302,512.495,556.123,96.630,-140.210,15975.877,1519.419,-11.543,1.810,-0.934,3.667,0.096,-0.132,-2559.000,-4009.000,1075.000,0.721,0.181,-0.669,0.020,0.0000000,0.0000000,0.000,0.000,0.000,0.000,0,00:00:00,0.343,1.979,10.429,159.419,9.178,3.148,0.076,0.171,-3.745,-43.818,-9.060,21.457,95296.008,18.530,0.039,0.038,0.059,0.408,0.093,0.189,-8.361,0,1725.000,9446.000,6582.000,749.000,0.000,-15.000,-20.000,53.000,1743.000,
924.165,3,nan,nan,nan,nan,nan,nan,3.646,-1.191,2.723,35.000,-nan,nan,953.153,14.293,512.507,556.135,96.180,-140.200,16001.030,1544.572,-12.290,-1.293,-4.367,3.810,0.055,-0.239,-2559.000,-4009.000,1075.000,0.720,0.133,-0.680,-0.038,0.0000000,0.0000000,0.000,0.000,0.000,0.000,0,00:00:00,-1.526,4.739,10.778,150.135,9.799,1.654,-0.004,0.082,-3.812,-43.687,-13.331,20.565,95171.008,18.530,0.044,0.020,0.135,0.470,0.051,0.254,-9.498,0,1725.000,9446.000,6582.000,749.000,0.000,-15.000,-20.000,53.000,1743
924.206,3,nan,nan,nan,nan,nan,nan,0.991,-0.478,1.284,35.000,-nan,nan,951.091,14.304,530.557,574.185,95.210,-140.230,16055.575,1599.118,-10.789,-2.018,-1.954,3.671,0.187,0.006,-2483.000,-4000.000,400.000,0.733,0.077,-0.671,-0.082,0.0000000,0.0000000,0.000,0.000,0.000,0.000,0,00:00:00,-4.062,2.724,11.459,141.960,10.016,0.130,-0.140,0.037,-3.672,-42.781,-17.715,20.527,95035.000,18.530,0.039,-0.108,0.170,0.422,-0.096,0.106,-8.373,0,1725.000,9446.000,6582.000,749.000,0.000,-15.000,-20.000,53.000,174
924.247,3,nan,nan,nan,nan,nan,nan,-1.585,-1.926,-1.843,35.000,-nan,nan,951.091,14.304,530.557,574.185,94.870,-140.210,16074.801,1618.343,-8.210,0.898,1.221,3.680,0.136,-0.168,-2483.000,-4000.000,400.000,0.709,-0.001,-0.697,-0.110,0.0000000,0.0000000,0.000,0.000,0.000,0.000,0,00:00:00,-1.250,2.923,11.111,132.225,9.942,-1.670,-0.037,-0.025,-3.759,-41.197,-21.616,20.754,94933.008,18.530,0.042,-0.080,0.091,0.458,-0.102,0.058,-9.095,0,1934.000,9374.000,6580.000,734.000,0.000,-19.000,-64.000,64.000,1
924.288,3,nan,nan,nan,nan,nan,nan,2.200,-1.992,1.553,35.000,-nan,nan,949.064,14.295,548.327,591.954,94.520,-140.200,16094.650,1638.193,-11.464,-0.532,-2.492,3.637,-0.087,-0.087,-2483.000,-4000.000,400.000,0.699,-0.051,-0.695,-0.161,0.0000000,0.0000000,0.000,0.000,0.000,0.000,0,00:00:00,-1.619,1.903,10.870,124.186,9.601,-3.096,0.013,-0.008,-3.679,-39.149,-24.735,20.037,94831.000,18.530,0.038,-0.049,0.070,0.398,-0.040,-0.004,-7.973,0,1934.000,9374.000,6580.000,734.000,0.000,-19.000,-64.000,64.000
924.329,3,nan,nan,nan,nan,nan,nan,0.798,-0.188,1.084,35.000,-nan,nan,947.328,14.295,563.570,607.198,93.560,-140.240,16149.401,1692.944,-10.695,-1.997,-0.991,3.697,0.058,-0.121,-2125.000,-4018.000,-234.000,0.706,-0.099,-0.668,-0.212,0.0000000,0.0000000,0.000,0.000,0.000,0.000,0,00:00:00,-0.513,2.322,10.504,115.067,8.969,-4.579,0.026,-0.039,-3.743,-36.335,-28.364,20.402,94706.000,18.530,0.041,-0.021,0.073,0.434,-0.002,-0.014,-8.806,0,1934.000,9374.000,6580.000,734.000,0.000,-19.000,-64.000,64.000
924.370,3,nan,nan,nan,nan,nan,nan,0.363,-1.066,0.201,35.000,-nan,nan,947.327,14.288,563.579,607.207,93.220,-140.230,16168.901,1712.443,-9.912,-0.374,-1.760,3.763,0.136,-0.111,-2125.000,-4018.000,-234.000,0.715,-0.178,-0.635,-0.232,0.0000000,0.0000000,0.000,0.000,0.000,0.000,0,00:00:00,0.145,3.091,10.521,105.964,8.206,-5.893,0.054,0.051,-3.708,-33.489,-30.606,20.088,94600.008,18.510,0.044,0.018,0.083,0.458,0.063,0.080,-9.348,0,1934.000,9374.000,6580.000,734.000,0.000,-19.000,-64.000,64.000,1336.
924.411,3,nan,nan,nan,nan,nan,nan,0.083,-0.015,0.204,35.000,-nan,nan,945.600,14.291,578.756,622.384,92.650,-140.230,16201.722,1745.264,-9.891,-1.329,-0.833,3.758,-0.006,-0.160,-1612.000,-4081.000,-696.000,0.699,-0.222,-0.616,-0.287,0.0000000,0.0000000,0.000,0.000,0.000,0.000,0,00:00:00,0.526,2.435,10.186,97.956,7.411,-6.962,0.012,0.078,-3.687,-30.314,-33.053,19.768,94464.008,18.520,0.039,0.008,0.117,0.401,0.033,0.117,-8.294,0,1934.000,9374.000,6580.000,734.000,0.000,-19.000,-64.000,64.000,1336.
924.452,3,nan,nan,nan,nan,nan,nan,-0.657,-1.388,0.301,35.000,-nan,nan,943.819,14.291,594.447,638.075,92.100,-140.230,16233.547,1777.089,-9.977,1.300,-1.832,3.769,-0.077,-0.179,-1612.000,-4081.000,-696.000,0.678,-0.315,-0.600,-0.286,0.0000000,0.0000000,0.000,0.000,0.000,0.000,0,00:00:00,-0.140,3.671,10.114,88.345,6.314,-8.137,0.042,0.067,-3.787,-26.118,-34.627,19.852,94377.008,18.530,0.044,0.009,0.135,0.451,-0.015,0.175,-9.380,0,1934.000,9374.000,6580.000,734.000,0.000,-19.000,-64.000,64.000,133
924.493,3,nan,nan,nan,nan,nan,nan,0.741,-0.900,-0.404,35.000,-nan,nan,943.818,14.282,594.457,638.085,91.340,-140.250,16277.777,1821.320,-8.835,-0.567,-3.383,3.686,0.160,0.021,-1612.000,-4081.000,-696.000,0.694,-0.373,-0.529,-0.316,0.0000000,0.0000000,0.000,0.000,0.000,0.000,0,00:00:00,-0.870,3.902,9.757,80.378,5.263,-9.015,0.017,0.055,-3.751,-22.801,-35.688,19.585,94271.000,18.510,0.038,-0.019,0.114,0.383,-0.070,0.155,-8.043,0,2084.000,9323.000,6580.000,720.000,0.000,-3.000,-104.000,31.000,1513
924.534,3,nan,nan,nan,nan,nan,nan,-0.155,1.065,0.168,35.000,-nan,nan,942.018,14.284,610.325,653.953,91.100,-140.230,16291.807,1835.349,-9.948,-1.307,-0.215,3.635,-0.104,0.015,-1047.000,-4108.000,-917.000,0.643,-0.386,-0.528,-0.398,0.0000000,0.0000000,0.000,0.000,0.000,0.000,0,00:00:00,-1.560,3.766,10.218,71.435,3.904,-9.900,-0.053,0.033,-3.765,-18.806,-36.267,19.340,94157.008,18.510,0.041,-0.037,0.119,0.421,-0.149,0.137,-8.799,0,2084.000,9323.000,6580.000,720.000,0.000,-3.000,-104.000,31.000,15
924.575,3,nan,nan,nan,nan,nan,nan,-1.492,0.686,0.581,35.000,-nan,nan,942.018,14.284,610.325,653.953,90.440,-140.240,16330.542,1874.084,-10.401,1.300,0.891,3.605,0.055,0.049,-1047.000,-4108.000,-917.000,0.561,-0.438,-0.555,-0.431,0.0000000,0.0000000,0.000,0.000,0.000,0.000,0,00:00:00,-0.554,0.843,9.826,62.607,2.382,-10.524,-0.080,0.006,-3.627,-14.469,-36.455,19.354,94037.000,18.530,0.044,-0.042,0.073,0.436,-0.137,0.082,-9.254,0,2084.000,9323.000,6580.000,720.000,0.000,-3.000,-104.000,31.000,1513
924.616,3,nan,nan,nan,nan,nan,nan,0.850,-0.909,1.061,35.000,-nan,nan,940.271,14.277,625.762,669.390,90.110,-140.230,16349.996,1893.538,-10.710,-1.358,-1.789,3.613,-0.156,-0.164,-428.000,-4089.000,-913.000,0.557,-0.475,-0.492,-0.470,0.0000000,0.0000000,0.000,0.000,0.000,0.000,0,00:00:00,0.508,0.681,9.706,54.918,0.991,-10.823,-0.030,0.022,-3.616,-11.224,-35.729,19.154,93980.000,18.530,0.039,-0.006,0.046,0.384,-0.056,0.080,-8.112,0,2084.000,9323.000,6580.000,720.000,0.000,-3.000,-104.000,31.000,15
924.657,3,nan,nan,nan,nan,nan,nan,0.300,1.619,0.316,35.000,-nan,nan,938.536,14.277,641.111,684.738,89.480,-140.240,16387.295,1930.837,-9.862,-1.128,2.593,3.660,-0.023,-0.049,-428.000,-4089.000,-913.000,0.487,-0.464,-0.487,-0.557,0.0000000,0.0000000,0.000,0.000,0.000,0.000,0,00:00:00,-0.375,-0.207,9.926,45.710,-0.680,-10.864,0.020,0.059,-3.612,-7.295,-34.222,19.231,93862.008,18.510,0.044,-0.007,0.055,0.429,0.005,0.103,-9.153,0,2084.000,9323.000,6580.000,720.000,0.000,-3.000,-104.000,31.000,1513.
924.698,3,nan,nan,nan,nan,nan,nan,-0.465,-0.917,-0.885,35.000,-nan,nan,938.535,14.273,641.115,684.743,88.990,-140.240,16416.453,1959.996,-8.921,-0.129,-1.056,3.786,0.138,-0.023,151.000,-4097.000,-659.000,0.462,-0.538,-0.434,-0.555,0.0000000,0.0000000,0.000,0.000,0.000,0.000,0,00:00:00,-0.123,2.193,9.487,38.006,-2.025,-10.627,0.019,0.075,-3.649,-3.805,-32.408,19.439,93753.008,18.515,0.038,-0.007,0.059,0.364,0.058,0.126,-7.866,0,2273.000,9259.000,6579.000,706.000,0.000,-4.000,-101.000,47.000,1618
924.739,3,nan,nan,nan,nan,nan,nan,-0.917,-0.897,-0.019,35.000,-nan,nan,936.884,14.272,655.742,699.370,88.280,-140.250,16458.934,2002.477,-9.582,0.618,-2.306,3.639,0.049,-0.149,151.000,-4097.000,-659.000,0.431,-0.612,-0.385,-0.541,0.0000000,0.0000000,0.000,0.000,0.000,0.000,0,00:00:00,-0.651,2.970,9.843,29.247,-3.477,-10.170,0.014,0.088,-3.639,-0.625,-29.497,19.564,93640.008,18.530,0.041,0.001,0.103,0.400,0.053,0.165,-8.656,0,2273.000,9259.000,6579.000,706.000,0.000,-4.000,-101.000,47.000,1618.0
924.780,3,nan,nan,nan,nan,nan,nan,-0.167,-1.546,0.146,35.000,-nan,nan,936.884,14.272,655.742,699.370,88.220,-140.210,16462.537,2006.079,-9.158,-1.286,-4.001,3.618,0.083,-0.117,151.000,-4097.000,-659.000,0.432,-0.666,-0.291,-0.533,0.0000000,0.0000000,0.000,0.000,0.000,0.000,0,00:00:00,-1.776,3.117,9.582,20.503,-4.842,-9.567,-0.017,0.067,-3.604,1.991,-26.971,19.550,93533.008,18.510,0.044,-0.043,0.144,0.422,-0.019,0.170,-9.138,0,2273.000,9259.000,6579.000,706.000,0.000,-4.000,-101.000,47.000,1618.
924.821,3,nan,nan,nan,nan,nan,nan,-0.813,0.180,0.753,35.000,-nan,nan,935.102,14.279,671.556,715.184,87.260,-140.250,16520.450,2063.992,-10.078,0.345,-3.254,3.594,-0.036,-0.070,591.000,-4129.000,-124.000,0.379,-0.704,-0.263,-0.540,0.0000000,0.0000000,0.000,0.000,0.000,0.000,0,00:00:00,-2.223,3.653,9.722,12.838,-6.007,-8.924,0.001,0.032,-3.610,4.172,-23.940,19.553,93424.000,18.525,0.039,-0.044,0.134,0.370,-0.079,0.083,-8.021,0,2273.000,9259.000,6579.000,706.000,0.000,-4.000,-101.000,47.000,1618.0
924.862,3,nan,nan,nan,nan,nan,nan,-0.005,0.530,1.141,35.000,-nan,nan,933.314,14.282,687.449,731.077,86.880,-140.240,16543.517,2087.059,-10.731,-0.244,-2.234,3.539,-0.226,-0.013,591.000,-4129.000,-124.000,0.330,-0.714,-0.226,-0.574,0.0000000,0.0000000,0.000,0.000,0.000,0.000,0,00:00:00,-1.429,2.894,9.129,3.617,-7.341,-8.027,-0.023,0.058,-3.612,6.039,-20.010,19.711,93307.008,18.510,0.044,-0.045,0.120,0.416,-0.153,0.046,-9.056,0,2273.000,9259.000,6579.000,706.000,0.000,-4.000,-101.000,47.000,1618.
924.903,3,nan,nan,nan,nan,nan,nan,-0.323,1.248,-0.674,35.000,-nan,nan,933.314,14.282,687.449,731.077,86.180,-140.260,16586.222,2129.765,-9.043,1.516,-1.027,3.748,-0.034,-0.013,825.000,-4154.000,517.000,0.242,-0.726,-0.226,-0.603,0.0000000,0.0000000,0.000,0.000,0.000,0.000,0,00:00:00,-0.102,0.841,9.216,-4.103,-8.391,-7.111,-0.067,0.020,-3.538,7.332,-16.861,19.958,93216.000,18.520,0.037,-0.026,0.074,0.350,-0.143,-0.021,-7.758,0,2428.000,9206.000,6579.000,692.000,0.000,-5.000,-93.000,39.000,1267.0
924.944,3,nan,nan,nan,nan,nan,nan,-0.299,-0.435,-0.998,35.000,-nan,nan,931.652,14.271,702.234,745.862,85.690,-140.260,16616.284,2159.826,-8.469,-0.338,-2.471,3.535,0.023,-0.023,825.000,-4154.000,517.000,0.211,-0.754,-0.159,-0.601,0.0000000,0.0000000,0.000,0.000,0.000,0.000,0,00:00:00,-0.352,1.541,9.180,-12.895,-9.389,-5.862,-0.059,0.000,-3.586,8.204,-12.613,19.756,93136.000,18.510,0.041,0.006,0.068,0.382,-0.094,0.006,-8.533,0,2428.000,9206.000,6579.000,692.000,0.000,-5.000,-93.000,39.000,1267.0
924.985,3,nan,nan,nan,nan,nan,nan,-0.714,0.690,0.231,35.000,-nan,nan,930.069,14.271,716.349,759.977,85.500,-140.240,16627.978,2171.520,-9.546,1.322,-2.988,3.607,-0.002,-0.102,895.000,-4130.000,1157.000,0.144,-0.781,-0.135,-0.593,0.0000000,0.0000000,0.000,0.000,0.000,0.000,0,00:00:00,-0.340,3.081,8.866,-21.727,-10.147,-4.446,-0.036,-0.052,-3.673,8.527,-8.056,19.807,93012.000,18.510,0.044,0.012,0.094,0.402,-0.074,0.043,-9.044,0,2428.000,9206.000,6579.000,692.000,0.000,-5.000,-93.000,39.000,1267.0
925.026,3,nan,nan,nan,nan,nan,nan,-0.254,0.293,-0.392,35.000,-nan,nan,930.070,14.283,716.334,759.962,84.970,-140.240,16660.709,2204.252,-8.986,0.639,-2.773,3.643,-0.087,-0.230,895.000,-4130.000,1157.000,0.093,-0.794,-0.089,-0.594,0.0000000,0.0000000,0.000,0.000,0.000,0.000,0,00:00:00,1.225,2.790,9.373,-29.606,-10.559,-3.109,-0.065,0.059,-3.628,8.038,-4.869,20.656,92898.000,18.510,0.039,0.035,0.099,0.359,-0.073,0.128,-8.069,0,2428.000,9206.000,6579.000,692.000,0.000,-5.000,-93.000,39.000,1267.00
925.067,3,nan,nan,nan,nan,nan,nan,0.411,-0.421,0.604,35.000,-nan,nan,928.400,14.284,731.243,774.870,84.190,-140.260,16709.182,2252.724,-10.149,-1.070,-2.155,3.701,-0.096,-0.094,895.000,-4130.000,1157.000,0.063,-0.785,-0.013,-0.616,0.0000000,0.0000000,0.000,0.000,0.000,0.000,0,00:00:00,0.084,2.973,9.075,-39.108,-10.747,-1.511,-0.106,0.051,-3.620,6.903,-0.779,20.560,92807.008,18.510,0.044,0.041,0.126,0.397,-0.152,0.186,-9.128,0,2428.000,9206.000,6579.000,692.000,0.000,-5.000,-93.000,39.000,1267.0
925.108,3,nan,nan,nan,nan,nan,nan,0.466,0.666,-0.872,35.000,-nan,nan,928.400,14.284,731.243,774.870,83.780,-140.260,16734.808,2278.350,-8.885,0.539,-1.149,3.603,-0.121,0.013,716.000,-4087.000,1847.000,-0.006,-0.767,0.015,-0.641,0.0000000,0.0000000,0.000,0.000,0.000,0.000,0,00:00:00,-0.954,0.381,8.670,-46.973,-10.725,-0.182,-0.037,0.042,-3.576,5.310,2.726,20.562,92717.000,18.510,0.038,-0.031,0.050,0.336,-0.121,0.151,-7.772,0,2428.000,9206.000,6579.000,692.000,0.000,-5.000,-93.000,39.000,1267.000
925.149,3,nan,nan,nan,nan,nan,nan,0.708,0.710,-1.092,35.000,-nan,nan,926.735,14.281,746.120,789.748,83.300,-140.260,16764.937,2308.479,-8.684,1.214,-0.345,3.422,-0.209,0.040,716.000,-4087.000,1847.000,-0.076,-0.740,0.037,-0.667,0.0000000,0.0000000,0.000,0.000,0.000,0.000,0,00:00:00,-2.470,-0.560,8.798,-55.773,-10.565,1.369,0.018,0.038,-3.514,3.829,6.330,21.299,92580.000,18.510,0.041,-0.073,0.029,0.368,-0.064,0.077,-8.442,0,2598.000,9149.000,6579.000,679.000,0.000,4.000,-83.000,52.000,1216.000,2
925.190,3,nan,nan,nan,nan,nan,nan,-2.981,2.257,0.884,35.000,-nan,nan,925.088,14.281,760.867,804.495,83.100,-140.240,16777.533,2321.075,-9.639,1.882,-5.646,3.507,0.128,-0.115,392.000,-4020.000,2417.000,-0.136,-0.765,0.073,-0.625,0.0000000,0.0000000,0.000,0.000,0.000,0.000,0,00:00:00,0.708,4.483,8.884,-64.529,-10.118,2.881,-0.023,0.060,-3.595,1.118,9.559,20.919,92512.000,18.510,0.044,0.033,0.106,0.387,-0.050,0.139,-8.932,0,2598.000,9149.000,6579.000,679.000,0.000,4.000,-83.000,52.000,1216.000,206
925.231,3,nan,nan,nan,nan,nan,nan,-0.056,-1.227,-1.119,35.000,-nan,nan,925.089,14.288,760.858,804.485,82.450,-140.250,16818.639,2362.181,-8.519,-1.882,-0.963,3.430,0.026,0.004,392.000,-4020.000,2417.000,-0.139,-0.751,0.173,-0.622,0.0000000,0.0000000,0.000,0.000,0.000,0.000,0,00:00:00,-2.344,0.085,8.355,-72.159,-9.603,4.169,0.072,0.062,-3.510,-1.276,12.090,21.246,92410.000,18.510,0.039,-0.034,0.063,0.339,-0.000,0.055,-7.829,0,2598.000,9149.000,6579.000,679.000,0.000,4.000,-83.000,52.000,1216.000
925.272,3,nan,nan,nan,nan,nan,nan,0.083,0.474,-0.859,35.000,-nan,nan,923.446,14.293,775.584,819.212,81.820,-140.270,16858.731,2402.273,-8.785,-0.072,-1.781,3.328,0.087,0.034,392.000,-4020.000,2417.000,-0.198,-0.741,0.202,-0.609,0.0000000,0.0000000,0.000,0.000,0.000,0.000,0,00:00:00,0.528,1.358,8.860,-81.113,-8.802,5.588,0.019,0.042,-3.399,-4.783,14.643,21.812,92286.000,18.510,0.043,-0.038,0.045,0.367,-0.016,0.064,-8.421,0,2598.000,9149.000,6579.000,679.000,0.000,4.000,-83.000,52.000,1216.000,20
925.313,3,nan,nan,nan,nan,nan,nan,1.232,-0.212,-0.808,35.000,-nan,nan,921.826,14.293,790.125,833.753,81.340,-140.260,16889.446,2432.988,-9.058,0.496,0.553,3.577,0.151,-0.149,-74.000,-4013.000,2886.000,-0.250,-0.683,0.247,-0.641,0.0000000,0.0000000,0.000,0.000,0.000,0.000,0,00:00:00,1.445,0.375,7.904,-88.551,-7.933,6.702,0.109,0.061,-3.403,-7.752,16.291,21.615,92195.008,18.510,0.039,0.024,0.078,0.331,0.043,0.090,-7.696,0,2598.000,9149.000,6579.000,679.000,0.000,4.000,-83.000,52.000,1216.000,2065
925.354,3,nan,nan,nan,nan,nan,nan,-1.071,0.804,-1.093,35.000,-nan,nan,921.825,14.287,790.132,833.760,80.980,-140.250,16912.578,2456.120,-8.246,-0.747,-3.038,3.426,0.068,0.026,-74.000,-4013.000,2886.000,-0.303,-0.713,0.279,-0.567,0.0000000,0.0000000,0.000,0.000,0.000,0.000,0,00:00:00,0.372,2.913,8.458,-97.484,-6.666,7.835,-0.042,0.084,-3.432,-11.396,17.656,21.892,92115.008,18.515,0.044,0.012,0.088,0.372,0.007,0.143,-8.762,0,2746.000,9099.000,6580.000,666.000,0.000,1.000,-91.000,4.000,1668.000,19
925.395,3,nan,nan,nan,nan,nan,nan,0.574,0.141,-0.237,35.000,-nan,nan,920.193,14.274,804.808,848.436,80.540,-140.250,16940.964,2484.506,-9.481,0.266,-1.422,3.541,-0.077,-0.156,-619.000,-3987.000,3096.000,-0.353,-0.678,0.316,-0.562,0.0000000,0.0000000,0.000,0.000,0.000,0.000,0,00:00:00,0.725,1.451,8.740,-104.914,-5.462,8.572,-0.019,0.120,-3.405,-15.167,18.230,21.772,92002.008,18.510,0.039,0.004,0.131,0.328,-0.041,0.156,-7.780,0,2746.000,9099.000,6580.000,666.000,0.000,1.000,-91.000,4.000,1668.000
925.436,3,nan,nan,nan,nan,nan,nan,-0.680,1.108,-0.832,35.000,-nan,nan,920.193,14.274,804.808,848.436,79.910,-140.270,16981.827,2525.369,-8.131,-0.718,-3.958,3.377,0.049,-0.004,-619.000,-3987.000,3096.000,-0.409,-0.696,0.334,-0.486,0.0000000,0.0000000,0.000,0.000,0.000,0.000,0,00:00:00,-0.186,2.328,8.228,-112.797,-4.082,9.119,-0.061,0.053,-3.472,-19.171,18.412,22.002,91930.008,18.503,0.041,0.012,0.106,0.344,-0.104,0.176,-8.257,0,2746.000,9099.000,6580.000,666.000,0.000,1.000,-91.000,4.000,1668.0
925.477,3,nan,nan,nan,nan,nan,nan,0.326,-1.168,-1.383,35.000,-nan,nan,918.568,14.281,819.430,863.058,79.380,-140.280,17016.407,2559.949,-8.418,-1.049,-0.718,3.337,0.115,-0.153,-1189.000,-3966.000,3127.000,-0.427,-0.656,0.399,-0.477,0.0000000,0.0000000,0.000,0.000,0.000,0.000,0,00:00:00,-1.200,1.651,8.303,-121.529,-2.525,9.422,-0.086,0.064,-3.401,-23.078,17.898,22.329,91805.008,18.505,0.044,-0.040,0.103,0.367,-0.186,0.120,-8.673,0,2746.000,9099.000,6580.000,666.000,0.000,1.000,-91.000,4.000,1668
925.518,3,nan,nan,nan,nan,nan,nan,0.561,-1.207,-1.445,35.000,-nan,nan,917.014,14.281,833.443,877.071,78.890,-140.280,17048.543,2592.086,-8.433,-0.776,0.158,3.317,-0.130,-0.104,-1189.000,-3966.000,3127.000,-0.446,-0.606,0.457,-0.473,0.0000000,0.0000000,0.000,0.000,0.000,0.000,0,00:00:00,-1.165,1.490,8.157,-128.764,-1.253,9.499,-0.071,0.029,-3.394,-26.101,17.066,21.794,91707.000,18.510,0.038,-0.020,0.059,0.309,-0.146,0.080,-7.383,0,2746.000,9099.000,6580.000,666.000,0.000,1.000,-91.000,4.000,1668
925.559,3,nan,nan,nan,nan,nan,nan,0.179,-1.408,-1.688,35.000,-nan,nan,917.013,14.271,833.456,877.083,78.140,-140.300,17098.047,2641.589,-8.131,-1.092,0.819,3.317,0.045,-0.085,-1189.000,-3966.000,3127.000,-0.468,-0.563,0.508,-0.453,0.0000000,0.0000000,0.000,0.000,0.000,0.000,0,00:00:00,-0.295,-0.484,8.379,-137.353,0.195,9.499,-0.010,-0.008,-3.379,-30.034,15.361,21.954,91605.000,18.510,0.044,-0.038,0.005,0.358,-0.064,0.021,-8.515,0,2918.000,9042.000,6579.000,653.000,0.000,2.000,-93.000,16.000,131
925.600,3,nan,nan,nan,nan,nan,nan,0.992,1.753,-2.707,35.000,-nan,nan,915.470,14.276,847.377,891.004,78.150,-140.260,17097.384,2640.926,-7.039,-0.359,-2.198,3.498,-0.023,-0.200,-1769.000,-3927.000,2832.000,-0.496,-0.528,0.548,-0.418,0.0000000,0.0000000,0.000,0.000,0.000,0.000,0,00:00:00,-0.020,0.317,7.875,-144.473,1.404,9.440,0.031,-0.007,-3.349,-32.632,13.630,22.242,91525.000,18.510,0.039,-0.012,0.003,0.311,0.052,0.033,-7.504,0,2918.000,9042.000,6579.000,653.000,0.000,2.000,-93.000,16.000,1315.
925.641,3,nan,nan,nan,nan,nan,nan,1.752,-1.159,-4.022,35.000,-nan,nan,913.942,14.276,861.195,904.823,77.540,-140.280,17137.927,2681.469,-6.070,0.905,0.510,3.337,0.224,-0.202,-1769.000,-3927.000,2832.000,-0.523,-0.494,0.582,-0.379,0.0000000,0.0000000,0.000,0.000,0.000,0.000,0,00:00:00,-0.662,2.133,8.118,-152.070,2.702,9.263,0.082,0.007,-3.402,-35.458,11.603,21.541,91423.008,18.510,0.041,0.008,0.049,0.329,0.120,0.061,-7.994,0,2918.000,9042.000,6579.000,653.000,0.000,2.000,-93.000,16.000,1315.000,
925.682,3,nan,nan,nan,nan,nan,nan,1.588,2.135,-1.909,35.000,-nan,nan,913.941,14.273,861.198,904.826,76.780,-140.300,17188.802,2732.344,-7.592,-0.474,-3.412,3.422,-0.126,-0.077,-2139.000,-3910.000,2413.000,-0.579,-0.468,0.578,-0.334,0.0000000,0.0000000,0.000,0.000,0.000,0.000,0,00:00:00,0.140,2.729,8.135,-160.595,4.189,8.869,0.075,0.047,-3.408,-38.086,8.483,21.410,91329.000,18.502,0.044,0.010,0.097,0.348,0.120,0.138,-8.450,0,2918.000,9042.000,6579.000,653.000,0.000,2.000,-93.000,16.000,1315.000,
925.723,3,nan,nan,nan,nan,nan,nan,-0.617,0.530,-2.039,35.000,-nan,nan,912.349,14.276,875.614,919.242,76.580,-140.280,17202.258,2745.800,-7.477,-2.105,-0.840,3.279,-0.049,-0.064,-2139.000,-3910.000,2413.000,-0.599,-0.430,0.608,-0.295,0.0000000,0.0000000,0.000,0.000,0.000,0.000,0,00:00:00,0.013,2.521,8.089,-167.723,5.370,8.293,-0.046,0.034,-3.302,-39.925,5.843,21.789,91219.000,18.505,0.038,-0.021,0.115,0.296,0.024,0.122,-7.241,0,2918.000,9042.000,6579.000,653.000,0.000,2.000,-93.000,16.000,1315.0
925.764,3,nan,nan,nan,nan,nan,nan,0.692,-0.119,-2.130,35.000,-nan,nan,912.349,14.276,875.614,919.242,76.300,-140.260,17221.144,2764.686,-7.635,-0.797,-0.740,3.396,-0.156,-0.121,-2456.000,-3953.000,1922.000,-0.614,-0.388,0.639,-0.253,0.0000000,0.0000000,0.000,0.000,0.000,0.000,0,00:00:00,-0.826,1.909,7.828,-176.252,6.653,7.365,-0.061,0.006,-3.332,-41.891,2.410,21.284,91102.008,18.505,0.044,-0.018,0.094,0.343,-0.015,0.117,-8.394,0,2918.000,9042.000,6579.000,653.000,0.000,2.000,-93.000,16.000,1315
925.805,3,nan,nan,nan,nan,nan,nan,2.365,0.227,-2.841,35.000,-nan,nan,910.764,14.265,889.978,933.605,75.720,-140.280,17260.445,2803.987,-7.082,0.180,-2.004,3.296,-0.006,-0.124,-2456.000,-3953.000,1922.000,-0.628,-0.347,0.664,-0.211,0.0000000,0.0000000,0.000,0.000,0.000,0.000,0,00:00:00,-0.885,1.663,7.743,176.691,7.578,6.445,-0.080,0.021,-3.214,-43.070,-0.540,21.777,91011.000,18.507,0.039,-0.029,0.080,0.300,-0.037,0.094,-7.343,0,3057.000,8995.000,6578.000,640.000,0.000,1.000,-80.000,53.000,1375.0
925.846,3,nan,nan,nan,nan,nan,nan,0.304,-0.636,-2.179,35.000,-nan,nan,909.255,14.265,903.678,947.306,75.540,-140.250,17272.691,2816.233,-7.614,-0.862,0.115,3.160,0.038,-0.081,-2456.000,-3953.000,1922.000,-0.640,-0.305,0.684,-0.169,0.0000000,0.0000000,0.000,0.000,0.000,0.000,0,00:00:00,-0.501,1.643,7.787,169.151,8.395,5.301,-0.006,-0.005,-3.279,-43.810,-3.899,21.037,90935.008,18.505,0.041,-0.009,0.113,0.318,-0.091,0.056,-7.796,0,3057.000,8995.000,6578.000,640.000,0.000,1.000,-80.000,53.000,1375.
925.887,3,nan,nan,nan,nan,nan,nan,1.477,0.765,-3.096,35.000,-nan,nan,909.255,14.267,903.675,947.303,74.680,-140.290,17331.529,2875.072,-6.630,-1.235,-1.537,3.258,0.034,-0.072,-2602.000,-3899.000,1298.000,-0.650,-0.261,0.702,-0.126,0.0000000,0.0000000,0.000,0.000,0.000,0.000,0,00:00:00,-0.156,0.877,7.560,160.659,9.131,3.936,-0.001,0.058,-3.276,-43.796,-8.364,20.991,90852.008,18.508,0.044,-0.007,0.017,0.333,-0.042,0.070,-8.242,0,3057.000,8995.000,6578.000,640.000,0.000,1.000,-80.000,53.000,1375.0
925.928,3,nan,nan,nan,nan,nan,nan,1.495,-2.849,-2.759,35.000,-nan,nan,907.765,14.270,917.218,960.846,74.100,-140.300,17371.522,2915.064,-7.571,1.652,0.158,3.317,-0.026,-0.311,-2602.000,-3899.000,1298.000,-0.655,-0.218,0.719,-0.079,0.0000000,0.0000000,0.000,0.000,0.000,0.000,0,00:00:00,0.755,0.832,7.752,153.580,9.613,2.754,0.032,0.079,-3.272,-43.983,-11.832,20.982,90765.008,18.508,0.038,0.027,0.041,0.284,-0.017,0.081,-7.044,0,3057.000,8995.000,6578.000,640.000,0.000,1.000,-80.000,53.000,1375.000
925.969,3,nan,nan,nan,nan,nan,nan,1.319,-0.763,-1.021,35.000,-nan,nan,907.765,14.270,917.218,960.846,73.720,-140.290,17397.861,2941.403,-8.792,0.424,-1.444,3.328,0.092,0.006,-2506.000,-3966.000,592.000,-0.711,-0.136,0.686,-0.076,0.0000000,0.0000000,0.000,0.000,0.000,0.000,0,00:00:00,0.348,1.565,7.536,145.032,10.091,1.286,-0.012,0.098,-3.253,-43.173,-15.519,20.725,90648.000,18.500,0.044,0.039,0.053,0.325,0.009,0.191,-8.252,0,3057.000,8995.000,6578.000,640.000,0.000,1.000,-80.000,53.000,1375.000,
926.010,3,nan,nan,nan,nan,nan,nan,2.242,0.423,-2.591,35.000,-nan,nan,906.283,14.273,930.712,974.340,73.180,-140.300,17435.481,2979.023,-7.104,-0.682,-2.528,3.283,-0.026,-0.134,-2506.000,-3966.000,592.000,-0.713,-0.092,0.694,-0.027,0.0000000,0.0000000,0.000,0.000,0.000,0.000,0,00:00:00,-0.288,0.622,7.560,137.835,10.360,0.003,0.018,0.118,-3.315,-42.362,-19.207,20.103,90557.008,18.500,0.039,0.008,0.055,0.288,0.014,0.205,-7.365,0,3222.000,8941.000,6579.000,627.000,0.000,1.000,-81.000,42.000,1390.00
926.051,3,nan,nan,nan,nan,nan,nan,-0.815,1.812,-2.196,35.000,-nan,nan,904.740,14.276,944.770,988.398,72.770,-140.300,17464.194,3007.737,-7.398,-2.622,0.553,3.270,0.115,-0.192,-2506.000,-3966.000,592.000,-0.714,-0.050,0.698,0.023,0.0000000,0.0000000,0.000,0.000,0.000,0.000,0,00:00:00,-1.726,0.072,7.706,129.732,10.444,-1.480,-0.093,0.081,-3.169,-40.650,-22.317,20.482,90470.000,18.503,0.044,-0.047,0.060,0.322,-0.010,0.205,-8.261,0,3222.000,8941.000,6579.000,627.000,0.000,1.000,-81.000,42.000,1390.
926.092,3,nan,nan,nan,nan,nan,nan,1.461,0.271,-2.414,35.000,-nan,nan,904.740,14.276,944.770,988.398,72.320,-140.300,17495.860,3039.402,-7.298,-1.200,-1.487,3.236,-0.104,-0.062,-2360.000,-3992.000,39.000,-0.710,-0.006,0.701,0.070,0.0000000,0.0000000,0.000,0.000,0.000,0.000,0,00:00:00,-1.150,1.919,7.158,122.176,10.280,-2.829,0.055,0.009,-3.262,-39.153,-25.126,19.896,90391.008,18.508,0.039,-0.048,0.065,0.284,0.021,0.118,-7.233,0,3222.000,8941.000,6579.000,627.000,0.000,1.000,-81.000,42.000,1390.00
926.133,3,nan,nan,nan,nan,nan,nan,2.219,-0.413,-2.426,35.000,-nan,nan,903.249,14.259,958.383,1002.011,72.060,-140.290,17514.229,3057.771,-7.348,-0.869,-2.205,3.164,-0.021,0.017,-2360.000,-3992.000,39.000,-0.704,0.038,0.700,0.115,0.0000000,0.0000000,0.000,0.000,0.000,0.000,0,00:00:00,-1.879,2.857,7.397,114.720,9.890,-4.159,-0.017,-0.012,-3.187,-36.881,-28.150,19.550,90308.008,18.500,0.040,-0.045,0.082,0.293,-0.011,0.069,-7.399,0,3222.000,8941.000,6579.000,627.000,0.000,1.000,-81.000,42.000,1390.
926.174,3,nan,nan,nan,nan,nan,nan,0.619,0.002,-2.306,35.000,-nan,nan,901.787,14.259,971.736,1015.364,71.480,-140.300,17555.399,3098.941,-7.449,-1.027,-0.388,3.189,-0.130,-0.085,-1931.000,-4029.000,-461.000,-0.693,0.081,0.698,0.161,0.0000000,0.0000000,0.000,0.000,0.000,0.000,0,00:00:00,-1.035,1.928,7.469,106.415,9.175,-5.616,-0.011,-0.021,-3.207,-33.932,-30.689,19.957,90198.008,18.508,0.044,-0.044,0.101,0.318,-0.063,0.000,-8.045,0,3222.000,8941.000,6579.000,627.000,0.000,1.000,-81.000,42.000,139
926.215,3,nan,nan,nan,nan,nan,nan,1.600,-1.638,-3.268,35.000,-nan,nan,901.788,14.267,971.727,1015.355,70.930,-140.310,17594.690,3138.233,-6.659,0.022,-1.925,3.249,0.066,-0.043,-1931.000,-4029.000,-461.000,-0.682,0.126,0.690,0.206,0.0000000,0.0000000,0.000,0.000,0.000,0.000,0,00:00:00,0.085,1.884,7.600,99.554,8.438,-6.722,-0.043,0.033,-3.147,-31.414,-32.626,19.653,90119.000,18.505,0.039,0.009,0.054,0.278,-0.041,0.010,-7.095,0,3222.000,8941.000,6579.000,627.000,0.000,1.000,-81.000,42.000,1390.000
926.256,3,nan,nan,nan,nan,nan,nan,2.186,-1.473,-3.187,35.000,-nan,nan,900.349,14.278,984.899,1028.527,70.520,-140.310,17624.142,3167.684,-6.723,-0.697,-2.263,3.226,-0.130,0.006,-1465.000,-4096.000,-765.000,-0.666,0.170,0.682,0.249,0.0000000,0.0000000,0.000,0.000,0.000,0.000,0,00:00:00,0.396,0.467,6.927,91.808,7.462,-7.868,-0.048,0.016,-3.135,-28.332,-34.178,19.488,90013.000,18.490,0.044,0.011,0.077,0.309,-0.057,0.022,-8.015,0,3353.000,8898.000,6578.000,615.000,0.000,-3.000,-69.000,32.000,1238.0
926.297,3,nan,nan,nan,nan,nan,nan,0.056,-0.338,-3.240,35.000,-nan,nan,900.349,14.278,984.899,1028.527,70.090,-140.320,17655.178,3198.721,-6.565,-0.381,0.180,3.179,0.000,0.049,-1465.000,-4096.000,-765.000,-0.648,0.213,0.671,0.290,0.0000000,0.0000000,0.000,0.000,0.000,0.000,0,00:00:00,0.472,0.968,7.231,84.536,6.428,-8.782,-0.002,-0.020,-3.158,-24.689,-35.542,19.455,89933.008,18.500,0.039,0.000,0.049,0.273,-0.028,0.036,-7.102,0,3353.000,8898.000,6578.000,615.000,0.000,-3.000,-69.000,32.000,1238.00
926.338,3,nan,nan,nan,nan,nan,nan,1.923,-0.650,-2.284,35.000,-nan,nan,898.885,14.265,998.309,1041.937,69.650,-140.310,17687.097,3230.639,-7.528,-1.652,-1.171,3.211,0.060,-0.032,-1465.000,-4096.000,-765.000,-0.629,0.256,0.654,0.332,0.0000000,0.0000000,0.000,0.000,0.000,0.000,0,00:00:00,0.130,1.458,6.832,77.359,5.311,-9.571,-0.018,-0.007,-3.131,-21.809,-36.197,19.201,89854.000,18.500,0.040,-0.011,0.077,0.279,-0.040,0.045,-7.274,0,3353.000,8898.000,6578.000,615.000,0.000,-3.000,-69.000,32.000,1238
926.379,3,nan,nan,nan,nan,nan,nan,0.912,-2.395,-1.742,35.000,-nan,nan,897.453,14.265,1011.451,1055.078,69.240,-140.320,17716.986,3260.529,-7.966,0.194,-2.859,3.140,-0.134,-0.181,-923.000,-4070.000,-952.000,-0.646,0.325,0.602,0.340,0.0000000,0.0000000,0.000,0.000,0.000,0.000,0,00:00:00,-0.096,2.420,7.333,69.209,3.936,-10.325,0.014,0.062,-3.252,-18.033,-36.572,19.206,89740.008,18.500,0.044,0.007,0.088,0.306,-0.080,0.061,-8.066,0,3353.000,8898.000,6578.000,615.000,0.000,-3.000,-69.000,32.000,1238.
926.420,3,nan,nan,nan,nan,nan,nan,0.750,-0.335,-3.113,35.000,-nan,nan,897.453,14.272,1011.443,1055.071,68.980,-140.300,17736.015,3279.557,-6.630,-0.905,-0.869,3.245,-0.075,-0.111,-923.000,-4070.000,-952.000,-0.622,0.361,0.579,0.383,0.0000000,0.0000000,0.000,0.000,0.000,0.000,0,00:00:00,0.611,1.193,6.941,62.403,2.725,-10.813,-0.020,0.063,-3.209,-14.469,-36.446,19.228,89684.008,18.500,0.039,0.008,0.067,0.267,-0.084,0.074,-7.180,0,3353.000,8898.000,6578.000,615.000,0.000,-3.000,-69.000,32.000,1238
926.461,3,nan,nan,nan,nan,nan,nan,1.114,-1.391,-3.818,35.000,-nan,nan,896.044,14.276,1024.387,1068.015,68.420,-140.310,17777.198,3320.740,-5.904,-0.941,-1.824,3.113,-0.100,0.055,-385.000,-4117.000,-876.000,-0.596,0.397,0.558,0.421,0.0000000,0.0000000,0.000,0.000,0.000,0.000,0,00:00:00,-0.616,1.165,6.751,54.770,1.298,-11.203,-0.080,-0.014,-3.167,-11.114,-35.722,18.907,89582.000,18.500,0.044,-0.014,0.080,0.300,-0.123,0.069,-8.026,0,3507.000,8847.000,6576.000,604.000,0.000,-1.000,-83.000,21.000,10
926.502,3,nan,nan,nan,nan,nan,nan,-1.975,-1.943,-3.424,35.000,-nan,nan,894.618,14.276,1037.509,1081.137,67.990,-140.320,17809.006,3352.549,-6.500,1.925,-1.580,3.245,-0.068,-0.051,-385.000,-4117.000,-876.000,-0.567,0.431,0.531,0.460,0.0000000,0.0000000,0.000,0.000,0.000,0.000,0,00:00:00,-0.043,0.368,7.119,47.668,-0.068,-11.365,-0.007,0.034,-3.139,-8.093,-34.990,19.193,89502.008,18.500,0.039,-0.002,0.024,0.263,-0.053,0.063,-7.053,0,3507.000,8847.000,6576.000,604.000,0.000,-1.000,-83.000,21.000,10
926.543,3,nan,nan,nan,nan,nan,nan,1.126,-2.249,-3.753,35.000,-nan,nan,894.618,14.279,1037.504,1081.132,67.300,-140.340,17860.389,3403.932,-5.976,-1.358,-2.334,3.204,-0.111,-0.117,122.000,-4112.000,-692.000,-0.536,0.462,0.503,0.497,0.0000000,0.0000000,0.000,0.000,0.000,0.000,0,00:00:00,-1.080,1.656,6.925,40.580,-1.453,-11.348,0.000,0.021,-3.132,-4.943,-33.469,18.779,89411.000,18.500,0.040,-0.023,0.085,0.271,-0.074,0.055,-7.271,0,3507.000,8847.000,6576.000,604.000,0.000,-1.000,-83.000,21.000,1097
926.584,3,nan,nan,nan,nan,nan,nan,-1.570,-1.076,-2.321,35.000,-nan,nan,893.215,14.277,1050.426,1094.054,67.310,-140.300,17859.642,3403.184,-7.571,1.049,-1.135,3.064,0.168,0.151,122.000,-4112.000,-692.000,-0.505,0.495,0.473,0.526,0.0000000,0.0000000,0.000,0.000,0.000,0.000,0,00:00:00,-0.343,2.832,6.896,32.670,-2.996,-11.163,-0.077,0.034,-3.118,-2.117,-31.444,18.869,89317.000,18.490,0.044,-0.002,0.071,0.293,-0.101,0.042,-7.881,0,3507.000,8847.000,6576.000,604.000,0.000,-1.000,-83.000,21.000,1097.
926.625,3,nan,nan,nan,nan,nan,nan,-1.366,-1.327,-3.626,35.000,-nan,nan,893.215,14.277,1050.426,1094.054,66.510,-140.340,17919.746,3463.288,-6.256,0.733,-1.480,3.136,-0.009,-0.019,122.000,-4112.000,-692.000,-0.471,0.523,0.441,0.557,0.0000000,0.0000000,0.000,0.000,0.000,0.000,0,00:00:00,1.184,0.568,6.113,26.048,-4.230,-10.837,-0.017,0.020,-3.136,0.600,-29.317,19.085,89219.000,18.500,0.039,0.036,0.064,0.256,-0.085,0.066,-6.995,0,3507.000,8847.000,6576.000,604.000,0.000,-1.000,-83.000,21.000,1097.0
926.666,3,nan,nan,nan,nan,nan,nan,0.785,-2.755,-3.350,35.000,-nan,nan,891.847,14.264,1063.043,1106.670,66.410,-140.310,17927.300,3470.842,-6.400,-1.939,-2.284,3.113,-0.077,0.000,505.000,-4083.000,-352.000,-0.435,0.549,0.408,0.586,0.0000000,0.0000000,0.000,0.000,0.000,0.000,0,00:00:00,-1.607,2.060,6.772,18.546,-5.564,-10.314,-0.060,0.024,-3.102,2.997,-26.588,19.200,89162.000,18.500,0.044,-0.029,0.079,0.292,-0.108,0.075,-7.862,0,3639.000,8804.000,6577.000,592.000,0.000,4.000,-73.000,20.000,1083.0
926.707,3,nan,nan,nan,nan,nan,nan,-1.542,-0.870,-3.785,35.000,-nan,nan,890.424,14.264,1076.176,1119.804,66.110,-140.300,17950.018,3493.560,-6.127,0.661,-1.207,3.162,-0.187,-0.181,505.000,-4083.000,-352.000,-0.397,0.570,0.373,0.616,0.0000000,0.0000000,0.000,0.000,0.000,0.000,0,00:00:00,-0.169,2.267,6.344,11.542,-6.770,-9.715,-0.111,0.048,-3.056,4.506,-23.743,19.192,89060.008,18.490,0.039,-0.024,0.082,0.253,-0.139,0.033,-6.894,0,3639.000,8804.000,6577.000,592.000,0.000,4.000,-73.000,20.000,1083.0
926.748,3,nan,nan,nan,nan,nan,nan,-0.899,-1.785,-4.678,35.000,-nan,nan,890.425,14.267,1076.172,1119.800,65.420,-140.330,18002.588,3546.130,-5.193,-0.467,-1.774,2.964,0.013,-0.072,793.000,-4107.000,167.000,-0.361,0.590,0.337,0.638,0.0000000,0.0000000,0.000,0.000,0.000,0.000,0,00:00:00,-0.288,1.377,6.616,4.077,-8.016,-8.936,-0.086,-0.002,-3.114,6.460,-20.906,19.309,88958.008,18.500,0.043,-0.006,0.070,0.276,-0.166,-0.016,-7.555,0,3639.000,8804.000,6577.000,592.000,0.000,4.000,-73.000,20.000,1083.0
926.789,3,nan,nan,nan,nan,nan,nan,-0.753,-1.027,-3.450,35.000,-nan,nan,889.025,14.269,1089.114,1132.742,65.040,-140.330,18031.731,3575.273,-6.407,-0.366,-0.941,3.011,-0.064,0.128,793.000,-4107.000,167.000,-0.320,0.609,0.303,0.659,0.0000000,0.0000000,0.000,0.000,0.000,0.000,0,00:00:00,-0.453,0.859,6.534,-2.936,-9.044,-8.033,-0.075,0.042,-3.022,7.535,-17.556,19.196,88901.000,18.500,0.039,0.009,0.039,0.247,-0.126,0.022,-6.835,0,3639.000,8804.000,6577.000,592.000,0.000,4.000,-73.000,20.000,1083.000
926.830,3,nan,nan,nan,nan,nan,nan,-0.224,-0.517,-1.168,35.000,-nan,nan,887.675,14.269,1101.611,1145.239,64.490,-140.340,18074.158,3617.700,-8.619,-0.711,-0.453,3.047,0.160,0.096,793.000,-4107.000,167.000,-0.291,0.641,0.255,0.663,0.0000000,0.0000000,0.000,0.000,0.000,0.000,0,00:00:00,-1.096,0.342,6.557,-9.967,-9.990,-6.992,-0.080,0.003,-2.985,8.605,-14.403,19.564,88833.008,18.490,0.041,-0.030,0.059,0.264,-0.113,-0.019,-7.267,0,3639.000,8804.000,6577.000,592.000,0.000,4.000,-73.000,20.000,1083.00
926.871,3,nan,nan,nan,nan,nan,nan,-1.500,-1.131,-3.058,35.000,-nan,nan,887.674,14.261,1101.620,1145.248,64.230,-140.330,18094.315,3637.858,-6.766,-0.323,-1.796,3.087,0.083,0.079,948.000,-4097.000,815.000,-0.249,0.657,0.216,0.678,0.0000000,0.0000000,0.000,0.000,0.000,0.000,0,00:00:00,-0.050,2.145,6.430,-17.442,-10.842,-5.728,-0.007,0.003,-3.039,9.017,-10.841,19.334,88719.000,18.485,0.044,0.007,0.055,0.276,-0.079,-0.018,-7.670,0,3639.000,8804.000,6577.000,592.000,0.000,4.000,-73.000,20.000,1083.0
926.912,3,nan,nan,nan,nan,nan,nan,-0.734,-1.159,-2.356,35.000,-nan,nan,886.312,14.262,1114.239,1157.867,63.710,-140.340,18134.831,3678.373,-7.434,-1.020,-1.063,2.974,-0.100,-0.092,948.000,-4097.000,815.000,-0.209,0.667,0.175,0.693,0.0000000,0.0000000,0.000,0.000,0.000,0.000,0,00:00:00,1.268,0.810,6.080,-24.405,-11.468,-4.479,-0.056,0.002,-2.983,9.210,-7.075,19.720,88640.008,18.500,0.039,0.022,0.053,0.242,-0.084,-0.001,-6.685,0,3788.000,8756.000,6576.000,581.000,0.000,3.000,-68.000,1.000,1165.00
926.953,3,nan,nan,nan,nan,nan,nan,-0.865,-0.172,-4.356,35.000,-nan,nan,886.312,14.262,1114.239,1157.867,63.120,-140.350,18181.126,3724.668,-5.481,-0.122,-0.690,2.983,-0.028,-0.179,922.000,-4052.000,1428.000,-0.170,0.675,0.133,0.705,0.0000000,0.0000000,0.000,0.000,0.000,0.000,0,00:00:00,-0.470,0.528,6.033,-31.783,-11.928,-3.014,-0.002,0.021,-2.968,8.621,-3.492,19.730,88549.000,18.500,0.042,-0.012,0.018,0.264,-0.018,0.027,-7.294,0,3788.000,8756.000,6576.000,581.000,0.000,3.000,-68.000,1.000,1165.
926.994,3,nan,nan,nan,nan,nan,nan,-1.973,0.006,-4.420,35.000,-nan,nan,884.970,14.256,1126.691,1170.319,62.920,-140.340,18196.898,3740.441,-5.473,0.294,-1.702,3.000,0.147,-0.049,922.000,-4052.000,1428.000,-0.128,0.684,0.091,0.712,0.0000000,0.0000000,0.000,0.000,0.000,0.000,0,00:00:00,0.402,2.310,6.279,-38.766,-12.161,-1.567,0.021,0.007,-3.024,7.798,-0.401,19.720,88455.000,18.480,0.039,0.007,0.051,0.240,-0.000,0.053,-6.661,0,3788.000,8756.000,6576.000,581.000,0.000,3.000,-68.000,1.000,1165.000,17
927.035,3,nan,nan,nan,nan,nan,nan,-1.441,0.292,-3.527,35.000,-nan,nan,883.621,14.256,1139.224,1182.852,62.690,-140.330,18215.087,3758.629,-6.357,0.180,-1.092,2.987,-0.079,-0.168,775.000,-4044.000,1943.000,-0.088,0.686,0.048,0.720,0.0000000,0.0000000,0.000,0.000,0.000,0.000,0,00:00:00,-1.037,1.879,6.192,-45.751,-12.233,-0.108,0.023,-0.038,-3.019,6.644,2.797,19.835,88390.008,18.500,0.041,-0.008,0.067,0.254,-0.005,0.041,-7.087,0,3788.000,8756.000,6576.000,581.000,0.000,3.000,-68.000,1.000,1165.000
927.076,3,nan,nan,nan,nan,nan,nan,-3.268,-0.842,-4.747,35.000,-nan,nan,883.621,14.259,1139.220,1182.848,62.100,-140.340,18261.994,3805.536,-5.186,-0.927,-3.046,2.985,-0.102,-0.219,775.000,-4044.000,1943.000,-0.048,0.686,0.004,0.726,0.0000000,0.0000000,0.000,0.000,0.000,0.000,0,00:00:00,-1.721,1.728,6.265,-53.154,-12.093,1.381,-0.052,0.004,-2.968,4.808,5.415,20.412,88319.008,18.480,0.044,-0.014,0.094,0.270,-0.062,0.065,-7.506,0,3788.000,8756.000,6576.000,581.000,0.000,3.000,-68.000,1.000,1165.00
927.117,3,nan,nan,nan,nan,nan,nan,0.663,0.329,-4.070,35.000,-nan,nan,882.277,14.254,1151.728,1195.356,61.730,-140.340,18291.594,3835.137,-5.703,0.000,0.984,2.921,0.060,-0.136,775.000,-4044.000,1943.000,-0.007,0.686,-0.038,0.727,0.0000000,0.0000000,0.000,0.000,0.000,0.000,0,00:00:00,0.652,1.053,5.865,-60.071,-11.835,2.761,-0.032,0.043,-2.919,3.207,8.522,20.033,88232.000,18.495,0.039,-0.014,0.032,0.233,-0.050,0.033,-6.600,0,3913.000,8715.000,6576.000,569.000,0.000,-1.000,-67.000,-3.000,1071.000,1
927.158,3,nan,nan,nan,nan,nan,nan,-1.787,1.070,-4.873,35.000,-nan,nan,882.277,14.254,1151.728,1195.356,61.330,-140.340,18323.757,3867.299,-5.085,0.488,-1.616,3.040,0.036,0.011,443.000,-3986.000,2537.000,0.037,0.683,-0.079,0.725,0.0000000,0.0000000,0.000,0.000,0.000,0.000,0,00:00:00,0.270,0.410,5.756,-66.886,-11.378,4.085,-0.014,0.043,-2.911,1.145,10.946,20.357,88160.000,18.480,0.040,0.032,0.031,0.236,-0.034,0.069,-6.744,0,3913.000,8715.000,6576.000,569.000,0.000,-1.000,-67.000,-3.000,1071.000,1
927.199,3,nan,nan,nan,nan,nan,nan,0.914,1.038,-4.340,35.000,-nan,nan,880.945,14.256,1164.136,1207.764,60.840,-140.350,18363.388,3906.930,-5.473,0.977,0.963,2.938,0.055,-0.089,443.000,-3986.000,2537.000,0.079,0.678,-0.121,0.721,0.0000000,0.0000000,0.000,0.000,0.000,0.000,0,00:00:00,0.407,-0.795,5.971,-74.477,-10.615,5.590,0.043,0.081,-2.896,-1.803,13.586,20.929,88046.008,18.480,0.044,0.032,-0.011,0.257,0.070,0.145,-7.327,0,3913.000,8715.000,6576.000,569.000,0.000,-1.000,-67.000,-3.000,1071.000,1
927.240,3,nan,nan,nan,nan,nan,nan,-0.648,1.991,-4.289,35.000,-nan,nan,879.667,14.266,1176.043,1219.671,60.610,-140.340,18382.080,3925.622,-5.674,1.314,-0.970,2.944,0.053,-0.136,54.000,-3977.000,2821.000,0.119,0.671,-0.162,0.714,0.0000000,0.0000000,0.000,0.000,0.000,0.000,0,00:00:00,1.511,-0.211,5.736,-80.787,-9.754,6.829,0.039,0.116,-2.935,-4.321,15.422,20.375,87978.008,18.485,0.039,0.036,-0.034,0.224,0.137,0.205,-6.527,0,3913.000,8715.000,6576.000,569.000,0.000,-1.000,-67.000,-3.000,1071.000,1
927.281,3,nan,nan,nan,nan,nan,nan,0.589,0.347,-3.548,35.000,-nan,nan,879.667,14.266,1176.043,1219.671,60.010,-140.360,18431.113,3974.655,-6.242,0.266,0.804,2.942,0.087,-0.339,54.000,-3977.000,2821.000,0.157,0.662,-0.206,0.703,0.0000000,0.0000000,0.000,0.000,0.000,0.000,0,00:00:00,-1.077,0.750,6.089,-87.975,-8.527,8.137,0.101,0.118,-2.946,-7.731,17.278,20.794,87910.000,18.480,0.044,0.027,0.031,0.255,0.184,0.305,-7.458,0,3913.000,8715.000,6576.000,569.000,0.000,-1.000,-67.000,-3.000,1071.000,1711
927.322,3,nan,nan,nan,nan,nan,nan,-2.036,-1.096,-3.606,35.000,-nan,nan,878.388,14.256,1187.984,1231.612,59.620,-140.360,18463.197,4006.739,-6.163,-2.363,-0.517,2.970,0.117,-0.006,-421.000,-3922.000,3156.000,0.198,0.650,-0.244,0.691,0.0000000,0.0000000,0.000,0.000,0.000,0.000,0,00:00:00,-1.131,-0.192,6.049,-94.712,-7.271,9.233,0.070,0.109,-2.948,-10.705,18.628,20.585,87823.008,18.485,0.039,-0.039,0.010,0.227,0.175,0.243,-6.622,0,4057.000,8669.000,6576.000,558.000,0.000,-6.000,-69.000,-16.000,167
927.363,3,nan,nan,nan,nan,nan,nan,-1.522,-0.042,-4.625,35.000,-nan,nan,877.095,14.256,1200.069,1243.697,59.330,-140.350,18487.165,4030.707,-5.200,-1.300,-0.682,2.970,0.111,-0.211,-421.000,-3922.000,3156.000,0.237,0.637,-0.285,0.676,0.0000000,0.0000000,0.000,0.000,0.000,0.000,0,00:00:00,-1.431,1.587,5.696,-101.765,-5.858,10.201,0.056,0.067,-2.918,-14.027,19.391,20.597,87740.008,18.480,0.042,-0.058,0.058,0.246,0.172,0.218,-7.189,0,4057.000,8669.000,6576.000,558.000,0.000,-6.000,-69.000,-16.000,16
927.404,3,nan,nan,nan,nan,nan,nan,-2.115,0.448,-4.039,35.000,-nan,nan,877.095,14.249,1200.077,1243.705,58.700,-140.380,18539.562,4083.105,-5.840,-1.544,-1.221,2.923,-0.049,-0.062,-421.000,-3922.000,3156.000,0.275,0.619,-0.323,0.661,0.0000000,0.0000000,0.000,0.000,0.000,0.000,0,00:00:00,-1.239,0.699,5.705,-108.286,-4.513,10.896,-0.015,0.054,-2.835,-17.353,19.956,20.967,87683.008,18.480,0.037,-0.043,0.064,0.218,0.104,0.133,-6.262,0,4057.000,8669.000,6576.000,558.000,0.000,-6.000,-69.000,-16.000,1
927.445,3,nan,nan,nan,nan,nan,nan,-2.775,0.902,-4.296,35.000,-nan,nan,875.783,14.251,1212.352,1255.980,58.320,-140.380,18571.388,4114.930,-5.639,-1.961,-1.810,2.776,0.021,0.009,-973.000,-3875.000,3170.000,0.311,0.600,-0.356,0.645,0.0000000,0.0000000,0.000,0.000,0.000,0.000,0,00:00:00,-2.123,1.226,5.899,-114.760,-3.201,11.413,0.029,0.006,-2.848,-20.467,20.019,20.588,87581.000,18.465,0.041,-0.072,0.068,0.238,0.094,0.047,-6.844,0,4057.000,8669.000,6576.000,558.000,0.000,-6.000,-69.000,-16.000,1674
927.486,3,nan,nan,nan,nan,nan,nan,-2.008,0.194,-4.101,35.000,-nan,nan,875.783,14.251,1212.352,1255.980,57.930,-140.380,18604.226,4147.768,-5.739,-1.846,-0.560,2.906,-0.066,-0.217,-973.000,-3875.000,3170.000,0.345,0.579,-0.394,0.625,0.0000000,0.0000000,0.000,0.000,0.000,0.000,0,00:00:00,-2.560,2.012,5.887,-121.518,-1.901,11.753,0.003,-0.066,-2.809,-23.710,19.293,20.666,87513.000,18.480,0.044,-0.091,0.082,0.249,0.043,-0.080,-7.120,0,4057.000,8669.000,6576.000,558.000,0.000,-6.000,-69.000,-16.000,
927.527,3,nan,nan,nan,nan,nan,nan,0.784,1.950,-4.692,35.000,-nan,nan,874.495,14.260,1224.420,1268.048,57.620,-140.380,18630.455,4173.998,-5.258,1.350,-1.070,2.810,0.009,0.045,-1431.000,-3850.000,3113.000,0.380,0.556,-0.425,0.605,0.0000000,0.0000000,0.000,0.000,0.000,0.000,0,00:00:00,-0.510,1.445,5.661,-127.806,-0.712,11.925,0.029,-0.056,-2.793,-26.395,18.654,20.872,87434.008,18.480,0.039,-0.018,0.050,0.219,0.049,-0.110,-6.243,0,4057.000,8669.000,6576.000,558.000,0.000,-6.000,-69.000,-16.000,167
927.568,3,nan,nan,nan,nan,nan,nan,1.444,-0.013,-4.476,35.000,-nan,nan,873.243,14.260,1236.158,1279.786,57.040,-140.390,18679.839,4223.381,-5.279,1.393,0.848,2.761,0.072,0.055,-1431.000,-3850.000,3113.000,0.414,0.532,-0.454,0.582,0.0000000,0.0000000,0.000,0.000,0.000,0.000,0,00:00:00,0.629,1.404,5.573,-134.486,0.545,11.956,-0.003,-0.100,-2.810,-29.538,17.429,20.810,87332.000,18.480,0.043,0.003,0.059,0.236,0.027,-0.135,-6.841,0,4178.000,8630.000,6576.000,547.000,0.000,-12.000,-68.000,13.000,1277.
927.609,3,nan,nan,nan,nan,nan,nan,1.468,2.662,-3.975,35.000,-nan,nan,873.242,14.247,1236.174,1279.802,56.640,-140.390,18714.134,4257.676,-6.012,1.882,-1.896,2.742,-0.017,0.028,-1431.000,-3850.000,3113.000,0.446,0.506,-0.482,0.559,0.0000000,0.0000000,0.000,0.000,0.000,0.000,0,00:00:00,1.089,2.596,5.449,-140.820,1.833,11.810,-0.019,-0.026,-2.842,-32.123,16.192,20.385,87252.008,18.465,0.039,0.039,0.086,0.212,-0.001,-0.031,-6.316,0,4178.000,8630.000,6576.000,547.000,0.000,-12.000,-68.000,13.000,127
927.650,3,nan,nan,nan,nan,nan,nan,-1.168,1.831,-4.876,35.000,-nan,nan,871.935,14.252,1248.449,1292.077,56.280,-140.390,18745.168,4288.710,-5.100,-0.984,-1.444,2.744,0.132,0.151,-1836.000,-3865.000,2917.000,0.478,0.479,-0.506,0.534,0.0000000,0.0000000,0.000,0.000,0.000,0.000,0,00:00:00,0.982,1.791,5.311,-147.616,3.264,11.431,-0.046,0.068,-2.852,-34.619,14.063,20.902,87188.000,18.500,0.044,0.062,0.100,0.238,-0.064,0.047,-7.194,0,4178.000,8630.000,6576.000,547.000,0.000,-12.000,-68.000,13.000,1277
927.691,3,nan,nan,nan,nan,nan,nan,1.970,2.763,-5.076,35.000,-nan,nan,870.678,14.252,1260.265,1303.893,55.860,-140.400,18781.577,4325.119,-4.884,1.918,-2.528,2.876,-0.053,0.115,-1836.000,-3865.000,2917.000,0.509,0.447,-0.532,0.508,0.0000000,0.0000000,0.000,0.000,0.000,0.000,0,00:00:00,0.455,1.459,5.297,-153.628,4.514,10.894,-0.098,0.071,-2.816,-37.113,11.932,20.565,87112.008,18.470,0.039,0.040,0.077,0.208,-0.124,0.072,-6.380,0,4178.000,8630.000,6576.000,547.000,0.000,-12.000,-68.000,13.000,1277.
927.732,3,nan,nan,nan,nan,nan,nan,1.655,1.140,-4.285,35.000,-nan,nan,870.677,14.247,1260.272,1303.900,55.600,-140.390,18804.228,4347.770,-5.567,1.616,-0.984,2.923,-0.173,-0.232,-2250.000,-3886.000,2479.000,0.534,0.416,-0.562,0.476,0.0000000,0.0000000,0.000,0.000,0.000,0.000,0,00:00:00,1.219,0.383,5.218,-160.445,5.892,10.081,-0.084,0.056,-2.824,-39.172,9.396,20.703,87037.000,18.480,0.041,0.035,0.053,0.220,-0.181,0.136,-6.764,0,4178.000,8630.000,6576.000,547.000,0.000,-12.000,-68.000,13.000,1277.
927.773,3,nan,nan,nan,nan,nan,nan,-0.180,0.775,-4.669,35.000,-nan,nan,869.471,14.234,1271.628,1315.256,55.270,-140.390,18833.100,4376.643,-5.193,-0.172,-0.251,2.778,-0.096,-0.096,-2250.000,-3886.000,2479.000,0.557,0.385,-0.586,0.445,0.0000000,0.0000000,0.000,0.000,0.000,0.000,0,00:00:00,-0.261,0.163,5.273,-167.274,7.199,9.094,-0.102,0.090,-2.853,-41.465,6.269,20.574,86965.008,18.470,0.043,0.021,0.037,0.225,-0.192,0.167,-6.958,0,4316.000,8586.000,6575.000,536.000,0.000,3.000,-61.000,30.000,778.0
927.814,4,nan,nan,nan,nan,nan,nan,-0.553,-0.524,-4.677,35.000,-nan,nan,869.471,14.234,1271.628,1315.256,55.200,-140.360,18839.243,4382.785,-5.071,0.000,1.099,2.800,0.011,0.026,-2504.000,-3825.000,1976.000,0.582,0.351,-0.606,0.414,0.0000000,0.0000000,0.000,0.000,0.000,0.000,0,00:00:00,0.091,-0.515,5.312,-173.696,8.304,8.089,-0.042,0.078,-2.788,-42.642,3.317,20.335,86889.008,18.465,0.039,0.002,-0.003,0.204,-0.124,0.149,-6.303,0,4316.000,8586.000,6575.000,536.000,0.000,3.000,-61.000,30.000,778.000
927.857,4,nan,nan,nan,nan,nan,nan,0.303,0.115,-4.653,35.000,-nan,nan,868.250,14.240,1283.135,1326.762,54.270,-140.410,18921.454,4464.996,-5.143,0.488,0.122,2.878,-0.066,-0.222,-2504.000,-3825.000,1976.000,0.602,0.318,-0.628,0.377,0.0000000,0.0000000,0.000,0.000,0.000,0.000,0,00:00:00,-0.187,-0.161,5.377,179.093,9.420,6.886,-0.034,0.097,-2.789,-44.386,-0.119,20.075,86810.008,18.480,0.046,0.016,-0.012,0.241,-0.079,0.194,-7.469,0,4316.000,8586.000,6575.000,536.000,0.000,3.000,-61.000,30.000,778.00
927.898,4,nan,nan,nan,nan,nan,nan,-0.561,-0.256,-5.382,35.000,-nan,nan,867.070,14.240,1294.265,1337.893,54.060,-140.400,18940.176,4483.718,-4.389,-0.065,0.848,2.676,-0.043,-0.300,-2504.000,-3825.000,1976.000,0.619,0.287,-0.647,0.341,0.0000000,0.0000000,0.000,0.000,0.000,0.000,0,00:00:00,0.669,-0.081,5.071,173.015,10.244,5.835,-0.031,0.075,-2.836,-45.115,-2.880,20.211,86719.000,18.480,0.038,0.015,-0.010,0.193,-0.000,0.169,-6.078,0,4316.000,8586.000,6575.000,536.000,0.000,3.000,-61.000,30.000,778
927.939,4,nan,nan,nan,nan,nan,nan,0.769,0.947,-3.901,35.000,-nan,nan,867.071,14.249,1294.255,1337.883,53.780,-140.390,18965.230,4508.772,-5.969,0.251,-0.848,2.757,0.023,-0.011,-2667.000,-3837.000,1388.000,0.637,0.251,-0.661,0.306,0.0000000,0.0000000,0.000,0.000,0.000,0.000,0,00:00:00,-0.561,1.219,5.254,166.159,11.060,4.615,0.042,0.066,-2.796,-45.735,-5.843,19.974,86674.000,18.470,0.041,-0.008,0.014,0.212,0.060,0.204,-6.637,0,4316.000,8586.000,6575.000,536.000,0.000,3.000,-61.000,30.000,778.000,
927.980,4,nan,nan,nan,nan,nan,nan,0.381,1.609,-4.128,35.000,-nan,nan,865.841,14.236,1305.876,1349.504,53.460,-140.390,18993.992,4537.535,-5.797,-0.646,-0.998,2.785,-0.045,-0.147,-2667.000,-3837.000,1388.000,0.652,0.216,-0.676,0.269,0.0000000,0.0000000,0.000,0.000,0.000,0.000,0,00:00:00,-0.985,1.934,5.160,159.311,11.709,3.288,0.020,0.058,-2.797,-45.597,-9.714,19.707,86583.008,18.480,0.044,-0.013,0.060,0.225,0.040,0.199,-6.990,0,4434.000,8548.000,6575.000,525.000,0.000,1.000,-57.000,24.000,1216.0
928.021,4,nan,nan,nan,nan,nan,nan,0.544,1.355,-5.436,35.000,-nan,nan,864.612,14.236,1317.489,1361.117,52.870,-140.410,19047.391,4590.933,-4.468,-0.589,-0.977,2.846,0.000,-0.277,-2701.000,-3910.000,853.000,0.665,0.180,-0.688,0.228,0.0000000,0.0000000,0.000,0.000,0.000,0.000,0,00:00:00,-1.112,1.028,5.161,153.295,12.111,2.027,-0.046,0.069,-2.724,-45.664,-12.788,19.591,86522.000,18.460,0.039,-0.025,0.054,0.197,-0.007,0.141,-6.144,0,4434.000,8548.000,6575.000,525.000,0.000,1.000,-57.000,24.000,1216.
928.062,4,nan,nan,nan,nan,nan,nan,0.890,0.378,-4.878,35.000,-nan,nan,864.613,14.238,1317.487,1361.114,52.640,-140.400,19068.338,4611.880,-4.956,0.352,-0.754,2.621,0.070,-0.083,-2701.000,-3910.000,853.000,0.677,0.146,-0.696,0.191,0.0000000,0.0000000,0.000,0.000,0.000,0.000,0,00:00:00,0.242,0.901,4.881,146.121,12.394,0.472,0.001,0.038,-2.726,-44.741,-16.378,19.339,86435.008,18.480,0.044,0.001,0.043,0.221,-0.020,0.142,-6.866,0,4434.000,8548.000,6575.000,525.000,0.000,1.000,-57.000,24.000,1216.000,
928.103,4,nan,nan,nan,nan,nan,nan,0.795,0.429,-4.119,35.000,-nan,nan,863.440,14.246,1328.590,1372.218,52.440,-140.390,19086.613,4630.156,-5.710,0.230,-0.733,2.785,0.179,0.009,-2547.000,-3900.000,294.000,0.689,0.107,-0.701,0.153,0.0000000,0.0000000,0.000,0.000,0.000,0.000,0,00:00:00,-0.825,1.880,5.055,140.161,12.472,-0.835,0.011,0.041,-2.703,-44.019,-18.971,19.367,86375.008,18.470,0.038,-0.011,0.035,0.189,-0.013,0.100,-5.865,0,4434.000,8548.000,6575.000,525.000,0.000,1.000,-57.000,24.000,1216.00
928.144,4,nan,nan,nan,nan,nan,nan,0.839,0.396,-4.935,35.000,-nan,nan,863.440,14.246,1328.590,1372.218,52.080,-140.390,19119.651,4663.194,-4.892,0.129,-0.826,2.633,0.113,-0.066,-2547.000,-3900.000,294.000,0.697,0.072,-0.704,0.115,0.0000000,0.0000000,0.000,0.000,0.000,0.000,0,00:00:00,-0.613,0.427,5.020,133.460,12.391,-2.340,-0.024,0.041,-2.675,-42.748,-21.973,18.894,86284.008,18.465,0.041,-0.002,0.039,0.206,-0.047,0.115,-6.398,0,4434.000,8548.000,6575.000,525.000,0.000,1.000,-57.000,24.000,1216.
928.185,4,nan,nan,nan,nan,nan,nan,0.583,0.248,-4.589,35.000,-nan,nan,862.296,14.251,1339.433,1383.061,51.520,-140.410,19171.414,4714.956,-5.229,0.144,-0.546,2.774,-0.040,-0.104,-2547.000,-3900.000,294.000,0.702,0.034,-0.708,0.075,0.0000000,0.0000000,0.000,0.000,0.000,0.000,0,00:00:00,-0.439,1.238,4.612,126.768,12.140,-3.800,-0.054,0.043,-2.665,-41.258,-25.078,18.663,86227.008,18.465,0.044,-0.002,0.039,0.216,-0.028,0.114,-6.791,0,4434.000,8548.000,6575.000,525.000,0.000,1.000,-57.000,24.000,1216
928.226,4,nan,nan,nan,nan,nan,nan,-0.356,0.602,-5.460,35.000,-nan,nan,861.118,14.251,1350.608,1394.236,51.270,-140.400,19194.669,4738.211,-4.374,-0.366,0.374,2.772,-0.085,-0.028,-2288.000,-3911.000,-174.000,0.704,-0.005,-0.710,0.036,0.0000000,0.0000000,0.000,0.000,0.000,0.000,0,00:00:00,-0.336,1.181,5.273,120.871,11.771,-5.064,-0.015,0.031,-2.721,-39.530,-27.494,18.703,86159.008,18.460,0.039,0.004,0.037,0.192,-0.033,0.096,-6.012,0,4569.000,8505.000,6573.000,514.000,0.000,-3.000,-52.000,11.000,1
928.267,4,nan,nan,nan,nan,nan,nan,1.654,-0.515,-5.050,35.000,-nan,nan,861.116,14.241,1350.621,1394.249,50.830,-140.410,19235.822,4779.364,-4.741,0.675,-1.652,2.587,-0.051,-0.085,-2288.000,-3911.000,-174.000,0.704,-0.041,-0.709,-0.002,0.0000000,0.0000000,0.000,0.000,0.000,0.000,0,00:00:00,0.303,1.190,4.797,113.832,11.179,-6.513,-0.019,0.024,-2.685,-37.359,-30.019,18.253,86069.008,18.460,0.043,0.008,0.034,0.206,-0.026,0.111,-6.592,0,4569.000,8505.000,6573.000,514.000,0.000,-3.000,-52.000,11.000,1
928.308,4,nan,nan,nan,nan,nan,nan,0.718,0.944,-4.730,35.000,-nan,nan,859.943,14.237,1361.762,1405.390,50.630,-140.400,19254.624,4798.166,-5.136,-0.754,-0.517,2.678,-0.158,0.062,-1965.000,-4004.000,-673.000,0.700,-0.079,-0.708,-0.039,0.0000000,0.0000000,0.000,0.000,0.000,0.000,0,00:00:00,-0.021,0.841,4.679,108.005,10.559,-7.671,-0.075,0.043,-2.670,-35.176,-31.947,18.435,86012.000,18.460,0.038,-0.006,0.034,0.181,-0.044,0.101,-5.800,0,4569.000,8505.000,6573.000,514.000,0.000,-3.000,-52.000,11.000,
928.349,4,nan,nan,nan,nan,nan,nan,2.539,0.701,-5.450,35.000,-nan,nan,858.755,14.237,1373.064,1416.692,50.290,-140.400,19286.725,4830.267,-4.432,-1.121,-2.248,2.742,-0.004,-0.047,-1965.000,-4004.000,-673.000,0.697,-0.117,-0.703,-0.078,0.0000000,0.0000000,0.000,0.000,0.000,0.000,0,00:00:00,-0.798,1.722,4.992,101.049,9.657,-8.959,-0.066,0.035,-2.660,-32.666,-34.180,18.486,85936.008,18.475,0.044,-0.008,0.065,0.212,-0.050,0.110,-6.766,0,4569.000,8505.000,6573.000,514.000,0.000,-3.000,-52.000,11.000,
928.390,4,nan,nan,nan,nan,nan,nan,0.943,-0.361,-4.943,35.000,-nan,nan,858.754,14.228,1373.075,1416.703,49.890,-140.400,19324.716,4868.259,-4.863,0.215,-1.006,2.761,-0.158,-0.194,-1965.000,-4004.000,-673.000,0.690,-0.153,-0.697,-0.119,0.0000000,0.0000000,0.000,0.000,0.000,0.000,0,00:00:00,-0.265,1.670,5.066,95.322,8.775,-9.995,-0.049,0.038,-2.643,-30.140,-35.721,17.953,85864.008,18.460,0.039,0.001,0.076,0.186,-0.109,0.072,-5.957,0,4569.000,8505.000,6573.000,514.000,0.000,-3.000,-52.000,11.000,10
928.431,4,nan,nan,nan,nan,nan,nan,1.336,-0.367,-5.588,35.000,-nan,nan,857.605,14.231,1384.011,1427.639,49.430,-140.410,19368.713,4912.255,-4.231,-0.136,-1.350,2.678,-0.096,-0.190,-1532.000,-3984.000,-919.000,0.682,-0.187,-0.689,-0.159,0.0000000,0.0000000,0.000,0.000,0.000,0.000,0,00:00:00,0.774,1.658,4.483,89.268,7.722,-11.028,-0.063,-0.002,-2.677,-27.385,-36.967,18.042,85785.000,18.460,0.041,0.013,0.057,0.194,-0.157,0.080,-6.308,0,4672.000,8472.000,6574.000,504.000,0.000,5.000,-60.000,16.000,8
928.472,4,nan,nan,nan,nan,nan,nan,0.166,0.526,-4.919,35.000,-nan,nan,857.605,14.231,1384.011,1427.639,49.130,-140.420,19397.585,4941.127,-4.906,-0.359,0.158,2.663,-0.092,-0.173,-1532.000,-3984.000,-919.000,0.672,-0.221,-0.679,-0.198,0.0000000,0.0000000,0.000,0.000,0.000,0.000,0,00:00:00,0.497,0.646,4.769,82.538,6.439,-12.083,-0.093,0.038,-2.631,-23.730,-37.737,17.665,85717.000,18.460,0.044,0.020,0.058,0.207,-0.210,0.089,-6.677,0,4672.000,8472.000,6574.000,504.000,0.000,5.000,-60.000,16.000,811.
928.513,4,nan,nan,nan,nan,nan,nan,-0.077,-0.393,-6.288,35.000,-nan,nan,856.460,14.234,1394.921,1438.549,48.650,-140.430,19444.079,4987.621,-3.512,0.445,-0.180,2.761,-0.234,-0.175,-1100.000,-3997.000,-1114.000,0.658,-0.255,-0.668,-0.238,0.0000000,0.0000000,0.000,0.000,0.000,0.000,0,00:00:00,0.356,0.761,4.774,76.921,5.274,-12.846,-0.110,0.025,-2.693,-21.193,-38.782,17.273,85660.000,18.460,0.038,0.017,0.019,0.173,-0.172,0.079,-5.747,0,4672.000,8472.000,6574.000,504.000,0.000,5.000,-60.000,16.000,8
928.554,4,nan,nan,nan,nan,nan,nan,-1.054,-1.381,-4.900,35.000,-nan,nan,855.368,14.234,1405.335,1448.963,48.640,-140.400,19445.052,4988.594,-4.863,1.846,-0.273,2.606,0.011,-0.026,-1100.000,-3997.000,-1114.000,0.645,-0.289,-0.654,-0.272,0.0000000,0.0000000,0.000,0.000,0.000,0.000,0,00:00:00,0.901,0.649,4.418,70.234,3.831,-13.565,-0.069,0.048,-2.653,-17.970,-38.947,17.527,85581.000,18.460,0.044,0.025,0.017,0.199,-0.170,0.131,-6.686,0,4672.000,8472.000,6574.000,504.000,0.000,5.000,-60.000,16.000,81
928.595,4,nan,nan,nan,nan,nan,nan,-1.161,-0.577,-5.760,35.000,-nan,nan,855.369,14.243,1405.324,1448.952,48.160,-140.410,19491.926,5035.469,-4.022,1.358,0.244,2.785,-0.070,-0.170,-580.000,-4027.000,-1104.000,0.628,-0.322,-0.636,-0.310,0.0000000,0.0000000,0.000,0.000,0.000,0.000,0,00:00:00,-0.290,0.240,4.823,64.686,2.587,-14.001,-0.063,0.061,-2.638,-14.971,-39.207,17.289,85513.000,18.460,0.039,0.011,0.007,0.177,-0.115,0.128,-5.912,0,4672.000,8472.000,6574.000,504.000,0.000,5.000,-60.000,16.000,81
928.636,4,nan,nan,nan,nan,nan,nan,0.639,0.090,-5.145,35.000,-nan,nan,854.249,14.233,1416.023,1459.651,47.830,-140.410,19524.373,5067.915,-4.676,-0.488,-0.273,2.717,0.132,0.064,-580.000,-4027.000,-1104.000,0.612,-0.358,-0.617,-0.342,0.0000000,0.0000000,0.000,0.000,0.000,0.000,0,00:00:00,0.562,0.538,4.158,58.816,1.249,-14.296,-0.040,0.052,-2.594,-11.952,-38.576,16.718,85456.000,18.460,0.041,0.012,0.018,0.185,-0.094,0.159,-6.255,0,4672.000,8472.000,6574.000,504.000,0.000,5.000,-60.000,16.000,811.0
928.677,4,nan,nan,nan,nan,nan,nan,0.291,-0.592,-5.383,35.000,-nan,nan,854.249,14.233,1416.023,1459.651,47.370,-140.430,19569.905,5113.447,-4.425,0.057,-0.675,2.578,-0.098,-0.145,-580.000,-4027.000,-1104.000,0.593,-0.387,-0.598,-0.376,0.0000000,0.0000000,0.000,0.000,0.000,0.000,0,00:00:00,-0.328,1.219,4.249,52.217,-0.304,-14.463,-0.063,0.030,-2.648,-8.928,-37.646,17.134,85365.008,18.460,0.043,-0.013,0.044,0.192,-0.087,0.136,-6.448,0,4805.000,8431.000,6573.000,494.000,0.000,0.000,-45.000,15.000,8
928.718,4,nan,nan,nan,nan,nan,nan,0.085,0.494,-5.153,35.000,-nan,nan,853.137,14.238,1426.651,1470.279,47.040,-140.430,19602.790,5146.332,-4.662,-0.187,0.417,2.604,0.004,-0.121,-136.000,-3990.000,-1079.000,0.574,-0.416,-0.576,-0.407,0.0000000,0.0000000,0.000,0.000,0.000,0.000,0,00:00:00,-1.046,1.689,4.448,46.776,-1.622,-14.476,-0.042,0.049,-2.612,-6.573,-36.803,16.812,85309.008,18.460,0.038,-0.021,0.043,0.169,-0.088,0.093,-5.649,0,4805.000,8431.000,6573.000,494.000,0.000,0.000,-45.000,15.000,848
928.759,4,nan,nan,nan,nan,nan,nan,-0.345,-1.191,-6.165,35.000,-nan,nan,852.021,14.228,1437.330,1480.958,47.270,-140.380,19579.850,5123.393,-3.627,0.639,-1.121,2.497,0.111,-0.034,-136.000,-3990.000,-1079.000,0.555,-0.445,-0.553,-0.435,0.0000000,0.0000000,0.000,0.000,0.000,0.000,0,00:00:00,0.376,0.548,4.123,40.276,-3.239,-14.336,-0.052,-0.007,-2.588,-3.200,-35.186,16.890,85252.008,18.460,0.044,-0.011,0.040,0.194,-0.118,0.065,-6.551,0,4805.000,8431.000,6573.000,494.000,0.000,0.000,-45.000,15.000,8
928.800,4,nan,nan,nan,nan,nan,nan,0.129,-0.195,-5.168,35.000,-nan,nan,852.021,14.228,1437.330,1480.958,46.100,-140.450,19697.499,5241.041,-4.640,-0.072,-0.266,2.648,0.021,-0.026,315.000,-4046.000,-762.000,0.531,-0.473,-0.528,-0.464,0.0000000,0.0000000,0.000,0.000,0.000,0.000,0,00:00:00,0.215,0.548,4.378,34.862,-4.589,-14.080,-0.065,0.014,-2.581,-0.834,-33.845,17.196,85169.008,18.445,0.039,-0.010,0.025,0.172,-0.103,0.032,-5.797,0,4805.000,8431.000,6573.000,494.000,0.000,0.000,-45.000,15.000,848.
928.841,4,nan,nan,nan,nan,nan,nan,-0.168,-1.070,-5.516,35.000,-nan,nan,850.930,14.242,1447.778,1491.406,45.980,-140.440,19709.701,5253.243,-4.281,0.215,-1.113,2.584,-0.049,0.013,315.000,-4046.000,-762.000,0.506,-0.500,-0.504,-0.491,0.0000000,0.0000000,0.000,0.000,0.000,0.000,0,00:00:00,0.292,0.184,4.186,29.096,-5.994,-13.647,-0.070,0.018,-2.569,1.428,-32.207,16.781,85112.008,18.445,0.041,-0.001,0.026,0.179,-0.087,0.026,-6.142,0,4805.000,8431.000,6573.000,494.000,0.000,0.000,-45.000,15.000,848.0
928.882,4,nan,nan,nan,nan,nan,nan,0.113,-1.354,-5.931,35.000,-nan,nan,849.867,14.242,1457.974,1501.602,45.600,-140.440,19748.514,5292.056,-3.864,-0.244,-1.379,2.631,-0.021,-0.226,677.000,-4045.000,-426.000,0.481,-0.523,-0.475,-0.519,0.0000000,0.0000000,0.000,0.000,0.000,0.000,0,00:00:00,0.299,1.373,4.409,22.593,-7.506,-12.981,-0.033,0.018,-2.567,3.494,-29.274,16.902,85025.000,18.460,0.044,0.014,0.052,0.190,-0.084,0.031,-6.502,0,4911.000,8397.000,6574.000,484.000,0.000,-1.000,-48.000,13.000,870.
928.923,4,nan,nan,nan,nan,nan,nan,-0.669,-0.738,-5.850,35.000,-nan,nan,849.866,14.231,1457.986,1501.614,45.200,-140.450,19789.653,5333.195,-3.958,0.488,-0.876,2.538,-0.075,-0.081,677.000,-4045.000,-426.000,0.455,-0.545,-0.447,-0.545,0.0000000,0.0000000,0.000,0.000,0.000,0.000,0,00:00:00,0.293,1.311,4.292,17.175,-8.676,-12.324,-0.053,0.018,-2.569,5.434,-27.032,17.118,84980.000,18.460,0.038,0.020,0.047,0.161,-0.098,0.046,-5.535,0,4911.000,8397.000,6574.000,484.000,0.000,-1.000,-48.000,13.000,870.
928.964,4,nan,nan,nan,nan,nan,nan,-0.142,-1.579,-5.784,35.000,-nan,nan,848.755,14.243,1468.643,1512.271,44.900,-140.450,19820.702,5364.244,-4.015,-0.359,-1.573,2.567,-0.026,-0.060,677.000,-4045.000,-426.000,0.427,-0.566,-0.418,-0.568,0.0000000,0.0000000,0.000,0.000,0.000,0.000,0,00:00:00,-0.351,2.072,4.447,10.642,-9.977,-11.414,-0.050,0.018,-2.565,6.939,-24.386,16.737,84900.000,18.460,0.044,0.007,0.054,0.188,-0.129,0.067,-6.444,0,4911.000,8397.000,6574.000,484.000,0.000,-1.000,-48.000,13.000,87
929.005,4,nan,nan,nan,nan,nan,nan,-0.003,-0.426,-5.215,35.000,-nan,nan,848.755,14.243,1468.643,1512.271,44.600,-140.450,19851.919,5395.461,-4.590,-0.223,-0.424,2.512,0.068,-0.060,879.000,-4022.000,53.000,0.399,-0.587,-0.388,-0.588,0.0000000,0.0000000,0.000,0.000,0.000,0.000,0,00:00:00,-0.068,0.723,4.065,5.218,-10.974,-10.584,-0.080,0.018,-2.516,8.325,-22.034,17.320,84844.000,18.445,0.039,-0.002,0.040,0.164,-0.151,0.052,-5.654,0,4911.000,8397.000,6574.000,484.000,0.000,-1.000,-48.000,13.000,870.
929.046,4,nan,nan,nan,nan,nan,nan,-1.098,-1.703,-6.250,35.000,-nan,nan,847.717,14.247,1478.626,1522.254,44.420,-140.440,19870.731,5414.273,-3.556,0.093,-2.033,2.518,-0.019,-0.147,879.000,-4022.000,53.000,0.370,-0.604,-0.357,-0.609,0.0000000,0.0000000,0.000,0.000,0.000,0.000,0,00:00:00,-0.709,0.963,4.322,-0.587,-11.971,-9.592,-0.075,0.008,-2.508,9.505,-18.984,17.197,84775.000,18.460,0.041,-0.008,0.037,0.174,-0.151,0.025,-6.009,0,4911.000,8397.000,6574.000,484.000,0.000,-1.000,-48.000,13.000,870.
929.087,4,nan,nan,nan,nan,nan,nan,-0.287,-0.127,-5.868,35.000,-nan,nan,846.658,14.247,1488.805,1532.432,44.090,-140.440,19905.380,5448.922,-3.943,0.115,-0.266,2.612,-0.047,0.185,1059.000,-4034.000,592.000,0.335,-0.623,-0.327,-0.627,0.0000000,0.0000000,0.000,0.000,0.000,0.000,0,00:00:00,0.009,0.731,4.022,-7.122,-12.989,-8.347,-0.050,-0.030,-2.499,10.130,-15.824,16.953,84719.000,18.445,0.044,-0.006,0.029,0.181,-0.150,0.006,-6.326,0,5032.000,8359.000,6573.000,474.000,0.000,-3.000,-40.000,11.000,72
929.128,4,nan,nan,nan,nan,nan,nan,-0.158,0.087,-5.891,35.000,-nan,nan,846.657,14.236,1488.818,1532.446,43.910,-140.430,19924.368,5467.910,-3.922,0.115,-0.014,2.589,-0.094,-0.077,1059.000,-4034.000,592.000,0.303,-0.637,-0.294,-0.645,0.0000000,0.0000000,0.000,0.000,0.000,0.000,0,00:00:00,0.713,0.265,3.835,-12.568,-13.735,-7.212,-0.045,-0.033,-2.486,10.966,-13.162,17.667,84658.008,18.440,0.038,-0.002,0.021,0.155,-0.118,-0.006,-5.392,0,5032.000,8359.000,6573.000,474.000,0.000,-3.000,-40.000,11.000,
929.169,4,nan,nan,nan,nan,nan,nan,-0.631,0.414,-6.345,35.000,-nan,nan,845.615,14.227,1498.853,1542.481,43.930,-140.400,19922.255,5465.798,-3.477,0.690,-0.129,2.499,-0.081,0.036,1059.000,-4034.000,592.000,0.269,-0.650,-0.263,-0.660,0.0000000,0.0000000,0.000,0.000,0.000,0.000,0,00:00:00,1.044,-0.264,4.087,-19.145,-14.479,-5.721,-0.041,-0.003,-2.473,11.034,-10.090,17.296,84579.000,18.440,0.044,0.010,0.013,0.180,-0.094,-0.009,-6.299,0,5032.000,8359.000,6573.000,474.000,0.000,-3.000,-40.000,11.000,7
929.210,4,nan,nan,nan,nan,nan,nan,-1.590,0.584,-5.870,35.000,-nan,nan,844.575,14.227,1508.876,1552.503,43.250,-140.440,19994.535,5538.078,-3.965,1.393,-0.855,2.552,0.098,-0.011,1079.000,-3984.000,1016.000,0.236,-0.664,-0.229,-0.672,0.0000000,0.0000000,0.000,0.000,0.000,0.000,0,00:00:00,0.206,0.763,3.938,-24.654,-14.950,-4.376,-0.008,0.002,-2.506,11.101,-7.017,17.655,84534.008,18.450,0.039,0.015,0.015,0.156,-0.045,0.010,-5.576,0,5032.000,8359.000,6573.000,474.000,0.000,-3.000,-40.000,11.000,722.
929.251,4,nan,nan,nan,nan,nan,nan,-0.233,0.327,-5.760,35.000,-nan,nan,844.576,14.234,1508.867,1552.495,43.060,-140.430,20014.896,5558.438,-4.058,0.302,0.022,2.510,-0.023,-0.305,1079.000,-3984.000,1016.000,0.206,-0.673,-0.191,-0.684,0.0000000,0.0000000,0.000,0.000,0.000,0.000,0,00:00:00,-0.192,0.199,4.033,-30.935,-15.292,-2.776,-0.013,0.044,-2.504,10.832,-4.036,17.644,84454.000,18.440,0.044,0.017,0.011,0.175,-0.019,0.052,-6.303,0,5032.000,8359.000,6573.000,474.000,0.000,-3.000,-40.000,11.000,722
929.292,4,nan,nan,nan,nan,nan,nan,-0.323,0.826,-5.923,35.000,-nan,nan,843.544,14.229,1518.824,1562.452,42.440,-140.450,20081.845,5625.387,-3.907,0.783,0.122,2.491,0.083,-0.051,978.000,-3936.000,1680.000,0.173,-0.682,-0.157,-0.693,0.0000000,0.0000000,0.000,0.000,0.000,0.000,0,00:00:00,0.849,-0.101,3.935,-36.859,-15.422,-1.208,-0.007,0.046,-2.464,10.018,-0.548,17.771,84386.000,18.440,0.039,0.026,0.015,0.155,0.002,0.086,-5.581,0,5032.000,8359.000,6573.000,474.000,0.000,-3.000,-40.000,11.000,722.00
929.333,4,nan,nan,nan,nan,nan,nan,-1.473,0.650,-6.248,35.000,-nan,nan,843.544,14.229,1518.824,1562.452,41.990,-140.460,20130.934,5674.477,-3.606,1.049,-1.085,2.561,-0.094,-0.004,978.000,-3936.000,1680.000,0.137,-0.688,-0.122,-0.702,0.0000000,0.0000000,0.000,0.000,0.000,0.000,0,00:00:00,0.363,1.466,4.079,-42.808,-15.351,0.382,0.012,0.038,-2.521,8.860,2.451,18.000,84329.000,18.440,0.040,0.023,0.030,0.159,0.022,0.124,-5.782,0,5126.000,8330.000,6572.000,464.000,0.000,8.000,-40.000,-6.000,1058.000,1
929.374,4,nan,nan,nan,nan,nan,nan,-0.926,-0.304,-5.797,35.000,-nan,nan,842.497,14.230,1528.928,1572.556,41.590,-140.480,20174.929,5718.471,-4.030,-0.158,-0.891,2.533,-0.058,-0.109,840.000,-3922.000,2174.000,0.102,-0.692,-0.085,-0.709,0.0000000,0.0000000,0.000,0.000,0.000,0.000,0,00:00:00,-0.287,1.278,3.868,-49.443,-15.045,2.104,0.010,0.067,-2.489,7.365,5.358,18.102,84284.008,18.440,0.044,0.010,0.042,0.172,-0.006,0.178,-6.282,0,5126.000,8330.000,6572.000,464.000,0.000,8.000,-40.000,-6.000,1058.0
929.415,4,nan,nan,nan,nan,nan,nan,-0.261,-0.453,-5.819,35.000,-nan,nan,841.479,14.230,1538.775,1582.403,41.290,-140.480,20208.150,5751.692,-3.986,-0.503,-0.244,2.395,0.013,-0.009,840.000,-3922.000,2174.000,0.069,-0.696,-0.052,-0.713,0.0000000,0.0000000,0.000,0.000,0.000,0.000,0,00:00:00,-0.352,1.200,3.804,-54.909,-14.653,3.459,-0.028,0.052,-2.451,5.856,7.570,18.177,84216.000,18.440,0.039,-0.003,0.044,0.151,-0.040,0.152,-5.519,0,5126.000,8330.000,6572.000,464.000,0.000,8.000,-40.000,-6.000,1058.
929.456,4,nan,nan,nan,nan,nan,nan,-0.321,0.093,-5.782,35.000,-nan,nan,841.478,14.227,1538.778,1582.406,41.260,-140.450,20211.483,5755.025,-4.037,-0.014,-0.201,2.474,-0.064,-0.239,840.000,-3922.000,2174.000,0.036,-0.696,-0.014,-0.717,0.0000000,0.0000000,0.000,0.000,0.000,0.000,0,00:00:00,-0.599,0.362,3.938,-61.047,-14.088,4.910,-0.048,0.046,-2.452,4.030,10.584,18.525,84125.008,18.440,0.044,-0.018,0.029,0.169,-0.061,0.147,-6.197,0,5126.000,8330.000,6572.000,464.000,0.000,8.000,-40.000,-6.000,1058
929.497,4,nan,nan,nan,nan,nan,nan,-0.062,-0.683,-5.823,35.000,-nan,nan,840.471,14.217,1548.525,1592.153,40.970,-140.450,20243.802,5787.344,-3.958,-0.833,0.093,2.433,-0.087,-0.205,527.000,-3918.000,2579.000,0.004,-0.695,0.022,-0.719,0.0000000,0.0000000,0.000,0.000,0.000,0.000,0,00:00:00,-0.333,-0.044,3.874,-66.765,-13.460,6.212,-0.017,0.048,-2.406,2.405,12.601,18.714,84069.000,18.440,0.039,-0.021,0.025,0.149,-0.046,0.097,-5.457,0,5126.000,8330.000,6572.000,464.000,0.000,8.000,-40.000,-6.000,1058
929.538,4,nan,nan,nan,nan,nan,nan,-0.887,-0.022,-6.376,35.000,-nan,nan,839.443,14.217,1558.482,1602.109,40.670,-140.450,20277.431,5820.973,-3.462,-0.223,-0.740,2.388,-0.055,0.162,527.000,-3918.000,2579.000,-0.032,-0.692,0.053,-0.719,0.0000000,0.0000000,0.000,0.000,0.000,0.000,0,00:00:00,-0.717,0.460,3.673,-72.437,-12.756,7.437,-0.012,0.014,-2.441,0.329,14.328,18.403,84001.008,18.425,0.040,-0.022,0.018,0.152,-0.044,0.048,-5.616,0,5248.000,8292.000,6572.000,455.000,0.000,-1.000,-44.000,-10.000,93
929.579,4,nan,nan,nan,nan,nan,nan,-0.749,-1.476,-6.592,35.000,-nan,nan,839.443,14.213,1558.487,1602.115,40.520,-140.440,20294.321,5837.863,-3.189,-1.688,-0.273,2.444,-0.013,-0.077,172.000,-3899.000,2933.000,-0.066,-0.688,0.088,-0.717,0.0000000,0.0000000,0.000,0.000,0.000,0.000,0,00:00:00,-1.087,0.654,4.170,-78.765,-11.861,8.744,-0.024,0.014,-2.426,-2.518,16.471,19.201,83944.000,18.440,0.044,-0.020,0.029,0.168,-0.034,0.030,-6.125,0,5248.000,8292.000,6572.000,455.000,0.000,-1.000,-44.000,-10.000,
929.620,4,nan,nan,nan,nan,nan,nan,-0.707,-0.159,-6.691,35.000,-nan,nan,838.469,14.218,1567.924,1611.552,39.830,-140.480,20372.672,5916.215,-3.139,-0.417,-0.474,2.422,-0.055,0.181,172.000,-3899.000,2933.000,-0.103,-0.682,0.119,-0.714,0.0000000,0.0000000,0.000,0.000,0.000,0.000,0,00:00:00,-0.022,0.370,3.455,-83.985,-11.039,9.753,-0.003,-0.035,-2.407,-4.712,17.904,19.243,83895.008,18.420,0.039,-0.008,0.030,0.144,-0.017,0.004,-5.398,0,5248.000,8292.000,6572.000,455.000,0.000,-1.000,-44.000,-10.000,
929.661,4,nan,nan,nan,nan,nan,nan,-0.242,1.532,-6.973,35.000,-nan,nan,838.469,14.218,1567.924,1611.552,39.680,-140.460,20389.851,5933.393,-2.880,1.293,-0.697,2.454,-0.015,0.132,-230.000,-3852.000,3255.000,-0.140,-0.675,0.150,-0.708,0.0000000,0.0000000,0.000,0.000,0.000,0.000,0,00:00:00,0.208,1.149,3.751,-89.839,-10.021,10.790,0.012,-0.048,-2.408,-7.245,19.047,19.030,83842.000,18.440,0.044,-0.003,0.042,0.163,-0.031,-0.010,-6.070,0,5248.000,8292.000,6572.000,455.000,0.000,-1.000,-44.000,-10.000,9
929.702,4,nan,nan,nan,nan,nan,nan,-0.209,-0.344,-7.185,35.000,-nan,nan,837.473,14.233,1577.589,1621.217,39.370,-140.470,20425.520,5969.062,-2.622,-0.409,0.108,2.278,0.045,-0.064,-230.000,-3852.000,3255.000,-0.171,-0.669,0.182,-0.701,0.0000000,0.0000000,0.000,0.000,0.000,0.000,0,00:00:00,-0.629,1.326,3.920,-95.303,-8.969,11.641,-0.039,0.001,-2.421,-9.784,19.992,19.418,83774.000,18.440,0.038,-0.006,0.031,0.138,-0.029,-0.008,-5.193,0,5248.000,8292.000,6572.000,455.000,0.000,-1.000,-44.000,-10.000,
