Time (ms),Stage,PosX (m),PosY (m),PosZ (m),VeloX (m/s),VeloY (m/s),VeloZ (m/s),AccelX (m/s^2),AccelY (m/s^2),AccelZ (m/s^2),Bar Altitude,Bar Pressure,Bar Temperature,GPS Longitude,GPS Latitude,GPS Altitude,GPS PosX,GPS PosY,GPS PosZ,GPS Heading Angle,GPS Satellites,IMU AccelX,IMU AccelY,IMU AccelZ,IMU AngVeloX,IMU AngVeloY,IMU AngVeloZ,IMU MagX,IMU MagY,IMU MagZ,IMU OrientationW,IMU OrientationX,IMU OrientationY,IMU OrientationZ,IMU Roll,IMU Pitch,IMU Yaw,PWM,Target Lat,Target Long,Goal Angle,BNO Calibration Sys,BNO Calibration Accel,BNO Calibration Gryo,BNO Calibration Mag
3108.10,Pre Launch,69.64,-3.83,4.87,0.03,0.03,0.03,0.00,0.99,15.93,6.11,98378.04,29.73,-771902976.00,427047296.00,233.21,69.63,-3.82,-42.90,103.36,15,-0.55,0.99,15.93,-0.44,-2.38,-0.88,-129.38,-50.75,65.25,0.55,0.48,0.45,0.52,81.78,-0.21,86.10,0.00,0.00,0.00,-45.00,0,1,3,0
3108.11,Powered Ascent,69.64,-3.83,4.91,0.06,0.06,0.06,0.00,5.88,39.15,6.11,98378.04,29.73,-771902976.00,427047296.00,233.21,69.63,-3.82,-42.90,103.36,15,2.96,5.88,39.15,4.25,-1.38,-0.50,-129.38,-50.75,65.25,0.55,0.48,0.45,0.52,81.82,-0.21,86.09,0.00,0.00,0.00,-45.00,0,1,3,0
3108.52,Powered Ascent,70.75,-3.50,8.27,5.34,5.34,5.34,0.00,3.53,41.87,16.84,98253.02,29.83,-771902976.00,427047328.00,232.91,69.36,-3.73,-43.20,309.36,14,12.75,3.53,41.87,-0.50,-11.88,-4.75,-82.00,-24.50,21.69,0.57,0.49,0.43,0.50,81.50,0.67,82.76,0.00,0.00,0.00,-45.00,0,1,3,0
3108.60,Powered Ascent,71.03,-3.41,10.41,6.13,6.13,6.13,0.00,4.90,42.10,19.63,98220.53,29.83,-771902976.00,427047328.00,232.91,69.36,-3.73,-43.20,309.36,14,14.13,4.90,42.10,-6.31,-12.25,-7.56,-78.69,-21.75,13.69,0.58,0.49,0.43,0.49,81.14,1.03,81.89,0.00,0.00,0.00,-45.00,0,1,3,0
3108.60,Powered Ascent,70.93,-3.42,11.48,5.98,5.98,5.98,0.00,3.90,42.25,19.63,98220.53,29.83,-771902976.00,427047328.00,232.91,69.36,-3.73,-43.20,309.36,14,14.89,3.90,42.25,-8.31,-12.25,-9.12,-78.69,-21.75,13.69,0.58,0.49,0.43,0.49,81.06,1.10,81.76,0.00,0.00,0.00,-45.00,0,1,3,0
3108.61,Powered Ascent,70.84,-3.43,12.43,5.88,5.88,5.88,0.00,1.87,42.52,19.63,98220.53,29.83,-771902976.00,427047328.00,232.91,69.36,-3.73,-43.20,309.36,14,15.98,1.87,42.52,-8.31,-12.69,-9.06,-78.69,-21.75,13.69,0.58,0.49,0.43,0.49,80.97,1.17,81.62,0.00,0.00,0.00,-45.00,0,1,3,0
3108.62,Powered Ascent,70.77,-3.44,13.26,5.80,5.80,5.80,0.00,1.89,42.54,19.63,98220.53,29.83,-771902976.00,427047328.00,232.91,69.36,-3.73,-43.20,309.36,14,15.93,1.89,42.54,-7.56,-13.06,-7.69,-75.00,-19.19,7.00,0.58,0.49,0.43,0.49,80.89,1.22,81.48,0.00,0.00,0.00,-45.00,0,1,3,0
3108.63,Powered Ascent,70.70,-3.45,13.97,5.72,5.72,5.72,0.00,3.60,42.35,19.63,98220.53,29.83,-771902976.00,427047328.00,232.91,69.36,-3.73,-43.20,309.36,14,15.01,3.60,42.35,-7.56,-13.06,-7.69,-75.00,-19.19,7.00,0.58,0.49,0.43,0.49,80.82,1.27,81.35,0.00,0.00,0.00,-45.00,0,1,3,0
3108.64,Powered Ascent,70.64,-3.46,14.63,5.67,5.67,5.67,0.00,3.69,42.28,19.63,98220.53,29.83,-771902976.00,427047328.00,232.91,69.36,-3.73,-43.20,309.36,14,14.49,3.69,42.28,-7.56,-13.00,-7.88,-75.00,-19.19,7.00,0.58,0.49,0.43,0.49,80.73,1.33,81.21,0.00,0.00,0.00,-45.00,0,1,3,0
3108.65,Powered Ascent,70.61,-3.46,15.54,5.66,5.66,5.66,0.00,5.51,42.13,22.96,98181.74,29.82,-771902976.00,427047328.00,232.91,69.36,-3.73,-43.20,309.36,14,13.91,5.51,42.13,-10.31,-12.62,-9.75,-75.00,-19.19,7.00,0.58,0.49,0.43,0.49,80.63,1.40,81.08,0.00,0.00,0.00,-45.00,0,1,3,0
3108.66,Powered Ascent,70.58,-3.46,16.37,5.66,5.66,5.66,0.00,4.04,42.35,22.96,98181.74,29.82,-771902976.00,427047328.00,232.91,69.36,-3.73,-43.20,309.36,14,14.72,4.04,42.35,-9.81,-13.06,-9.38,-75.00,-19.19,7.00,0.59,0.49,0.43,0.49,80.53,1.47,80.93,0.00,0.00,0.00,-45.00,0,1,3,0
3108.67,Powered Ascent,70.55,-3.46,17.12,5.67,5.67,5.67,0.00,3.60,42.47,22.96,98181.74,29.82,-771902976.00,427047328.00,232.91,69.36,-3.73,-43.20,309.36,14,15.13,3.60,42.47,-9.81,-13.06,-9.38,-75.00,-19.19,7.00,0.59,0.49,0.43,0.49,80.43,1.53,80.80,0.00,0.00,0.00,-45.00,0,1,3,0
3108.68,Powered Ascent,70.52,-3.46,17.77,5.67,5.67,5.67,0.00,2.74,42.57,22.96,98181.74,29.82,-771902976.00,427047328.00,232.91,69.36,-3.73,-43.20,309.36,14,15.30,2.74,42.57,-10.12,-13.25,-9.00,-70.25,-18.25,4.06,0.59,0.49,0.43,0.49,80.43,1.53,80.80,0.00,0.00,0.00,-45.00,0,1,3,0
3108.69,Powered Ascent,70.49,-3.47,18.35,5.65,5.65,5.65,0.00,4.93,42.29,22.96,98181.74,29.82,-771902976.00,427047328.00,232.91,69.36,-3.73,-43.20,309.36,14,14.15,4.93,42.29,-9.62,-13.88,-8.38,-70.25,-18.25,4.06,0.59,0.48,0.42,0.49,80.21,1.66,80.50,0.00,0.00,0.00,-45.00,0,1,3,0
3108.70,Powered Ascent,70.49,-3.46,19.02,5.70,5.70,5.70,0.00,3.41,42.43,22.96,98181.74,29.82,-771902976.00,427047328.00,232.91,69.36,-3.73,-43.20,309.36,14,14.30,3.41,42.43,-11.62,-13.56,-10.06,-70.25,-18.25,4.06,0.59,0.48,0.42,0.49,80.10,1.74,80.35,0.00,0.00,0.00,-45.00,0,1,3,0
3108.71,Powered Ascent,70.48,-3.46,19.61,5.74,5.74,5.74,0.00,4.02,42.41,22.96,98181.74,29.82,-771902976.00,427047328.00,232.91,69.36,-3.73,-43.20,309.36,14,14.21,4.02,42.41,-13.19,-13.88,-10.12,-70.25,-18.25,4.06,0.59,0.48,0.42,0.49,79.96,1.82,80.20,0.00,0.00,0.00,-45.00,0,1,3,0
3108.72,Powered Ascent,70.47,-3.46,20.37,5.78,5.78,5.78,0.00,2.76,42.65,26.83,98136.67,29.82,-771902976.00,427047328.00,232.91,69.36,-3.73,-43.20,309.36,14,14.90,2.76,42.65,-13.19,-13.88,-10.12,-70.25,-18.25,4.06,0.59,0.48,0.42,0.49,79.84,1.88,80.05,0.00,0.00,0.00,-45.00,0,1,3,0
3108.73,Powered Ascent,70.46,-3.46,21.05,5.80,5.80,5.80,0.00,3.06,42.66,26.83,98136.67,29.82,-771902976.00,427047328.00,232.91,69.36,-3.73,-43.20,309.36,14,14.86,3.06,42.66,-12.31,-14.75,-9.19,-68.38,-17.00,-0.38,0.59,0.48,0.42,0.49,79.84,1.88,80.05,0.00,0.00,0.00,-45.00,0,1,3,0
3108.74,Powered Ascent,70.45,-3.46,21.66,5.81,5.81,5.81,0.00,3.92,42.55,26.83,98136.67,29.82,-771902976.00,427047328.00,232.91,69.36,-3.73,-43.20,309.36,14,14.32,3.92,42.55,-13.12,-14.69,-9.50,-68.38,-17.00,-0.38,0.60,0.48,0.42,0.48,79.57,2.01,79.73,0.00,0.00,0.00,-45.00,0,1,3,0
3108.75,Powered Ascent,70.46,-3.45,22.37,5.87,5.87,5.87,0.00,4.60,42.41,26.83,98136.67,29.82,-771902976.00,427047328.00,232.91,69.36,-3.73,-43.20,309.36,14,13.55,4.60,42.41,-13.38,-15.06,-10.06,-68.38,-17.00,-0.38,0.60,0.48,0.42,0.48,79.42,2.09,79.56,0.00,0.00,0.00,-45.00,0,1,3,0
3108.76,Powered Ascent,70.46,-3.45,23.02,5.92,5.92,5.92,0.00,4.14,42.51,26.83,98136.67,29.82,-771902976.00,427047328.00,232.91,69.36,-3.73,-43.20,309.36,14,13.69,4.14,42.51,-15.25,-15.62,-10.44,-68.38,-17.00,-0.38,0.60,0.48,0.42,0.48,79.26,2.16,79.40,0.00,0.00,0.00,-45.00,0,1,3,0
3108.77,Powered Ascent,70.47,-3.44,23.63,5.98,5.98,5.98,0.00,3.77,42.70,26.83,98136.67,29.82,-771902976.00,427047328.00,232.91,69.36,-3.73,-43.20,309.36,14,14.33,3.77,42.70,-15.25,-15.62,-10.44,-68.38,-17.00,-0.38,0.60,0.48,0.42,0.48,79.12,2.23,79.22,0.00,0.00,0.00,-45.00,0,1,3,0
3108.78,Powered Ascent,70.46,-3.44,24.30,6.00,6.00,6.00,0.00,4.01,42.68,30.69,98136.67,29.81,-771902976.00,427047328.00,232.91,69.36,-3.73,-43.20,309.36,14,14.08,4.01,42.68,-14.69,-16.50,-10.00,-65.38,-16.56,-3.38,0.60,0.48,0.42,0.48,79.12,2.23,79.22,0.00,0.00,0.00,-45.00,0,1,3,0
3108.79,Powered Ascent,70.46,-3.44,24.98,6.03,6.03,6.03,0.00,4.47,42.66,30.69,98091.77,29.81,-771902976.00,427047328.00,232.91,69.36,-3.73,-43.20,309.36,14,13.92,4.47,42.66,-14.88,-16.88,-10.25,-65.38,-16.56,-3.38,0.61,0.48,0.42,0.48,78.80,2.37,78.86,0.00,0.00,0.00,-45.00,0,1,3,0
3108.80,Powered Ascent,70.47,-3.43,25.70,6.09,6.09,6.09,0.00,5.05,42.54,30.69,98091.77,29.81,-771902976.00,427047328.00,232.91,69.36,-3.73,-43.20,309.36,14,13.30,5.05,42.54,-15.75,-16.88,-10.94,-65.38,-16.56,-3.38,0.61,0.48,0.41,0.48,78.64,2.45,78.67,0.00,0.00,0.00,-45.00,0,1,3,0
3108.81,Powered Ascent,70.48,-3.43,26.39,6.15,6.15,6.15,0.00,3.53,42.83,30.69,98091.77,29.81,-771902976.00,427047328.00,232.91,69.36,-3.73,-43.20,309.36,14,13.93,3.53,42.83,-16.69,-18.00,-11.12,-65.38,-16.56,-3.38,0.61,0.48,0.41,0.48,78.47,2.52,78.47,0.00,0.00,0.00,-45.00,0,1,3,0
3108.82,Powered Ascent,70.49,-3.42,27.06,6.22,6.22,6.22,0.00,4.14,42.84,30.69,98091.77,29.81,-771902976.00,427047328.00,232.91,69.36,-3.73,-43.20,309.36,14,13.95,4.14,42.84,-16.69,-18.00,-11.12,-65.38,-16.56,-3.38,0.61,0.48,0.41,0.48,78.30,2.59,78.28,0.00,0.00,0.00,-45.00,0,1,3,0
3108.83,Powered Ascent,70.50,-3.42,27.61,6.25,6.25,6.25,0.00,3.75,42.91,30.69,98091.77,29.81,-771902976.00,427047328.00,232.91,69.36,-3.73,-43.20,309.36,14,13.88,3.75,42.91,-16.56,-18.69,-11.25,-62.38,-15.75,-4.69,0.61,0.48,0.41,0.48,78.30,2.59,78.28,0.00,0.00,0.00,-45.00,0,1,3,0
3108.84,Powered Ascent,70.49,-3.42,28.09,6.27,6.27,6.27,0.00,5.12,42.77,30.69,98091.77,29.81,-771902976.00,427047328.00,232.91,69.36,-3.73,-43.20,309.36,14,13.54,5.12,42.77,-16.69,-19.38,-10.94,-62.38,-15.75,-4.69,0.61,0.48,0.41,0.48,77.95,2.73,77.86,0.00,0.00,0.00,-45.00,0,1,3,0
3108.85,Powered Ascent,70.52,-3.41,28.95,6.35,6.35,6.35,0.00,4.17,42.88,35.42,98036.74,29.81,-771902976.00,427047328.00,232.91,69.36,-3.73,-43.20,309.36,14,13.41,4.17,42.88,-17.69,-20.12,-12.25,-62.38,-15.75,-4.69,0.62,0.48,0.41,0.48,77.77,2.80,77.65,0.00,0.00,0.00,-45.00,0,1,3,0
3108.86,Powered Ascent,70.53,-3.40,29.73,6.41,6.41,6.41,0.00,4.07,42.89,35.42,98036.74,29.81,-771902976.00,427047328.00,232.91,69.36,-3.73,-43.20,309.36,14,13.10,4.07,42.89,-18.06,-20.69,-12.31,-62.38,-15.75,-4.69,0.62,0.48,0.41,0.48,77.58,2.88,77.42,0.00,0.00,0.00,-45.00,0,1,3,0
3108.87,Powered Ascent,70.54,-3.39,30.44,6.46,6.46,6.46,0.00,4.10,42.99,35.42,98036.74,29.81,-771902976.00,427047328.00,232.91,69.36,-3.73,-43.20,309.36,14,13.36,4.10,42.99,-18.06,-20.69,-12.31,-62.38,-15.75,-4.69,0.62,0.48,0.41,0.47,77.40,2.94,77.20,0.00,0.00,0.00,-45.00,0,1,3,0
3108.88,Powered Ascent,70.55,-3.39,31.07,6.49,6.49,6.49,0.00,5.08,42.91,35.42,98036.74,29.81,-771902976.00,427047328.00,232.91,69.36,-3.73,-43.20,309.36,14,13.18,5.08,42.91,-17.75,-21.56,-11.88,-59.25,-16.00,-10.25,0.62,0.48,0.41,0.47,77.40,2.94,77.20,0.00,0.00,0.00,-45.00,0,1,3,0
3108.89,Powered Ascent,70.55,-3.39,31.63,6.51,6.51,6.51,0.00,4.78,42.98,35.42,98036.74,29.81,-771902976.00,427047328.00,232.91,69.36,-3.73,-43.20,309.36,14,13.09,4.78,42.98,-18.00,-21.88,-12.31,-59.25,-16.00,-10.25,0.62,0.47,0.40,0.47,77.02,3.09,76.72,0.00,0.00,0.00,-45.00,0,1,3,0
3108.90,Powered Ascent,70.58,-3.38,32.36,6.58,6.58,6.58,0.00,4.63,42.97,35.42,98036.74,29.81,-771902976.00,427047328.00,232.91,69.36,-3.73,-43.20,309.36,14,12.70,4.63,42.97,-18.50,-22.44,-12.75,-59.25,-16.00,-10.25,0.63,0.47,0.40,0.47,76.82,3.16,76.47,0.00,0.00,0.00,-45.00,0,1,3,0
3108.91,Powered Ascent,70.60,-3.37,33.22,6.64,6.64,6.64,0.00,3.85,43.10,40.30,97980.30,29.81,-771902976.00,427047328.00,232.91,69.36,-3.73,-43.20,309.36,14,12.68,3.85,43.10,-18.94,-23.88,-13.38,-59.25,-16.00,-10.25,0.63,0.47,0.40,0.47,76.62,3.23,76.22,0.00,0.00,0.00,-45.00,0,1,3,0
3108.93,Powered Ascent,70.62,-3.36,34.06,6.69,6.69,6.69,0.00,4.08,43.13,40.30,97979.91,29.81,-771902976.00,427047328.00,232.91,69.36,-3.73,-43.20,309.36,14,12.63,4.08,43.13,-18.94,-23.88,-13.38,-59.25,-16.00,-10.25,0.63,0.47,0.40,0.47,76.42,3.30,75.96,0.00,0.00,0.00,-45.00,0,1,3,0
3108.93,Powered Ascent,70.62,-3.36,34.72,6.71,6.71,6.71,0.00,5.03,43.09,40.30,97979.91,29.81,-771902976.00,427047328.00,232.91,69.36,-3.73,-43.20,309.36,14,12.68,5.03,43.09,-19.06,-24.50,-12.81,-55.75,-18.06,-12.19,0.63,0.47,0.40,0.47,76.42,3.30,75.96,0.00,0.00,0.00,-45.00,0,1,3,0
3108.94,Powered Ascent,70.62,-3.36,35.40,6.75,6.75,6.75,0.00,4.71,43.21,40.30,97979.91,29.81,-771902976.00,427047328.00,232.91,69.36,-3.73,-43.20,309.36,14,12.80,4.71,43.21,-19.06,-25.00,-13.25,-55.75,-18.06,-12.19,0.63,0.47,0.40,0.47,76.02,3.44,75.42,0.00,0.00,0.00,-45.00,0,1,3,0
3108.95,Powered Ascent,70.65,-3.35,36.15,6.80,6.80,6.80,0.00,4.94,43.16,40.30,97979.91,29.81,-771902976.00,427047328.00,232.91,69.36,-3.73,-43.20,309.36,14,12.43,4.94,43.16,-19.31,-25.56,-13.62,-55.75,-18.06,-12.19,0.64,0.47,0.39,0.47,75.81,3.50,75.14,0.00,0.00,0.00,-45.00,0,1,3,0
3108.96,Powered Ascent,70.67,-3.34,36.89,6.86,6.86,6.86,0.00,4.23,43.35,40.30,97979.91,29.81,-771902976.00,427047328.00,232.91,69.36,-3.73,-43.20,309.36,14,12.60,4.23,43.35,-19.25,-26.94,-13.75,-55.75,-18.06,-12.19,0.64,0.47,0.39,0.46,75.61,3.57,74.86,0.00,0.00,0.00,-45.00,0,1,3,0
3108.98,Powered Ascent,70.69,-3.33,37.60,6.91,6.91,6.91,0.00,4.40,43.28,40.30,97979.91,29.81,-771902976.00,427047328.00,232.91,69.36,-3.73,-43.20,309.36,14,12.15,4.40,43.28,-19.25,-26.94,-13.75,-55.75,-18.06,-12.19,0.64,0.47,0.39,0.46,75.40,3.63,74.55,0.00,0.00,0.00,-45.00,0,1,3,0
3108.98,Powered Ascent,70.69,-3.33,38.35,6.93,6.93,6.93,0.00,5.10,43.28,45.99,97913.88,29.81,-771902976.00,427047328.00,232.91,69.36,-3.73,-43.20,309.36,14,12.27,5.10,43.28,-18.81,-28.31,-13.44,-53.69,-18.88,-15.50,0.64,0.47,0.39,0.46,75.40,3.63,74.55,0.00,0.00,0.00,-45.00,0,1,3,0
3108.99,Powered Ascent,70.70,-3.32,39.13,6.96,6.96,6.96,0.00,5.57,43.28,45.99,97913.88,29.81,-771902976.00,427047328.00,232.91,69.36,-3.73,-43.20,309.36,14,12.33,5.57,43.28,-19.00,-29.25,-13.12,-53.69,-18.88,-15.50,0.65,0.47,0.39,0.46,74.99,3.74,73.93,0.00,0.00,0.00,-45.00,0,1,3,0
3109.00,Powered Ascent,70.73,-3.31,40.05,7.03,7.03,7.03,0.00,4.71,43.46,45.99,97913.88,29.81,-771902976.00,427047328.00,232.91,69.36,-3.73,-43.20,309.36,14,12.34,4.71,43.46,-18.94,-29.50,-14.19,-53.69,-18.88,-15.50,0.65,0.47,0.38,0.46,74.80,3.80,73.62,0.00,0.00,0.00,-45.00,0,1,3,0
3109.01,Powered Ascent,70.76,-3.30,40.89,7.08,7.08,7.08,0.00,4.75,43.40,45.99,97913.88,29.81,-771902976.00,427047328.00,232.91,69.36,-3.73,-43.20,309.36,14,11.87,4.75,43.40,-19.00,-30.31,-14.12,-53.69,-18.88,-15.50,0.65,0.47,0.38,0.46,74.59,3.85,73.30,0.00,0.00,0.00,-45.00,0,1,3,0
3109.02,Powered Ascent,70.78,-3.29,41.64,7.11,7.11,7.11,0.00,4.24,43.46,45.99,97913.88,29.81,-771902976.00,427047328.00,232.91,69.36,-3.73,-43.20,309.36,14,11.59,4.24,43.46,-19.00,-30.31,-14.12,-53.69,-18.88,-15.50,0.65,0.47,0.38,0.46,74.39,3.90,72.97,0.00,0.00,0.00,-45.00,0,1,3,0
3109.03,Powered Ascent,70.79,-3.29,42.31,7.13,7.13,7.13,0.00,5.06,43.38,45.99,97913.88,29.81,-771902976.00,427047328.00,232.91,69.36,-3.73,-43.20,309.36,14,11.52,5.06,43.38,-18.31,-31.12,-13.50,-49.19,-21.88,-17.00,0.65,0.47,0.38,0.46,74.39,3.90,72.97,0.00,0.00,0.00,-45.00,0,1,3,0
3109.04,Powered Ascent,70.79,-3.29,42.90,7.15,7.15,7.15,0.00,5.63,43.40,45.99,97913.88,29.81,-771902976.00,427047328.00,232.91,69.36,-3.73,-43.20,309.36,14,11.73,5.63,43.40,-18.00,-31.81,-13.62,-49.19,-21.88,-17.00,0.66,0.47,0.38,0.45,74.00,3.98,72.30,0.00,0.00,0.00,-45.00,0,1,3,0
3109.05,Powered Ascent,70.82,-3.27,43.98,7.21,7.21,7.21,0.00,5.36,43.46,53.34,97828.49,29.71,-771902976.00,427047328.00,232.91,69.36,-3.73,-43.20,309.36,14,11.58,5.36,43.46,-17.25,-33.12,-13.81,-49.19,-21.88,-17.00,0.66,0.47,0.38,0.45,73.81,4.02,71.95,0.00,0.00,0.00,-45.00,0,1,3,0
3109.06,Powered Ascent,70.85,-3.26,44.97,7.25,7.25,7.25,0.00,4.60,43.54,53.34,97828.49,29.71,-771902976.00,427047328.00,232.91,69.36,-3.73,-43.20,309.36,14,11.24,4.60,43.54,-17.19,-33.75,-14.12,-49.19,-21.88,-17.00,0.66,0.47,0.37,0.45,73.62,4.06,71.60,0.00,0.00,0.00,-45.00,0,1,3,0
3109.08,Powered Ascent,70.87,-3.25,45.94,7.30,7.30,7.30,0.00,4.96,43.67,53.34,97828.49,29.71,-771902976.00,427047328.00,232.91,69.36,-3.73,-43.20,309.36,14,11.76,4.96,43.67,-17.19,-33.75,-14.12,-44.06,-22.06,-20.69,0.66,0.47,0.37,0.45,73.44,4.10,71.24,0.00,0.00,0.00,-45.00,0,1,3,0
3109.08,Powered Ascent,70.87,-3.25,46.69,7.31,7.31,7.31,0.00,5.04,43.62,53.34,97828.49,29.71,-771902976.00,427047328.00,232.91,69.36,-3.73,-43.20,309.36,14,11.42,5.04,43.62,-16.00,-34.62,-13.69,-44.06,-22.06,-20.69,0.66,0.47,0.37,0.45,73.44,4.10,71.24,0.00,0.00,0.00,-45.00,0,1,3,0
3109.09,Powered Ascent,70.88,-3.25,47.48,7.33,7.33,7.33,0.00,4.57,43.65,53.34,97828.49,29.71,-771902976.00,427047328.00,232.91,69.36,-3.73,-43.20,309.36,14,11.06,4.57,43.65,-15.56,-35.38,-13.69,-44.06,-22.06,-20.69,0.67,0.47,0.37,0.45,73.08,4.15,70.49,0.00,0.00,0.00,-45.00,0,1,3,0
3109.10,Powered Ascent,70.91,-3.24,48.36,7.37,7.37,7.37,0.00,4.95,43.60,53.34,97828.49,29.71,-771902976.00,427047328.00,232.91,69.36,-3.73,-43.20,309.36,14,10.95,4.95,43.60,-14.50,-37.75,-13.56,-44.06,-22.06,-20.69,0.67,0.47,0.37,0.44,72.92,4.17,70.10,0.00,0.00,0.00,-45.00,0,1,3,0
3109.11,Powered Ascent,70.93,-3.22,49.45,7.41,7.41,7.41,0.00,4.33,43.77,59.55,97756.39,29.71,-771902976.00,427047328.00,232.91,69.36,-3.73,-43.20,309.36,14,11.02,4.33,43.77,-13.69,-40.31,-13.38,-44.06,-22.06,-20.69,0.67,0.47,0.36,0.44,72.75,4.17,69.69,0.00,0.00,0.00,-45.00,0,1,3,0
3109.13,Powered Ascent,70.96,-3.21,50.50,7.45,7.45,7.45,0.00,5.27,43.60,59.55,97756.39,29.71,-771902976.00,427047328.00,232.91,69.36,-3.73,-43.20,309.36,14,10.86,5.27,43.60,-13.69,-40.31,-13.38,-44.06,-22.06,-20.69,0.67,0.47,0.36,0.44,72.59,4.18,69.27,0.00,0.00,0.00,-45.00,0,1,3,0
3109.13,Powered Ascent,70.96,-3.21,51.33,7.46,7.46,7.46,0.00,5.12,43.76,59.55,97756.39,29.71,-771902976.00,427047328.00,232.91,69.36,-3.73,-43.20,309.36,14,11.22,5.12,43.76,-13.31,-41.69,-13.81,-40.75,-26.00,-22.56,0.67,0.47,0.36,0.44,72.59,4.18,69.27,0.00,0.00,0.00,-45.00,0,1,3,0
3109.14,Powered Ascent,70.97,-3.21,52.20,7.47,7.47,7.47,0.00,4.90,43.76,59.55,97756.39,29.71,-771902976.00,427047328.00,232.91,69.36,-3.73,-43.20,309.36,14,10.93,4.90,43.76,-12.50,-42.81,-14.38,-40.75,-26.00,-22.56,0.68,0.47,0.36,0.44,72.29,4.20,68.38,0.00,0.00,0.00,-45.00,0,1,3,0
3109.16,Powered Ascent,71.01,-3.19,53.24,7.53,7.53,7.53,0.00,4.88,43.80,59.55,97756.39,29.71,-771902976.00,427047328.00,232.91,69.36,-3.73,-43.20,309.36,14,10.96,4.88,43.80,-10.56,-44.00,-14.00,-40.75,-26.00,-22.56,0.68,0.47,0.35,0.43,72.16,4.19,67.94,0.00,0.00,0.00,-45.00,0,1,3,0
3109.17,Powered Ascent,71.03,-3.18,54.18,7.56,7.56,7.56,0.00,4.68,43.79,59.55,97756.39,29.71,-771902976.00,427047328.00,232.91,69.36,-3.73,-43.20,309.36,14,10.67,4.68,43.79,-10.19,-44.69,-14.00,-40.75,-26.00,-22.56,0.68,0.47,0.35,0.43,72.02,4.19,67.48,0.00,0.00,0.00,-45.00,0,1,3,0
3109.18,Powered Ascent,71.05,-3.17,55.25,7.59,7.59,7.59,0.00,4.73,43.74,65.68,97685.28,29.80,-771902976.00,427047328.00,232.91,69.36,-3.73,-43.20,309.36,14,10.43,4.73,43.74,-10.19,-44.69,-14.00,-36.25,-28.19,-23.50,0.69,0.47,0.35,0.43,71.90,4.18,67.02,0.00,0.00,0.00,-45.00,0,1,3,0
3109.19,Powered Ascent,71.06,-3.17,56.22,7.60,7.60,7.60,0.00,4.36,43.86,65.68,97685.28,29.80,-771902976.00,427047328.00,232.91,69.36,-3.73,-43.20,309.36,14,10.51,4.36,43.86,-9.50,-45.44,-13.69,-36.25,-28.19,-23.50,0.69,0.47,0.35,0.43,71.90,4.18,67.02,0.00,0.00,0.00,-45.00,0,1,3,0
3109.19,Powered Ascent,71.06,-3.16,57.09,7.61,7.61,7.61,0.00,4.08,43.93,65.68,97685.28,29.80,-771902976.00,427047328.00,232.91,69.36,-3.73,-43.20,309.36,14,10.50,4.08,43.93,-8.62,-46.81,-13.44,-36.25,-28.19,-23.50,0.69,0.47,0.34,0.42,71.68,4.13,66.06,0.00,0.00,0.00,-45.00,0,1,3,0
3109.21,Powered Ascent,71.10,-3.15,58.20,7.65,7.65,7.65,0.00,4.32,43.76,65.68,97685.28,29.80,-771902976.00,427047328.00,232.91,69.36,-3.73,-43.20,309.36,14,9.99,4.32,43.76,-7.50,-48.75,-13.19,-36.25,-28.19,-23.50,0.69,0.48,0.34,0.42,71.57,4.11,65.55,0.00,0.00,0.00,-45.00,0,1,3,0
3109.22,Powered Ascent,71.12,-3.14,59.22,7.68,7.68,7.68,0.00,4.10,43.94,65.68,97685.28,29.80,-771902976.00,427047328.00,232.91,69.36,-3.73,-43.20,309.36,14,10.43,4.10,43.94,-6.19,-51.69,-13.12,-36.25,-28.19,-23.50,0.70,0.48,0.34,0.42,71.47,4.07,65.04,0.00,0.00,0.00,-45.00,0,1,3,0
3109.23,Powered Ascent,71.15,-3.13,60.22,7.72,7.72,7.72,0.00,4.31,43.86,65.68,97685.28,29.80,-771902976.00,427047328.00,232.91,69.36,-3.73,-43.20,309.36,14,10.23,4.31,43.86,-6.19,-51.69,-13.12,-36.25,-28.19,-23.50,0.70,0.48,0.34,0.42,71.38,4.02,64.51,0.00,0.00,0.00,-45.00,0,1,3,0
3109.24,Powered Ascent,71.15,-3.13,60.97,7.72,7.72,7.72,0.00,4.44,43.86,65.68,97685.28,29.80,-771902976.00,427047328.00,232.91,69.36,-3.73,-43.20,309.36,14,10.30,4.44,43.86,-5.50,-53.12,-12.81,-32.38,-29.69,-24.06,0.70,0.48,0.34,0.42,71.38,4.02,64.51,0.00,0.00,0.00,-45.00,0,1,3,0
3109.24,Powered Ascent,71.16,-3.12,61.98,7.73,7.73,7.73,0.00,4.06,43.92,72.13,97610.55,29.80,-771902976.00,427047328.00,232.91,69.36,-3.73,-43.20,309.36,14,10.22,4.06,43.92,-4.31,-54.44,-13.12,-32.38,-29.69,-24.06,0.70,0.48,0.33,0.41,71.22,3.92,63.41,0.00,0.00,0.00,-45.00,0,1,3,0
3109.25,Powered Ascent,71.19,-3.11,63.11,7.76,7.76,7.76,0.00,4.01,43.93,72.13,97610.55,29.80,-771902976.00,427047328.00,232.91,69.36,-3.73,-43.20,309.36,14,10.21,4.01,43.93,-2.88,-56.94,-13.19,-32.38,-29.69,-24.06,0.70,0.48,0.33,0.41,71.16,3.87,62.85,0.00,0.00,0.00,-45.00,0,1,3,0
3109.27,Powered Ascent,71.21,-3.10,64.21,7.80,7.80,7.80,0.00,4.51,43.78,72.13,97610.55,29.80,-771902976.00,427047328.00,232.91,69.36,-3.73,-43.20,309.36,14,10.07,4.51,43.78,-2.44,-57.75,-13.19,-32.38,-29.69,-24.06,0.71,0.48,0.32,0.40,71.10,3.80,62.28,0.00,0.00,0.00,-45.00,0,1,3,0
3109.28,Powered Ascent,71.24,-3.09,65.29,7.83,7.83,7.83,0.00,4.31,43.89,72.13,97610.55,29.80,-771902976.00,427047328.00,232.91,69.36,-3.73,-43.20,309.36,14,10.33,4.31,43.89,-2.44,-57.75,-13.19,-32.38,-29.69,-24.06,0.71,0.48,0.32,0.40,71.04,3.74,61.69,0.00,0.00,0.00,-45.00,0,1,3,0
3109.29,Powered Ascent,71.25,-3.08,66.18,7.84,7.84,7.84,0.00,3.55,43.98,72.13,97610.55,29.80,-771902976.00,427047328.00,232.91,69.36,-3.73,-43.20,309.36,14,10.06,3.55,43.98,-2.00,-59.00,-13.38,-29.25,-30.19,-26.38,0.71,0.48,0.32,0.40,71.04,3.74,61.69,0.00,0.00,0.00,-45.00,0,1,3,0
3109.29,Powered Ascent,71.25,-3.08,66.97,7.85,7.85,7.85,0.00,3.60,44.03,72.13,97610.55,29.80,-771902976.00,427047328.00,232.91,69.36,-3.73,-43.20,309.36,14,10.32,3.60,44.03,-1.06,-59.81,-13.38,-29.25,-30.19,-26.38,0.71,0.49,0.31,0.39,70.95,3.61,60.50,0.00,0.00,0.00,-45.00,0,1,3,0
3109.31,Powered Ascent,71.29,-3.06,68.28,7.88,7.88,7.88,0.00,3.56,43.88,79.51,97610.55,29.80,-771902976.00,427047328.00,232.91,69.36,-3.73,-43.20,309.36,14,9.77,3.56,43.88,0.62,-62.62,-13.81,-29.25,-30.19,-26.38,0.71,0.49,0.31,0.39,70.92,3.53,59.88,0.00,0.00,0.00,-45.00,0,1,3,0
3109.32,Powered Ascent,71.31,-3.05,69.49,7.91,7.91,7.91,0.00,3.69,43.84,79.51,97525.05,29.80,-771902976.00,427047328.00,232.91,69.36,-3.73,-43.20,309.36,14,9.81,3.69,43.84,0.94,-63.62,-14.12,-29.25,-30.19,-26.38,0.72,0.49,0.31,0.39,70.89,3.47,59.25,0.00,0.00,0.00,-45.00,0,1,3,0
3109.33,Powered Ascent,71.33,-3.04,70.58,7.93,7.93,7.93,0.00,3.11,43.88,79.51,97525.05,29.80,-771902976.00,427047328.00,232.91,69.36,-3.73,-43.20,309.36,14,9.53,3.11,43.88,0.94,-63.62,-14.12,-29.25,-30.19,-26.38,0.72,0.49,0.30,0.38,70.86,3.39,58.61,0.00,0.00,0.00,-45.00,0,1,3,0
3109.34,Powered Ascent,71.34,-3.04,71.57,7.94,7.94,7.94,0.00,2.85,43.99,79.51,97525.05,29.80,-771902976.00,427047328.00,232.91,69.36,-3.73,-43.20,309.36,14,9.75,2.85,43.99,0.81,-64.75,-14.06,-24.06,-31.75,-26.56,0.72,0.49,0.30,0.38,70.86,3.39,58.61,0.00,0.00,0.00,-45.00,0,1,3,0
3109.34,Powered Ascent,71.34,-3.04,72.45,7.94,7.94,7.94,0.00,3.31,43.88,79.51,97525.05,29.80,-771902976.00,427047328.00,232.91,69.36,-3.73,-43.20,309.36,14,9.80,3.31,43.88,1.62,-66.12,-14.19,-24.06,-31.75,-26.56,0.72,0.50,0.30,0.38,70.82,3.23,57.30,0.00,0.00,0.00,-45.00,0,1,3,0
3109.36,Powered Ascent,71.37,-3.02,73.62,7.98,7.98,7.98,0.00,2.39,44.09,79.51,97525.05,29.80,-771902976.00,427047328.00,232.91,69.36,-3.73,-43.20,309.36,14,9.86,2.39,44.09,2.75,-69.12,-14.69,-24.06,-31.75,-26.56,0.72,0.50,0.29,0.37,70.81,3.14,56.62,0.00,0.00,0.00,-45.00,0,1,3,0
3109.37,Powered Ascent,71.40,-3.01,74.69,8.01,8.01,8.01,0.00,2.88,43.87,79.51,97525.05,29.80,-771902976.00,427047328.00,232.91,69.36,-3.73,-43.20,309.36,14,9.56,2.88,43.87,3.00,-70.69,-15.31,-24.06,-31.75,-26.56,0.73,0.50,0.29,0.37,70.80,3.06,55.92,0.00,0.00,0.00,-45.00,0,1,3,0
3109.38,Powered Ascent,71.43,-3.00,75.95,8.04,8.04,8.04,0.00,3.01,43.89,86.98,97438.56,29.80,-771902976.00,427047328.00,232.91,69.36,-3.73,-43.20,309.36,14,9.89,3.01,43.89,3.00,-70.69,-15.31,-24.06,-31.75,-26.56,0.73,0.50,0.29,0.36,70.79,2.97,55.21,0.00,0.00,0.00,-45.00,0,1,3,0
3109.39,Powered Ascent,71.43,-3.00,76.95,8.04,8.04,8.04,0.00,1.67,44.18,86.98,97438.56,29.80,-771902976.00,427047328.00,232.91,69.36,-3.73,-43.20,309.36,14,9.84,1.67,44.18,3.00,-72.00,-15.50,-19.25,-31.75,-27.25,0.73,0.50,0.29,0.36,70.79,2.97,55.21,0.00,0.00,0.00,-45.00,0,1,3,0
3109.40,Powered Ascent,71.44,-3.00,77.99,8.05,8.05,8.05,0.00,2.11,44.10,86.98,97438.56,29.80,-771902976.00,427047328.00,232.91,69.36,-3.73,-43.20,309.36,14,10.07,2.11,44.10,3.81,-73.12,-15.94,-19.25,-31.75,-27.25,0.73,0.51,0.28,0.36,70.80,2.79,53.76,0.00,0.00,0.00,-45.00,0,1,3,0
3109.41,Powered Ascent,71.46,-2.99,79.18,8.08,8.08,8.08,0.00,2.81,43.74,86.98,97438.56,29.80,-771902976.00,427047328.00,232.91,69.36,-3.73,-43.20,309.36,14,9.44,2.81,43.74,4.12,-74.19,-15.94,-19.25,-31.75,-27.25,0.74,0.51,0.28,0.35,70.80,2.71,53.02,0.00,0.00,0.00,-45.00,0,1,3,0
3109.42,Powered Ascent,71.49,-2.98,80.33,8.10,8.10,8.10,0.00,1.96,43.87,86.98,97438.56,29.80,-771902976.00,427047328.00,232.91,69.36,-3.73,-43.20,309.36,14,9.23,1.96,43.87,3.56,-76.56,-16.69,-19.25,-31.75,-27.25,0.74,0.51,0.27,0.35,70.80,2.62,52.27,0.00,0.00,0.00,-45.00,0,1,3,0
3109.43,Powered Ascent,71.52,-2.97,81.46,8.13,8.13,8.13,0.00,1.52,43.99,86.98,97438.56,29.80,-771902976.00,427047328.00,232.91,69.36,-3.73,-43.20,309.36,14,9.39,1.52,43.99,3.56,-76.56,-16.69,-19.25,-31.75,-27.25,0.74,0.51,0.27,0.34,70.80,2.53,51.50,0.00,0.00,0.00,-45.00,0,1,3,0
3109.44,Powered Ascent,71.52,-2.97,82.54,8.13,8.13,8.13,0.00,0.99,44.27,94.82,97438.56,29.80,-771902976.00,427047328.00,232.91,69.36,-3.73,-43.20,309.36,14,10.13,0.99,44.27,3.44,-77.62,-17.31,-15.69,-31.50,-27.56,0.74,0.51,0.27,0.34,70.80,2.53,51.50,0.00,0.00,0.00,-45.00,0,1,3,0
3109.45,Powered Ascent,71.53,-2.96,83.68,8.14,8.14,8.14,0.00,0.08,44.35,94.82,97347.88,29.80,-771902976.00,427047328.00,232.91,69.36,-3.73,-43.20,309.36,14,9.63,0.08,44.35,4.19,-79.06,-17.44,-15.69,-31.50,-27.56,0.74,0.52,0.26,0.33,70.82,2.35,49.93,0.00,0.00,0.00,-45.00,0,1,3,0
3109.46,Powered Ascent,71.56,-2.95,85.04,8.18,8.18,8.18,0.00,1.59,43.97,94.82,97347.88,29.80,-771902976.00,427047328.00,232.91,69.36,-3.73,-43.20,309.36,14,9.77,1.59,43.97,4.19,-82.06,-18.38,-15.69,-31.50,-27.56,0.75,0.52,0.26,0.33,70.83,2.26,49.12,0.00,0.00,0.00,-45.00,0,1,3,0
3109.47,Powered Ascent,71.59,-2.94,86.29,8.19,8.19,8.19,0.00,0.56,43.67,94.82,97347.88,29.80,-771902976.00,427047328.00,232.91,69.36,-3.73,-43.20,309.36,14,7.57,0.56,43.67,3.94,-84.44,-18.12,-15.69,-31.50,-27.56,0.75,0.52,0.25,0.32,70.83,2.15,48.29,0.00,0.00,0.00,-45.00,0,1,3,0
3109.48,Powered Ascent,71.60,-2.94,87.42,8.20,8.20,8.20,0.00,2.15,43.66,94.82,97347.88,29.80,-771902976.00,427047328.00,232.91,69.36,-3.73,-43.20,309.36,14,9.38,2.15,43.66,3.94,-84.44,-18.12,-15.69,-31.50,-27.56,0.75,0.52,0.25,0.32,70.82,2.05,47.45,0.00,0.00,0.00,-45.00,0,1,3,0
3109.49,Powered Ascent,71.61,-2.93,88.44,8.21,8.21,8.21,0.00,1.01,43.87,94.82,97347.88,29.80,-771902976.00,427047328.00,232.91,69.36,-3.73,-43.20,309.36,14,9.14,1.01,43.87,1.94,-85.56,-18.81,-12.25,-30.38,-27.06,0.75,0.52,0.25,0.32,70.82,2.05,47.45,0.00,0.00,0.00,-45.00,0,1,3,0
3109.50,Powered Ascent,71.61,-2.93,89.33,8.21,8.21,8.21,0.00,-0.10,44.33,94.82,97347.88,29.80,-771902976.00,427047328.00,232.91,69.36,-3.73,-43.20,309.36,14,9.97,-0.10,44.33,2.44,-86.56,-19.44,-12.25,-30.38,-27.06,0.75,0.53,0.24,0.31,70.82,1.86,45.73,0.00,0.00,0.00,-45.00,0,1,3,0
3109.51,Coasting,71.65,-2.92,90.81,8.24,8.24,8.24,0.00,-0.19,44.01,103.30,97249.75,29.79,-771902976.00,427047328.00,232.91,69.36,-3.73,-43.20,309.36,14,8.60,-0.19,44.01,3.06,-88.06,-19.62,-12.25,-30.38,-27.06,0.76,0.53,0.23,0.30,70.81,1.75,44.85,0.00,0.00,0.00,-45.00,0,1,3,0
3109.92,Coasting,75.08,-2.12,133.86,8.74,8.74,8.74,0.00,-3.09,43.84,162.32,96569.73,29.79,-771902912.00,427047232.00,233.60,70.07,-4.53,-42.51,309.36,12,1.34,-3.09,43.84,-10.44,-149.62,-27.31,-4.69,-18.75,-27.50,0.82,0.57,-0.06,-0.00,69.37,-5.50,-4.47,0.00,0.00,0.00,-45.00,0,1,3,0
3109.99,Coasting,75.26,-2.24,145.36,7.91,7.91,7.91,0.00,-3.04,43.72,173.66,96439.55,29.78,-771902912.00,427047232.00,233.60,70.07,-4.53,-42.51,309.36,12,-1.29,-3.04,43.72,-8.75,-155.69,-29.94,-10.19,-17.38,-29.56,0.82,0.56,-0.13,-0.07,69.89,-7.26,-15.01,0.00,0.00,0.00,-45.00,0,1,3,0
3110.00,Coasting,74.83,-2.45,149.11,7.02,7.02,7.02,0.00,-2.25,43.40,173.66,96439.55,29.78,-771902912.00,427047232.00,233.60,70.07,-4.53,-42.51,309.36,12,-1.73,-2.25,43.40,-8.25,-156.94,-30.94,-10.19,-17.38,-29.56,0.81,0.56,-0.14,-0.08,70.01,-7.49,-16.55,0.00,0.00,0.00,-45.00,0,1,3,0
3110.01,Coasting,74.48,-2.64,152.66,6.25,6.25,6.25,0.00,-2.79,43.61,173.66,96439.55,29.78,-771902912.00,427047232.00,233.60,70.07,-4.53,-42.51,309.36,12,-1.97,-2.79,43.61,-7.62,-157.25,-31.12,-10.19,-17.38,-29.56,0.81,0.56,-0.14,-0.09,70.14,-7.73,-18.10,0.00,0.00,0.00,-45.00,0,1,3,0
3110.02,Coasting,74.17,-2.80,155.84,5.57,5.57,5.57,0.00,-2.66,43.56,173.66,96439.55,29.78,-771902912.00,427047232.00,233.60,70.07,-4.53,-42.51,309.36,12,-1.77,-2.66,43.56,-7.12,-158.25,-31.06,-10.19,-17.38,-29.56,0.81,0.56,-0.15,-0.10,70.28,-7.96,-19.66,0.00,0.00,0.00,-45.00,0,1,3,0
3110.03,Coasting,73.89,-2.94,159.60,4.97,4.97,4.97,0.00,-2.31,43.42,186.02,96297.80,29.69,-771902912.00,427047232.00,233.60,70.07,-4.53,-42.51,309.36,12,-1.75,-2.31,43.42,-7.12,-158.25,-31.06,-12.69,-17.25,-29.38,0.81,0.55,-0.16,-0.11,70.43,-8.19,-21.23,0.00,0.00,0.00,-45.00,0,1,3,0
3110.04,Coasting,73.63,-3.07,162.87,4.44,4.44,4.44,0.00,-2.12,43.33,186.02,96297.80,29.69,-771902912.00,427047232.00,233.60,70.07,-4.53,-42.51,309.36,12,-2.47,-2.12,43.33,-6.69,-158.88,-31.81,-12.69,-17.25,-29.38,0.81,0.55,-0.16,-0.11,70.43,-8.19,-21.23,0.00,0.00,0.00,-45.00,0,1,3,0
3110.05,Coasting,73.40,-3.19,165.69,3.96,3.96,3.96,0.00,-2.20,43.36,186.02,96297.80,29.69,-771902912.00,427047232.00,233.60,70.07,-4.53,-42.51,309.36,12,-2.88,-2.20,43.36,-6.50,-159.25,-32.44,-12.69,-17.25,-29.38,0.80,0.55,-0.18,-0.13,70.78,-8.62,-24.39,0.00,0.00,0.00,-45.00,0,1,3,0
3110.06,Coasting,73.21,-3.30,168.83,3.51,3.51,3.51,0.00,-2.14,43.32,186.02,96297.80,29.69,-771902912.00,427047232.00,233.60,70.07,-4.53,-42.51,309.36,12,-2.86,-2.14,43.32,-5.69,-160.81,-33.25,-12.69,-17.25,-29.38,0.80,0.55,-0.19,-0.14,70.96,-8.83,-25.98,0.00,0.00,0.00,-45.00,0,1,3,0
3110.07,Coasting,73.03,-3.40,171.60,3.10,3.10,3.10,0.00,-1.63,43.13,186.02,96297.80,29.69,-771902912.00,427047232.00,233.60,70.07,-4.53,-42.51,309.36,12,-3.68,-1.63,43.13,-5.12,-161.88,-33.75,-12.69,-17.25,-29.38,0.80,0.55,-0.20,-0.15,71.17,-9.02,-27.59,0.00,0.00,0.00,-45.00,0,1,3,0
3110.08,Coasting,72.86,-3.48,174.03,2.73,2.73,2.73,0.00,-1.17,42.94,186.02,96297.80,29.69,-771902912.00,427047232.00,233.60,70.07,-4.53,-42.51,309.36,12,-3.57,-1.17,42.94,-5.12,-161.88,-33.75,-12.69,-17.25,-29.38,0.80,0.55,-0.21,-0.16,71.37,-9.22,-29.21,0.00,0.00,0.00,-45.00,0,1,3,0
3110.09,Coasting,72.70,-3.57,176.13,2.39,2.39,2.39,0.00,-1.37,43.01,186.02,96297.80,29.69,-771902912.00,427047232.00,233.60,70.07,-4.53,-42.51,309.36,12,-3.87,-1.37,43.01,-5.19,-162.50,-34.12,-15.88,-17.69,-29.56,0.80,0.55,-0.21,-0.16,71.37,-9.22,-29.21,0.00,0.00,0.00,-45.00,0,1,3,0
3110.10,Coasting,72.55,-3.64,178.73,2.08,2.08,2.08,0.00,-1.48,43.02,198.54,96154.36,29.66,-771902912.00,427047232.00,233.60,70.07,-4.53,-42.51,309.36,12,-2.96,-1.48,43.02,-5.31,-163.25,-34.56,-15.88,-17.69,-29.56,0.79,0.54,-0.23,-0.18,71.80,-9.57,-32.46,0.00,0.00,0.00,-45.00,0,1,3,0
3110.11,Coasting,72.43,-3.71,181.76,1.77,1.77,1.77,0.00,-1.16,42.97,198.54,96154.36,29.66,-771902912.00,427047232.00,233.60,70.07,-4.53,-42.51,309.36,12,-5.32,-1.16,42.97,-5.00,-163.81,-36.19,-15.88,-17.69,-29.56,0.79,0.54,-0.24,-0.19,72.03,-9.73,-34.10,0.00,0.00,0.00,-45.00,0,1,3,0
3110.12,Coasting,72.30,-3.78,184.46,1.49,1.49,1.49,0.00,-1.56,43.04,198.54,96154.36,29.66,-771902912.00,427047232.00,233.60,70.07,-4.53,-42.51,309.36,12,-3.82,-1.56,43.04,-4.56,-164.50,-36.81,-15.88,-17.69,-29.56,0.78,0.54,-0.25,-0.20,72.26,-9.88,-35.75,0.00,0.00,0.00,-45.00,0,1,3,0
3110.13,Coasting,72.19,-3.85,186.84,1.22,1.22,1.22,0.00,-0.83,42.81,198.54,96154.36,29.66,-771902912.00,427047232.00,233.60,70.07,-4.53,-42.51,309.36,12,-5.08,-0.83,42.81,-4.56,-164.50,-36.81,-15.88,-17.69,-29.56,0.78,0.54,-0.26,-0.21,72.50,-10.02,-37.41,0.00,0.00,0.00,-45.00,0,1,3,0
3110.14,Coasting,72.08,-3.90,188.93,0.98,0.98,0.98,0.00,-0.91,42.77,198.54,96154.36,29.66,-771902912.00,427047232.00,233.60,70.07,-4.53,-42.51,309.36,12,-3.92,-0.91,42.77,-4.69,-164.69,-37.06,-18.06,-17.06,-27.69,0.78,0.54,-0.26,-0.21,72.50,-10.02,-37.41,0.00,0.00,0.00,-45.00,0,1,3,0
3110.15,Coasting,71.97,-3.95,190.73,0.76,0.76,0.76,0.00,-1.02,42.86,198.54,96154.36,29.66,-771902912.00,427047232.00,233.60,70.07,-4.53,-42.51,309.36,12,-5.06,-1.02,42.86,-4.44,-165.19,-37.94,-18.06,-17.06,-27.69,0.77,0.53,-0.27,-0.23,73.00,-10.26,-40.74,0.00,0.00,0.00,-45.00,0,1,3,0
3110.16,Coasting,71.88,-4.01,193.69,0.53,0.53,0.53,0.00,-0.72,42.72,209.78,96025.77,29.71,-771902912.00,427047232.00,233.60,70.07,-4.53,-42.51,309.36,12,-4.90,-0.72,42.72,-5.12,-166.94,-39.25,-18.06,-17.06,-27.69,0.76,0.53,-0.28,-0.24,73.25,-10.37,-42.43,0.00,0.00,0.00,-45.00,0,1,3,0
3110.17,Coasting,71.79,-4.06,196.33,0.32,0.32,0.32,0.00,-0.50,42.60,209.78,96025.77,29.71,-771902912.00,427047232.00,233.60,70.07,-4.53,-42.51,309.36,12,-4.51,-0.50,42.60,-5.75,-168.00,-39.50,-18.06,-17.06,-27.69,0.76,0.52,-0.29,-0.25,73.50,-10.47,-44.12,0.00,0.00,0.00,-45.00,0,1,3,0
3110.18,Coasting,71.70,-4.11,198.84,0.11,0.11,0.11,0.00,-0.30,42.60,209.78,96025.77,29.71,-771902912.00,427047232.00,233.60,70.07,-4.53,-42.51,309.36,12,-5.62,-0.30,42.60,-5.75,-168.00,-39.50,-18.06,-17.06,-27.69,0.76,0.52,-0.30,-0.26,73.76,-10.55,-45.82,0.00,0.00,0.00,-45.00,0,1,3,0
3110.19,Coasting,71.62,-4.15,200.73,-0.06,-0.06,-0.06,0.00,0.52,42.16,209.78,96025.77,29.71,-771902912.00,427047232.00,233.60,70.07,-4.53,-42.51,309.36,12,-3.85,0.52,42.16,-5.69,-168.62,-40.25,-21.25,-16.50,-26.06,0.76,0.52,-0.30,-0.26,73.76,-10.55,-45.82,0.00,0.00,0.00,-45.00,0,1,3,0
3110.20,Coasting,71.54,-4.19,202.69,-0.23,-0.23,-0.23,0.00,0.97,42.08,209.78,96025.77,29.71,-771902912.00,427047232.00,233.60,70.07,-4.53,-42.51,309.36,12,-4.83,0.97,42.08,-7.06,-169.56,-40.69,-21.25,-16.50,-26.06,0.75,0.52,-0.32,-0.28,74.26,-10.70,-49.28,0.00,0.00,0.00,-45.00,0,1,3,0
3110.21,Coasting,71.46,-4.23,204.88,-0.42,-0.42,-0.42,0.00,0.74,42.29,209.78,96025.77,29.71,-771902912.00,427047232.00,233.60,70.07,-4.53,-42.51,309.36,12,-6.41,0.74,42.29,-7.06,-170.94,-41.12,-21.25,-16.50,-26.06,0.74,0.51,-0.33,-0.29,74.51,-10.77,-51.01,0.00,0.00,0.00,-45.00,0,1,3,0
3110.22,Coasting,71.39,-4.27,207.52,-0.59,-0.59,-0.59,0.00,0.56,42.26,220.87,96025.77,29.71,-771902912.00,427047232.00,233.60,70.07,-4.53,-42.51,309.36,12,-5.48,0.56,42.26,-7.25,-173.06,-40.56,-21.25,-16.50,-26.06,0.73,0.51,-0.34,-0.30,74.76,-10.83,-52.76,0.00,0.00,0.00,-45.00,0,1,3,0
3110.23,Coasting,71.32,-4.31,210.04,-0.74,-0.74,-0.74,0.00,0.71,42.13,220.87,95898.94,29.78,-771902912.00,427047232.00,233.60,70.07,-4.53,-42.51,309.36,12,-4.84,0.71,42.13,-7.25,-173.06,-40.56,-21.25,-16.50,-26.06,0.73,0.50,-0.34,-0.31,75.02,-10.89,-54.52,0.00,0.00,0.00,-45.00,1,1,3,0
3110.24,Coasting,71.25,-4.34,211.92,-0.88,-0.88,-0.88,0.00,0.39,42.28,220.87,95898.94,29.78,-771902912.00,427047232.00,233.60,70.07,-4.53,-42.51,309.36,12,-5.41,0.39,42.28,-7.69,-174.06,-40.50,-23.38,-18.56,-22.75,0.73,0.50,-0.34,-0.31,75.02,-10.89,-54.52,0.00,0.00,0.00,-45.00,1,1,3,0
3110.25,Coasting,71.19,-4.37,213.89,-1.02,-1.02,-1.02,0.00,0.69,42.23,220.87,95898.94,29.78,-771902912.00,427047232.00,233.60,70.07,-4.53,-42.51,309.36,12,-5.89,0.69,42.23,-8.19,-175.31,-41.44,-23.38,-18.56,-22.75,0.72,0.50,-0.36,-0.33,75.54,-10.97,-58.08,0.00,0.00,0.00,-45.00,1,1,3,0
3110.26,Coasting,71.13,-4.41,216.30,-1.19,-1.19,-1.19,0.00,0.72,42.33,220.87,95898.94,29.78,-771902912.00,427047232.00,233.60,70.07,-4.53,-42.51,309.36,12,-6.84,0.72,42.33,-7.69,-177.06,-42.25,-23.38,-18.56,-22.75,0.71,0.49,-0.37,-0.34,75.80,-11.00,-59.88,0.00,0.00,0.00,-45.00,1,1,3,0
3110.27,Coasting,71.07,-4.44,218.43,-1.33,-1.33,-1.33,0.00,1.74,41.95,220.87,95898.94,29.78,-771902912.00,427047232.00,233.60,70.07,-4.53,-42.51,309.36,12,-6.30,1.74,41.95,-7.56,-177.88,-42.19,-23.38,-18.56,-22.75,0.70,0.49,-0.38,-0.35,76.08,-11.02,-61.68,0.00,0.00,0.00,-45.00,1,1,3,0
3110.28,Coasting,71.01,-4.47,220.29,-1.46,-1.46,-1.46,0.00,1.62,41.85,220.87,95898.94,29.78,-771902912.00,427047232.00,233.60,70.07,-4.53,-42.51,309.36,12,-5.35,1.62,41.85,-7.56,-177.88,-42.19,-23.38,-18.56,-22.75,0.70,0.48,-0.39,-0.36,76.35,-11.04,-63.49,0.00,0.00,0.00,-45.00,1,1,3,0
3110.29,Coasting,70.95,-4.49,222.46,-1.57,-1.57,-1.57,0.00,2.07,41.73,233.54,95754.28,29.78,-771902912.00,427047232.00,233.60,70.07,-4.53,-42.51,309.36,12,-5.50,2.07,41.73,-7.81,-179.31,-41.62,-25.69,-18.38,-20.50,0.70,0.48,-0.39,-0.36,76.35,-11.04,-63.49,0.00,0.00,0.00,-45.00,1,1,3,0
3110.30,Coasting,70.90,-4.51,224.36,-1.68,-1.68,-1.68,0.00,1.18,42.04,233.54,95754.28,29.78,-771902912.00,427047232.00,233.60,70.07,-4.53,-42.51,309.36,12,-5.98,1.18,42.04,-8.62,-180.44,-42.00,-25.69,-18.38,-20.50,0.68,0.47,-0.41,-0.38,76.89,-11.07,-67.17,0.00,0.00,0.00,-45.00,1,1,3,0
3110.31,Coasting,70.84,-4.54,226.89,-1.82,-1.82,-1.82,0.00,2.26,41.94,233.54,95754.28,29.78,-771902912.00,427047232.00,233.60,70.07,-4.53,-42.51,309.36,12,-7.41,2.26,41.94,-7.88,-182.75,-41.69,-25.69,-18.38,-20.50,0.68,0.47,-0.41,-0.39,77.16,-11.08,-69.01,0.00,0.00,0.00,-45.00,1,1,3,0
3110.32,Coasting,70.79,-4.57,229.14,-1.93,-1.93,-1.93,0.00,2.13,41.68,233.54,95754.28,29.78,-771902912.00,427047232.00,233.60,70.07,-4.53,-42.51,309.36,12,-5.45,2.13,41.68,-6.88,-184.12,-41.19,-25.69,-18.38,-20.50,0.67,0.46,-0.42,-0.40,77.45,-11.08,-70.87,0.00,0.00,0.00,-45.00,1,1,3,0
3110.33,Coasting,70.74,-4.59,231.31,-2.04,-2.04,-2.04,0.00,2.16,41.67,233.54,95754.28,29.78,-771902912.00,427047232.00,233.60,70.07,-4.53,-42.51,309.36,12,-5.51,2.16,41.67,-6.88,-184.12,-41.19,-25.69,-18.38,-20.50,0.66,0.46,-0.43,-0.41,77.74,-11.07,-72.75,0.00,0.00,0.00,-45.00,2,1,3,0
3110.34,Coasting,70.69,-4.60,232.85,-2.13,-2.13,-2.13,0.00,2.56,41.57,233.54,95754.28,29.78,-771902912.00,427047232.00,233.60,70.07,-4.53,-42.51,309.36,12,-5.58,2.56,41.57,-8.12,-185.38,-41.69,-27.50,-18.50,-18.06,0.66,0.46,-0.43,-0.41,77.74,-11.07,-72.75,0.00,0.00,0.00,-45.00,2,1,3,0
3110.35,Coasting,70.65,-4.62,234.50,-2.23,-2.23,-2.23,0.00,3.05,41.66,233.54,95754.28,29.78,-771902912.00,427047232.00,233.60,70.07,-4.53,-42.51,309.36,12,-7.02,3.05,41.66,-8.31,-186.56,-41.38,-27.50,-18.50,-18.06,0.64,0.45,-0.45,-0.43,78.30,-11.04,-76.53,0.00,0.00,0.00,-45.00,2,1,3,0
3110.36,Coasting,70.60,-4.64,236.98,-2.34,-2.34,-2.34,0.00,3.17,41.47,246.44,95607.14,29.78,-771902912.00,427047232.00,233.60,70.07,-4.53,-42.51,309.36,12,-5.99,3.17,41.47,-7.81,-188.88,-40.88,-27.50,-18.50,-18.06,0.64,0.44,-0.46,-0.44,78.59,-11.02,-78.43,0.00,0.00,0.00,-45.00,2,1,3,0
3110.37,Coasting,70.55,-4.66,239.37,-2.43,-2.43,-2.43,0.00,3.71,41.33,246.44,95607.14,29.78,-771902912.00,427047232.00,233.60,70.07,-4.53,-42.51,309.36,12,-5.97,3.71,41.33,-7.50,-189.88,-41.06,-27.50,-18.50,-18.06,0.63,0.44,-0.46,-0.45,78.88,-10.98,-80.35,0.00,0.00,0.00,-45.00,2,1,3,0
3110.38,Coasting,70.51,-4.68,241.67,-2.53,-2.53,-2.53,0.00,3.08,41.44,246.44,95607.14,29.78,-771902912.00,427047232.00,233.60,70.07,-4.53,-42.51,309.36,12,-5.79,3.08,41.44,-7.50,-189.88,-41.06,-27.50,-18.50,-18.06,0.62,0.43,-0.47,-0.46,79.18,-10.95,-82.28,0.00,0.00,0.00,-45.00,2,1,3,0
3110.39,Coasting,70.47,-4.69,243.33,-2.60,-2.60,-2.60,0.00,3.70,41.36,246.44,95607.14,29.78,-771902912.00,427047232.00,233.60,70.07,-4.53,-42.51,309.36,12,-6.20,3.70,41.36,-7.56,-191.38,-40.81,-27.50,-18.50,-13.50,0.62,0.43,-0.47,-0.46,79.18,-10.95,-82.28,0.00,0.00,0.00,-45.00,2,1,3,0
3110.40,Coasting,70.43,-4.70,245.12,-2.68,-2.68,-2.68,0.00,3.86,41.31,246.44,95607.14,29.78,-771902912.00,427047232.00,233.60,70.07,-4.53,-42.51,309.36,12,-6.17,3.86,41.31,-7.75,-192.50,-40.94,-27.50,-18.50,-13.50,0.60,0.42,-0.49,-0.48,79.75,-10.86,-86.17,0.00,0.00,0.00,-45.00,2,1,3,0
3110.41,Coasting,70.38,-4.72,247.20,-2.77,-2.77,-2.77,0.00,4.08,41.28,246.44,95607.14,29.78,-771902912.00,427047232.00,233.60,70.07,-4.53,-42.51,309.36,12,-6.27,4.08,41.28,-8.25,-193.50,-40.19,-27.50,-18.50,-13.50,0.59,0.41,-0.50,-0.49,80.05,-10.80,-88.13,0.00,0.00,0.00,-45.00,2,1,3,0
3110.42,Coasting,70.34,-4.73,249.68,-2.86,-2.86,-2.86,0.00,3.75,41.31,258.58,95468.88,29.78,-771902912.00,427047232.00,233.60,70.07,-4.53,-42.51,309.36,12,-6.12,3.75,41.31,-7.88,-195.38,-40.25,-27.50,-18.50,-13.50,0.58,0.40,-0.51,-0.50,80.34,-10.74,-90.09,0.00,0.00,0.00,-45.00,2,1,3,0
3110.43,Coasting,70.30,-4.74,252.08,-2.94,-2.94,-2.94,0.00,2.50,41.49,258.58,95468.88,29.78,-771902912.00,427047232.00,233.60,70.07,-4.53,-42.51,309.36,12,-5.85,2.50,41.49,-7.88,-195.38,-40.25,-27.50,-18.50,-13.50,0.57,0.40,-0.51,-0.50,80.63,-10.66,-92.05,0.00,0.00,0.00,-45.00,2,1,3,0
3110.44,Coasting,70.26,-4.75,254.01,-3.01,-3.01,-3.01,0.00,4.68,41.13,258.58,95468.88,29.78,-771902912.00,427047232.00,233.60,70.07,-4.53,-42.51,309.36,12,-6.21,4.68,41.13,-8.06,-195.12,-41.19,-29.50,-18.38,-10.50,0.57,0.40,-0.51,-0.50,80.63,-10.66,-92.05,0.00,0.00,0.00,-45.00,2,1,3,0
3110.45,Coasting,70.23,-4.76,255.69,-3.07,-3.07,-3.07,0.00,4.63,41.16,258.58,95468.88,29.78,-771902912.00,427047232.00,233.60,70.07,-4.53,-42.51,309.36,12,-6.32,4.63,41.16,-7.50,-195.44,-41.69,-29.50,-18.38,-10.50,0.55,0.38,-0.53,-0.52,81.21,-10.46,-95.99,0.00,0.00,0.00,-45.00,2,1,3,0
3110.46,Coasting,70.19,-4.77,258.05,-3.15,-3.15,-3.15,0.00,5.48,41.02,258.58,95468.88,29.78,-771902912.00,427047232.00,233.60,70.07,-4.53,-42.51,309.36,12,-6.41,5.48,41.02,-5.94,-197.50,-40.75,-29.50,-18.38,-10.50,0.54,0.38,-0.54,-0.53,81.51,-10.36,-97.98,0.00,0.00,0.00,-45.00,2,1,3,0
3110.47,Coasting,70.15,-4.78,260.15,-3.22,-3.22,-3.22,0.00,3.59,41.11,258.58,95468.88,29.78,-771902912.00,427047232.00,233.60,70.07,-4.53,-42.51,309.36,12,-5.21,3.59,41.11,-6.44,-197.75,-41.06,-29.50,-18.38,-10.50,0.53,0.37,-0.54,-0.54,81.80,-10.25,-99.95,0.00,0.00,0.00,-45.00,2,1,3,0
3110.49,Coasting,70.11,-4.79,262.65,-3.27,-3.27,-3.27,0.00,3.70,40.94,271.28,95468.88,29.78,-771902912.00,427047232.00,233.60,70.07,-4.53,-42.51,309.36,12,-4.46,3.70,40.94,-6.44,-197.75,-41.06,-28.38,-20.00,-7.25,0.52,0.36,-0.55,-0.55,82.09,-10.11,-101.95,0.00,0.00,0.00,-45.00,2,1,3,0
3110.49,Coasting,70.08,-4.79,264.49,-3.32,-3.32,-3.32,0.00,5.46,40.87,271.28,95324.41,29.77,-771902912.00,427047232.00,233.60,70.07,-4.53,-42.51,309.36,12,-5.64,5.46,40.87,-6.06,-198.44,-42.25,-28.38,-20.00,-7.25,0.52,0.36,-0.55,-0.55,82.09,-10.11,-101.95,0.00,0.00,0.00,-45.00,2,1,3,0
3110.50,Coasting,70.05,-4.80,266.45,-3.37,-3.37,-3.37,0.00,5.98,40.88,271.28,95324.41,29.77,-771902912.00,427047232.00,233.60,70.07,-4.53,-42.51,309.36,12,-6.14,5.98,40.88,-8.00,-198.44,-43.19,-28.38,-20.00,-7.25,0.50,0.34,-0.56,-0.56,82.64,-9.81,-105.95,0.00,0.00,0.00,-45.00,2,1,3,0
3110.51,Coasting,70.02,-4.80,268.73,-3.44,-3.44,-3.44,0.00,5.10,40.93,271.28,95324.41,29.77,-771902912.00,427047232.00,233.60,70.07,-4.53,-42.51,309.36,12,-5.82,5.10,40.93,-6.44,-200.19,-42.31,-28.38,-20.00,-7.25,0.48,0.34,-0.57,-0.57,82.91,-9.64,-107.95,0.00,0.00,0.00,-45.00,2,1,3,0
3110.52,Coasting,69.98,-4.81,270.94,-3.49,-3.49,-3.49,0.00,3.91,40.94,271.28,95324.41,29.77,-771902912.00,427047232.00,233.60,70.07,-4.53,-42.51,309.36,12,-5.12,3.91,40.94,-5.19,-201.81,-42.19,-28.38,-20.00,-7.25,0.47,0.33,-0.58,-0.58,83.19,-9.47,-109.97,0.00,0.00,0.00,-45.00,2,1,3,0
3110.53,Coasting,69.94,-4.81,273.07,-3.54,-3.54,-3.54,0.00,5.10,40.81,271.28,95324.41,29.77,-771902912.00,427047232.00,233.60,70.07,-4.53,-42.51,309.36,12,-5.32,5.10,40.81,-5.19,-201.81,-42.19,-28.38,-20.00,-7.25,0.46,0.32,-0.58,-0.59,83.46,-9.28,-111.99,0.00,0.00,0.00,-45.00,2,1,3,0
3110.54,Coasting,69.92,-4.81,274.55,-3.58,-3.58,-3.58,0.00,6.34,40.58,271.28,95324.41,29.77,-771902912.00,427047232.00,233.60,70.07,-4.53,-42.51,309.36,12,-4.82,6.34,40.58,-6.50,-202.06,-43.94,-28.38,-19.75,-2.56,0.46,0.32,-0.58,-0.59,83.46,-9.28,-111.99,0.00,0.00,0.00,-45.00,2,1,3,0
3110.55,Coasting,69.89,-4.81,276.65,-3.62,-3.62,-3.62,0.00,6.19,40.80,284.83,95170.50,29.77,-771902912.00,427047232.00,233.60,70.07,-4.53,-42.51,309.36,12,-6.10,6.19,40.80,-6.50,-202.44,-43.56,-28.38,-19.75,-2.56,0.44,0.30,-0.60,-0.60,83.96,-8.86,-116.03,0.00,0.00,0.00,-45.00,2,1,3,0
3110.56,Coasting,69.85,-4.81,279.26,-3.69,-3.69,-3.69,0.00,5.20,40.87,284.83,95170.50,29.77,-771902912.00,427047232.00,233.60,70.07,-4.53,-42.51,309.36,12,-6.01,5.20,40.87,-6.38,-204.00,-43.56,-28.38,-19.75,-2.56,0.42,0.30,-0.60,-0.61,84.21,-8.65,-118.06,0.00,0.00,0.00,-45.00,2,1,3,0
3110.57,Coasting,69.82,-4.82,281.59,-3.74,-3.74,-3.74,0.00,4.44,40.80,284.83,95170.50,29.77,-771902912.00,427047232.00,233.60,70.07,-4.53,-42.51,309.36,12,-5.34,4.44,40.80,-7.69,-204.00,-45.50,-28.38,-19.75,-2.56,0.41,0.29,-0.61,-0.62,84.44,-8.40,-120.09,0.00,0.00,0.00,-45.00,2,1,3,0
3110.58,Coasting,69.79,-4.82,283.66,-3.78,-3.78,-3.78,0.00,6.33,40.64,284.83,95170.50,29.77,-771902912.00,427047232.00,233.60,70.07,-4.53,-42.51,309.36,12,-5.38,6.33,40.64,-7.69,-204.00,-45.50,-28.38,-19.75,-2.56,0.40,0.28,-0.61,-0.62,84.66,-8.15,-122.13,0.00,0.00,0.00,-45.00,2,1,3,0
3110.59,Coasting,69.77,-4.81,285.46,-3.81,-3.81,-3.81,0.00,7.03,40.46,284.83,95170.50,29.77,-771902912.00,427047232.00,233.60,70.07,-4.53,-42.51,309.36,12,-4.64,7.03,40.46,-7.50,-205.25,-45.56,-27.25,-19.56,2.69,0.40,0.28,-0.61,-0.62,84.66,-8.15,-122.13,0.00,0.00,0.00,-45.00,2,1,3,0
3110.60,Coasting,69.75,-4.81,287.01,-3.84,-3.84,-3.84,0.00,6.68,40.60,284.83,95170.50,29.77,-771902912.00,427047232.00,233.60,70.07,-4.53,-42.51,309.36,12,-5.38,6.68,40.60,-8.81,-206.12,-46.19,-27.25,-19.56,2.69,0.37,0.26,-0.62,-0.64,85.05,-7.63,-126.23,0.00,0.00,0.00,-45.00,2,1,3,0
3110.61,Coasting,69.71,-4.81,289.29,-3.88,-3.88,-3.88,0.00,5.79,40.57,284.83,95170.50,29.77,-771902912.00,427047232.00,233.60,70.07,-4.53,-42.51,309.36,12,-4.88,5.79,40.57,-8.88,-206.94,-45.25,-27.25,-19.56,2.69,0.36,0.25,-0.63,-0.64,85.23,-7.36,-128.29,0.00,0.00,0.00,-45.00,2,1,3,0
3110.62,Coasting,69.68,-4.81,291.78,-3.91,-3.91,-3.91,0.00,5.50,40.53,299.06,95008.98,29.77,-771902912.00,427047232.00,233.60,70.07,-4.53,-42.51,309.36,12,-4.61,5.50,40.53,-8.31,-208.88,-46.00,-27.25,-19.56,2.69,0.35,0.24,-0.63,-0.65,85.42,-7.08,-130.36,0.00,0.00,0.00,-45.00,2,1,3,0
3110.64,Coasting,69.65,-4.80,294.19,-3.95,-3.95,-3.95,0.00,6.84,40.50,299.06,95008.98,29.77,-771902912.00,427047232.00,233.60,70.07,-4.53,-42.51,309.36,12,-4.90,6.84,40.50,-8.31,-208.88,-46.00,-27.25,-19.56,2.69,0.33,0.23,-0.64,-0.65,85.57,-6.80,-132.44,0.00,0.00,0.00,-45.00,2,1,3,0
3110.64,Coasting,69.63,-4.80,295.94,-3.97,-3.97,-3.97,0.00,5.84,40.49,299.06,95008.98,29.77,-771902912.00,427047232.00,233.60,70.07,-4.53,-42.51,309.36,12,-4.61,5.84,40.49,-9.44,-209.69,-46.44,-24.06,-20.56,6.38,0.33,0.23,-0.64,-0.65,85.57,-6.80,-132.44,0.00,0.00,0.00,-45.00,2,1,3,0
3110.65,Coasting,69.61,-4.79,297.83,-3.99,-3.99,-3.99,0.00,7.29,40.40,299.06,95008.98,29.77,-771902912.00,427047232.00,233.60,70.07,-4.53,-42.51,309.36,12,-4.34,7.29,40.40,-9.19,-210.81,-46.44,-24.06,-20.56,6.38,0.30,0.21,-0.65,-0.67,85.87,-6.21,-136.61,0.00,0.00,0.00,-45.00,2,1,3,0
3110.66,Coasting,69.58,-4.79,300.06,-4.01,-4.01,-4.01,0.00,7.08,40.35,299.06,95008.98,29.77,-771902912.00,427047232.00,233.60,70.07,-4.53,-42.51,309.36,12,-3.92,7.08,40.35,-10.06,-212.44,-46.62,-24.06,-20.56,6.38,0.29,0.20,-0.65,-0.67,85.99,-5.90,-138.71,0.00,0.00,0.00,-45.00,2,1,3,0
3110.68,Coasting,69.55,-4.78,302.21,-4.03,-4.03,-4.03,0.00,6.63,40.35,299.06,95008.98,29.77,-771902912.00,427047232.00,233.60,70.07,-4.53,-42.51,309.36,12,-3.89,6.63,40.35,-10.19,-212.81,-45.38,-24.06,-20.56,6.38,0.28,0.20,-0.65,-0.68,86.10,-5.61,-140.80,0.00,0.00,0.00,-45.00,2,1,3,0
3110.69,Coasting,69.53,-4.78,304.76,-4.07,-4.07,-4.07,0.00,7.00,40.49,312.89,94852.30,29.77,-771902912.00,427047232.00,233.60,70.07,-4.53,-42.51,309.36,12,-5.14,7.00,40.49,-10.19,-212.81,-45.38,-24.06,-20.56,6.38,0.26,0.19,-0.66,-0.68,86.20,-5.31,-142.90,0.00,0.00,0.00,-45.00,2,1,3,0
3110.69,Coasting,69.51,-4.77,306.62,-4.09,-4.09,-4.09,0.00,6.74,40.51,312.89,94852.30,29.77,-771902912.00,427047232.00,233.60,70.07,-4.53,-42.51,309.36,12,-5.32,6.74,40.51,-9.56,-213.50,-45.38,-21.50,-21.19,10.06,0.26,0.19,-0.66,-0.68,86.20,-5.31,-142.90,0.00,0.00,0.00,-45.00,2,1,3,0
3110.70,Coasting,69.49,-4.76,308.63,-4.11,-4.11,-4.11,0.00,6.50,40.43,312.89,94852.30,29.77,-771902912.00,427047232.00,233.60,70.07,-4.53,-42.51,309.36,12,-4.79,6.50,40.43,-8.94,-214.19,-45.31,-21.50,-21.19,10.06,0.23,0.17,-0.66,-0.69,86.41,-4.68,-147.12,0.00,0.00,0.00,-45.00,2,1,3,0
3110.71,Coasting,69.46,-4.76,310.98,-4.13,-4.13,-4.13,0.00,7.46,40.35,312.89,94852.30,29.77,-771902912.00,427047232.00,233.60,70.07,-4.53,-42.51,309.36,12,-4.02,7.46,40.35,-7.56,-215.19,-46.56,-21.50,-21.19,10.06,0.22,0.15,-0.67,-0.69,86.50,-4.36,-149.23,0.00,0.00,0.00,-45.00,2,1,3,0
3110.73,Coasting,69.44,-4.75,313.26,-4.15,-4.15,-4.15,0.00,5.20,40.28,312.89,94852.30,29.77,-771902912.00,427047232.00,233.60,70.07,-4.53,-42.51,309.36,12,-3.66,5.20,40.28,-8.56,-216.06,-47.19,-21.50,-21.19,10.06,0.20,0.14,-0.67,-0.70,86.57,-4.03,-151.35,0.00,0.00,0.00,-45.00,2,1,3,0
3110.74,Coasting,69.41,-4.74,315.48,-4.16,-4.16,-4.16,0.00,5.65,40.29,312.89,94852.30,29.77,-771902912.00,427047232.00,233.60,70.07,-4.53,-42.51,309.36,12,-3.89,5.65,40.29,-8.56,-216.06,-47.19,-21.50,-21.19,10.06,0.19,0.13,-0.67,-0.70,86.63,-3.70,-153.47,0.00,0.00,0.00,-45.00,1,1,3,0
3110.75,Coasting,69.39,-4.73,317.22,-4.18,-4.18,-4.18,0.00,6.92,40.41,312.89,94852.30,29.77,-771902912.00,427047232.00,233.60,70.07,-4.53,-42.51,309.36,12,-5.14,6.92,40.41,-8.75,-216.62,-47.31,-19.75,-22.56,12.69,0.19,0.13,-0.67,-0.70,86.63,-3.70,-153.47,0.00,0.00,0.00,-45.00,1,1,3,0
3110.75,Coasting,69.38,-4.72,319.14,-4.20,-4.20,-4.20,0.00,7.62,40.38,326.84,94694.48,29.76,-771902912.00,427047232.00,233.60,70.07,-4.53,-42.51,309.36,12,-4.65,7.62,40.38,-9.81,-216.56,-47.75,-19.75,-22.56,12.69,0.16,0.11,-0.68,-0.71,86.69,-3.02,-157.73,0.00,0.00,0.00,-45.00,1,1,3,0
3110.76,Coasting,69.35,-4.71,321.82,-4.21,-4.21,-4.21,0.00,6.91,40.28,326.84,94694.48,29.76,-771902912.00,427047232.00,233.60,70.07,-4.53,-42.51,309.36,12,-3.83,6.91,40.28,-7.50,-218.00,-48.69,-19.75,-22.56,12.69,0.14,0.10,-0.68,-0.71,86.73,-2.66,-159.86,0.00,0.00,0.00,-45.00,1,1,3,0
3110.78,Coasting,69.33,-4.70,324.22,-4.22,-4.22,-4.22,0.00,7.09,40.23,326.84,94694.48,29.76,-771902912.00,427047232.00,233.60,70.07,-4.53,-42.51,309.36,12,-3.02,7.09,40.23,-7.31,-218.69,-48.25,-19.75,-22.56,12.69,0.13,0.09,-0.68,-0.72,86.75,-2.32,-162.00,0.00,0.00,0.00,-45.00,1,1,3,0
3110.79,Coasting,69.30,-4.69,326.55,-4.24,-4.24,-4.24,0.00,5.52,40.20,326.84,94694.48,29.76,-771902912.00,427047232.00,233.60,70.07,-4.53,-42.51,309.36,12,-3.88,5.52,40.20,-7.31,-218.69,-48.25,-13.25,-23.19,16.56,0.11,0.08,-0.68,-0.72,86.75,-1.97,-164.17,0.00,0.00,0.00,-45.00,1,1,3,0
3110.79,Coasting,69.29,-4.68,328.20,-4.24,-4.24,-4.24,0.00,6.69,40.24,326.84,94694.48,29.76,-771902912.00,427047232.00,233.60,70.07,-4.53,-42.51,309.36,12,-3.89,6.69,40.24,-8.69,-221.25,-48.38,-13.25,-23.19,16.56,0.11,0.08,-0.68,-0.72,86.75,-1.97,-164.17,0.00,0.00,0.00,-45.00,1,1,3,0
3110.80,Coasting,69.28,-4.67,330.01,-4.24,-4.24,-4.24,0.00,7.58,40.25,326.84,94694.48,29.76,-771902912.00,427047232.00,233.60,70.07,-4.53,-42.51,309.36,12,-3.51,7.58,40.25,-8.69,-221.25,-48.38,-13.25,-23.19,16.56,0.08,0.06,-0.68,-0.72,86.70,-1.27,-168.51,0.00,0.00,0.00,-45.00,1,1,3,0
3110.81,Coasting,69.26,-4.65,332.61,-4.25,-4.25,-4.25,0.00,6.78,40.21,341.37,94530.20,29.77,-771902912.00,427047232.00,233.60,70.07,-4.53,-42.51,309.36,12,-3.61,6.78,40.21,-9.12,-222.00,-48.81,-13.25,-23.19,16.56,0.06,0.05,-0.68,-0.72,86.67,-0.93,-170.69,0.00,0.00,0.00,-45.00,1,1,3,0
3110.83,Coasting,69.23,-4.64,335.14,-4.27,-4.27,-4.27,0.00,6.93,40.22,341.37,94530.20,29.77,-771902912.00,427047232.00,233.60,70.07,-4.53,-42.51,309.36,12,-4.21,6.93,40.22,-8.94,-224.38,-49.12,-13.25,-23.19,16.56,0.05,0.04,-0.68,-0.73,86.61,-0.58,-172.89,0.00,0.00,0.00,-45.00,1,1,3,0
3110.84,Coasting,69.21,-4.63,337.60,-4.28,-4.28,-4.28,0.00,6.17,40.15,341.37,94530.20,29.77,-771902912.00,427047232.00,233.60,70.07,-4.53,-42.51,309.36,12,-3.49,6.17,40.15,-8.94,-224.38,-49.12,-13.25,-23.19,16.56,0.03,0.03,-0.68,-0.73,86.53,-0.24,-175.09,0.00,0.00,0.00,-45.00,1,1,3,0
3110.84,Coasting,69.20,-4.62,339.38,-4.28,-4.28,-4.28,0.00,6.90,40.19,341.37,94530.20,29.77,-771902912.00,427047232.00,233.60,70.07,-4.53,-42.51,309.36,12,-4.26,6.90,40.19,-9.56,-224.88,-48.69,-9.19,-23.19,15.50,0.03,0.03,-0.68,-0.73,86.53,-0.24,-175.09,0.00,0.00,0.00,-45.00,1,1,3,0
3110.85,Coasting,69.19,-4.60,341.31,-4.28,-4.28,-4.28,0.00,6.65,40.16,341.37,94530.20,29.77,-771902912.00,427047232.00,233.60,70.07,-4.53,-42.51,309.36,12,-3.25,6.65,40.16,-9.94,-225.19,-49.56,-9.19,-23.19,15.50,0.00,0.01,-0.68,-0.73,86.35,0.44,-179.51,0.00,0.00,0.00,-45.00,1,1,3,0
3110.87,Coasting,69.16,-4.59,343.81,-4.28,-4.28,-4.28,0.00,8.38,40.26,341.37,94530.20,29.77,-771902912.00,427047232.00,233.60,70.07,-4.53,-42.51,309.36,12,-2.44,8.38,40.26,-7.62,-227.25,-48.75,-9.19,-23.19,15.50,-0.02,-0.01,-0.68,-0.73,86.25,0.77,178.26,0.00,0.00,0.00,-45.00,1,1,3,0
3110.88,Coasting,69.14,-4.57,346.03,-4.28,-4.28,-4.28,0.00,6.17,40.11,341.37,94530.20,29.77,-771902912.00,427047232.00,233.60,70.07,-4.53,-42.51,309.36,12,-2.64,6.17,40.11,-7.69,-228.25,-48.06,-9.19,-23.19,15.50,-0.03,-0.02,-0.68,-0.73,86.14,1.09,176.03,0.00,0.00,0.00,-45.00,1,1,3,0
3110.89,Coasting,69.13,-4.56,348.44,-4.29,-4.29,-4.29,0.00,5.30,40.01,357.01,94353.75,29.77,-771902912.00,427047232.00,233.60,70.07,-4.53,-42.51,309.36,12,-4.18,5.30,40.01,-7.69,-228.25,-48.06,-9.19,-23.19,15.50,-0.05,-0.03,-0.68,-0.73,86.00,1.42,173.79,0.00,0.00,0.00,-45.00,1,1,3,0
3110.90,Coasting,69.12,-4.54,350.57,-4.30,-4.30,-4.30,0.00,5.46,39.98,357.01,94353.75,29.77,-771902912.00,427047232.00,233.60,70.07,-4.53,-42.51,309.36,12,-4.74,5.46,39.98,-9.31,-228.25,-49.56,-4.56,-23.50,17.75,-0.05,-0.03,-0.68,-0.73,86.00,1.42,173.79,0.00,0.00,0.00,-45.00,1,1,3,0
3110.90,Coasting,69.11,-4.53,352.44,-4.30,-4.30,-4.30,0.00,7.06,40.10,357.01,94353.75,29.77,-771902912.00,427047232.00,233.60,70.07,-4.53,-42.51,309.36,12,-3.99,7.06,40.10,-9.75,-228.75,-49.44,-4.56,-23.50,17.75,-0.08,-0.05,-0.68,-0.73,85.68,2.06,169.30,0.00,0.00,0.00,-45.00,1,1,3,0
3110.92,Coasting,69.08,-4.52,355.09,-4.30,-4.30,-4.30,0.00,6.70,40.10,357.01,94353.75,29.77,-771902912.00,427047232.00,233.60,70.07,-4.53,-42.51,309.36,12,-3.07,6.70,40.10,-8.19,-230.00,-49.75,-4.56,-23.50,17.75,-0.10,-0.06,-0.68,-0.73,85.52,2.37,167.04,0.00,0.00,0.00,-45.00,1,1,3,0
3110.93,Coasting,69.08,-4.53,357.47,-4.28,-4.28,-4.28,0.00,6.33,40.08,357.01,94353.75,29.77,-771902848.00,427047072.00,234.33,70.54,-5.78,-41.78,176.03,6,-2.82,6.33,40.08,-8.94,-231.50,-50.31,-4.56,-23.50,17.75,-0.11,-0.07,-0.67,-0.73,85.33,2.67,164.77,0.00,0.00,0.00,-45.00,1,1,3,0
3111.00,Coasting,68.80,-4.44,373.46,-4.48,-4.48,-4.48,0.00,6.07,39.96,373.49,94168.11,29.77,-771902848.00,427047072.00,234.33,70.54,-5.78,-41.78,176.03,6,-3.28,6.07,39.96,-10.12,-236.19,-50.75,5.00,-23.69,17.25,-0.23,-0.15,-0.65,-0.71,83.63,4.55,148.59,0.00,0.00,0.00,-45.00,1,1,3,0
3111.01,Coasting,68.82,-4.47,375.88,-4.44,-4.44,-4.44,0.00,5.30,39.88,388.66,94168.11,29.77,-771902848.00,427047072.00,234.33,70.54,-5.78,-41.78,176.03,6,-3.50,5.30,39.88,-9.69,-236.38,-51.25,5.00,-23.69,17.25,-0.24,-0.16,-0.64,-0.71,83.34,4.78,146.25,0.00,0.00,0.00,-45.00,1,1,3,0
3111.02,Coasting,68.83,-4.49,378.23,-4.41,-4.41,-4.41,0.00,5.36,39.87,388.66,93997.45,29.74,-771902848.00,427047072.00,234.33,70.54,-5.78,-41.78,176.03,6,-3.53,5.36,39.87,-9.44,-236.56,-51.56,5.00,-23.69,17.25,-0.26,-0.17,-0.64,-0.70,83.06,5.01,143.91,0.00,0.00,0.00,-45.00,1,1,3,0
3111.03,Coasting,68.84,-4.51,380.72,-4.39,-4.39,-4.39,0.00,5.49,39.88,388.66,93997.45,29.74,-771902848.00,427047072.00,234.33,70.54,-5.78,-41.78,176.03,6,-3.37,5.49,39.88,-8.81,-236.62,-51.56,5.00,-23.69,17.25,-0.28,-0.19,-0.63,-0.70,82.76,5.22,141.56,0.00,0.00,0.00,-45.00,1,1,3,0
3111.04,Coasting,68.85,-4.53,383.13,-4.36,-4.36,-4.36,0.00,4.91,39.84,388.66,93997.45,29.74,-771902848.00,427047072.00,234.33,70.54,-5.78,-41.78,176.03,6,-3.43,4.91,39.84,-8.81,-236.62,-51.56,10.19,-23.38,15.38,-0.29,-0.20,-0.63,-0.69,82.46,5.41,139.21,0.00,0.00,0.00,-45.00,1,1,3,0
3111.05,Coasting,68.86,-4.55,385.25,-4.34,-4.34,-4.34,0.00,4.86,39.75,388.66,93997.45,29.74,-771902848.00,427047072.00,234.33,70.54,-5.78,-41.78,176.03,6,-3.94,4.86,39.75,-8.56,-237.31,-51.06,10.19,-23.38,15.38,-0.29,-0.20,-0.63,-0.69,82.46,5.41,139.21,0.00,0.00,0.00,-45.00,1,1,3,0
3111.05,Coasting,68.88,-4.57,387.10,-4.32,-4.32,-4.32,0.00,4.63,39.63,388.66,93997.45,29.74,-771902848.00,427047072.00,234.33,70.54,-5.78,-41.78,176.03,6,-4.53,4.63,39.63,-8.94,-237.88,-51.50,10.19,-23.38,15.38,-0.32,-0.22,-0.62,-0.68,81.82,5.77,134.49,0.00,0.00,0.00,-45.00,1,1,3,0
3111.07,Coasting,68.88,-4.59,389.76,-4.32,-4.32,-4.32,0.00,5.53,39.55,388.66,93997.45,29.74,-771902848.00,427047072.00,234.33,70.54,-5.78,-41.78,176.03,6,-5.08,5.53,39.55,-9.12,-238.38,-52.56,10.19,-23.38,15.38,-0.34,-0.23,-0.61,-0.68,81.49,5.95,132.12,0.00,0.00,0.00,-45.00,1,1,3,0
3111.08,Coasting,68.88,-4.60,392.62,-4.32,-4.32,-4.32,0.00,4.84,39.63,404.74,93816.83,29.67,-771902848.00,427047072.00,234.33,70.54,-5.78,-41.78,176.03,6,-4.40,4.84,39.63,-9.56,-238.44,-52.31,10.19,-23.38,15.38,-0.35,-0.24,-0.61,-0.67,81.15,6.10,129.75,0.00,0.00,0.00,-45.00,1,1,3,0
3111.09,Coasting,68.89,-4.62,395.17,-4.31,-4.31,-4.31,0.00,5.24,39.59,404.74,93816.83,29.67,-771902848.00,427047072.00,234.33,70.54,-5.78,-41.78,176.03,6,-4.60,5.24,39.59,-9.56,-238.44,-52.31,10.19,-23.38,15.38,-0.37,-0.25,-0.60,-0.67,80.81,6.24,127.37,0.00,0.00,0.00,-45.00,1,1,3,0
3111.10,Coasting,68.90,-4.63,397.44,-4.29,-4.29,-4.29,0.00,4.94,39.27,404.74,93816.83,29.67,-771902848.00,427047072.00,234.33,70.54,-5.78,-41.78,176.03,6,-3.85,4.94,39.27,-8.94,-238.56,-52.62,14.25,-23.38,13.06,-0.37,-0.25,-0.60,-0.67,80.81,6.24,127.37,0.00,0.00,0.00,-45.00,1,1,3,0
3111.10,Coasting,68.91,-4.65,399.41,-4.27,-4.27,-4.27,0.00,5.27,39.32,404.74,93816.83,29.67,-771902848.00,427047072.00,234.33,70.54,-5.78,-41.78,176.03,6,-5.15,5.27,39.32,-8.12,-239.38,-52.12,14.25,-23.38,13.06,-0.40,-0.27,-0.58,-0.65,80.11,6.47,122.60,0.00,0.00,0.00,-45.00,1,1,3,0
3111.12,Coasting,68.91,-4.66,402.22,-4.28,-4.28,-4.28,0.00,4.76,39.43,404.74,93816.83,29.67,-771902848.00,427047072.00,234.33,70.54,-5.78,-41.78,176.03,6,-5.20,4.76,39.43,-9.19,-239.81,-52.94,14.25,-23.38,13.06,-0.41,-0.28,-0.58,-0.65,79.75,6.57,120.21,0.00,0.00,0.00,-45.00,1,1,3,0
3111.13,Coasting,68.91,-4.67,404.73,-4.29,-4.29,-4.29,0.00,4.83,39.28,404.74,93816.83,29.67,-771902848.00,427047072.00,234.33,70.54,-5.78,-41.78,176.03,6,-5.76,4.83,39.28,-9.69,-240.56,-53.25,14.25,-23.38,13.06,-0.43,-0.29,-0.57,-0.64,79.38,6.66,117.81,0.00,0.00,0.00,-45.00,1,1,3,0
3111.14,Coasting,68.91,-4.68,407.62,-4.30,-4.30,-4.30,0.00,5.15,39.40,420.15,93816.83,29.67,-771902848.00,427047072.00,234.33,70.54,-5.78,-41.78,176.03,6,-5.12,5.15,39.40,-9.69,-240.56,-53.25,14.25,-23.38,13.06,-0.44,-0.30,-0.56,-0.63,79.01,6.73,115.40,0.00,0.00,0.00,-45.00,1,1,3,0
3111.15,Coasting,68.92,-4.69,409.76,-4.29,-4.29,-4.29,0.00,4.80,38.12,420.31,93642.19,29.66,-771902848.00,427047072.00,234.33,70.54,-5.78,-41.78,176.03,6,-4.97,4.80,38.12,-9.44,-241.25,-53.06,18.06,-22.88,8.75,-0.44,-0.30,-0.56,-0.63,79.01,6.73,115.40,0.00,0.00,0.00,-45.00,1,1,3,0
3111.16,Coasting,68.93,-4.70,412.07,-4.28,-4.28,-4.28,0.00,4.98,38.51,420.31,93642.19,29.66,-771902848.00,427047072.00,234.33,70.54,-5.78,-41.78,176.03,6,-4.45,4.98,38.51,-10.00,-241.56,-53.44,18.06,-22.88,8.75,-0.47,-0.32,-0.54,-0.62,78.25,6.81,110.58,0.00,0.00,0.00,-45.00,1,1,3,0
3111.17,Coasting,68.93,-4.71,414.77,-4.29,-4.29,-4.29,0.00,5.41,37.77,420.31,93642.19,29.66,-771902848.00,427047072.00,234.33,70.54,-5.78,-41.78,176.03,6,-6.01,5.41,37.77,-9.44,-242.06,-53.44,18.06,-22.88,8.75,-0.49,-0.33,-0.54,-0.61,77.87,6.84,108.16,0.00,0.00,0.00,-45.00,1,1,3,0
3111.18,Coasting,68.92,-4.72,417.39,-4.29,-4.29,-4.29,0.00,5.80,37.86,420.31,93642.19,29.66,-771902848.00,427047072.00,234.33,70.54,-5.78,-41.78,176.03,6,-4.52,5.80,37.86,-9.44,-242.81,-54.12,18.06,-22.88,8.75,-0.50,-0.34,-0.53,-0.60,77.49,6.85,105.73,0.00,0.00,0.00,-45.00,1,1,3,0
3111.19,Coasting,68.92,-4.72,419.95,-4.31,-4.31,-4.31,0.00,5.49,37.52,420.31,93642.19,29.66,-771902848.00,427047072.00,234.33,70.54,-5.78,-41.78,176.03,6,-6.36,5.49,37.52,-9.44,-242.81,-54.12,18.06,-22.88,8.75,-0.51,-0.35,-0.52,-0.59,77.10,6.85,103.30,0.00,0.00,0.00,-45.00,2,1,3,0
3111.20,Coasting,68.93,-4.73,421.99,-4.32,-4.32,-4.32,0.00,5.62,36.14,420.31,93642.19,29.66,-771902848.00,427047072.00,234.33,70.54,-5.78,-41.78,176.03,6,-5.59,5.62,36.14,-10.19,-243.69,-54.50,22.19,-21.75,5.00,-0.51,-0.35,-0.52,-0.59,77.10,6.85,103.30,0.00,0.00,0.00,-45.00,2,1,3,0
3111.21,Coasting,68.94,-4.74,424.15,-4.31,-4.31,-4.31,0.00,6.06,35.19,435.11,93460.35,29.77,-771902848.00,427047072.00,234.33,70.54,-5.78,-41.78,176.03,6,-5.87,6.06,35.19,-10.56,-243.94,-54.69,22.19,-21.75,5.00,-0.54,-0.37,-0.50,-0.57,76.31,6.80,98.42,0.00,0.00,0.00,-45.00,2,1,3,0
3111.22,Coasting,68.93,-4.75,426.94,-4.32,-4.32,-4.32,0.00,6.12,34.41,435.11,93476.47,29.77,-771902848.00,427047072.00,234.33,70.54,-5.78,-41.78,176.03,6,-5.23,6.12,34.41,-10.81,-244.12,-55.75,22.19,-21.75,5.00,-0.55,-0.38,-0.49,-0.56,75.92,6.76,95.97,0.00,0.00,0.00,-45.00,2,1,3,0
3111.23,Coasting,68.93,-4.75,429.88,-4.34,-4.34,-4.34,0.00,6.10,32.87,435.11,93476.47,29.77,-771902848.00,427047072.00,234.33,70.54,-5.78,-41.78,176.03,6,-5.27,6.10,32.87,-11.19,-245.31,-57.25,22.19,-21.75,5.00,-0.57,-0.39,-0.48,-0.55,75.52,6.72,93.51,0.00,0.00,0.00,-45.00,2,1,3,0
3111.24,Coasting,68.93,-4.75,432.30,-4.34,-4.34,-4.34,0.00,5.37,32.19,435.11,93476.47,29.77,-771902848.00,427047072.00,234.33,70.54,-5.78,-41.78,176.03,6,-4.95,5.37,32.19,-11.19,-245.31,-57.25,22.19,-21.75,5.00,-0.58,-0.39,-0.47,-0.54,75.13,6.64,91.05,0.00,0.00,0.00,-45.00,2,1,3,0
3111.25,Coasting,68.93,-4.76,434.42,-4.34,-4.34,-4.34,0.00,5.16,31.62,435.11,93476.47,29.77,-771902848.00,427047072.00,234.33,70.54,-5.78,-41.78,176.03,6,-4.77,5.16,31.62,-11.19,-246.06,-57.00,22.19,-21.06,1.50,-0.58,-0.39,-0.47,-0.54,75.13,6.64,91.05,0.00,0.00,0.00,-45.00,2,1,3,0
3111.26,Coasting,68.94,-4.77,436.26,-4.33,-4.33,-4.33,0.00,5.53,30.77,435.11,93476.47,29.77,-771902848.00,427047072.00,234.33,70.54,-5.78,-41.78,176.03,6,-4.55,5.53,30.77,-10.69,-247.06,-56.88,22.19,-21.06,1.50,-0.60,-0.41,-0.44,-0.52,74.36,6.44,86.11,0.00,0.00,0.00,-45.00,2,1,3,0
3111.27,Coasting,68.93,-4.77,438.97,-4.35,-4.35,-4.35,0.00,5.27,29.54,435.11,93476.47,29.77,-771902848.00,427047072.00,234.33,70.54,-5.78,-41.78,176.03,6,-5.27,5.27,29.54,-10.75,-249.31,-55.50,22.19,-21.06,1.50,-0.62,-0.42,-0.43,-0.51,73.98,6.30,83.63,0.00,0.00,0.00,-45.00,2,1,3,0
3111.28,Coasting,68.92,-4.77,441.80,-4.36,-4.36,-4.36,0.00,5.99,28.79,451.12,93297.44,29.77,-771902848.00,427047072.00,234.33,70.54,-5.78,-41.78,176.03,6,-5.57,5.99,28.79,-11.12,-250.12,-55.81,22.19,-21.06,1.50,-0.63,-0.43,-0.42,-0.50,73.61,6.14,81.14,0.00,0.00,0.00,-45.00,2,1,3,0
3111.29,Coasting,68.92,-4.77,444.57,-4.37,-4.37,-4.37,0.00,6.09,27.81,451.12,93297.44,29.77,-771902848.00,427047072.00,234.33,70.54,-5.78,-41.78,176.03,6,-4.53,6.09,27.81,-11.12,-250.12,-55.81,22.19,-21.06,1.50,-0.64,-0.43,-0.41,-0.48,73.23,5.98,78.64,0.00,0.00,0.00,-45.00,2,1,3,0
3111.30,Coasting,68.93,-4.77,446.57,-4.35,-4.35,-4.35,0.00,5.47,26.62,451.12,93297.44,29.77,-771902848.00,427047072.00,234.33,70.54,-5.78,-41.78,176.03,6,-3.80,5.47,26.62,-11.50,-250.38,-56.56,24.38,-20.38,-3.25,-0.64,-0.43,-0.41,-0.48,73.23,5.98,78.64,0.00,0.00,0.00,-45.00,2,1,3,0
3111.31,Coasting,68.93,-4.78,448.76,-4.34,-4.34,-4.34,0.00,5.80,25.78,451.12,93297.44,29.77,-771902848.00,427047072.00,234.33,70.54,-5.78,-41.78,176.03,6,-3.90,5.80,25.78,-11.56,-251.06,-56.88,24.38,-20.38,-3.25,-0.66,-0.45,-0.39,-0.46,72.51,5.59,73.65,0.00,0.00,0.00,-45.00,2,1,3,0
3111.32,Coasting,68.92,-4.77,451.35,-4.33,-4.33,-4.33,0.00,5.88,25.23,451.12,93297.44,29.77,-771902848.00,427047072.00,234.33,70.54,-5.78,-41.78,176.03,6,-3.30,5.88,25.23,-10.94,-250.94,-56.81,24.38,-20.38,-3.25,-0.67,-0.46,-0.37,-0.45,72.17,5.37,71.15,0.00,0.00,0.00,-45.00,2,1,3,0
3111.33,Coasting,68.92,-4.77,453.87,-4.34,-4.34,-4.34,0.00,5.67,24.62,451.12,93297.44,29.77,-771902848.00,427047072.00,234.33,70.54,-5.78,-41.78,176.03,6,-4.36,5.67,24.62,-10.12,-252.62,-56.94,24.38,-20.38,-3.25,-0.68,-0.46,-0.36,-0.43,71.84,5.14,68.65,0.00,0.00,0.00,-45.00,2,1,3,0
3111.34,Coasting,68.91,-4.77,456.77,-4.34,-4.34,-4.34,0.00,5.23,23.51,467.87,93110.41,29.76,-771902848.00,427047072.00,234.33,70.54,-5.78,-41.78,176.03,6,-4.60,5.23,23.51,-10.12,-252.62,-56.94,24.38,-20.38,-3.25,-0.69,-0.47,-0.35,-0.42,71.52,4.89,66.13,0.00,0.00,0.00,-45.00,3,1,3,0
3111.35,Coasting,68.92,-4.77,459.13,-4.34,-4.34,-4.34,0.00,5.73,23.11,467.87,93110.41,29.76,-771902848.00,427047072.00,234.33,70.54,-5.78,-41.78,176.03,6,-4.73,5.73,23.11,-10.25,-254.06,-56.38,23.88,-19.19,-9.50,-0.69,-0.47,-0.35,-0.42,71.52,4.89,66.13,0.00,0.00,0.00,-45.00,3,1,3,0
3111.36,Coasting,68.92,-4.78,461.20,-4.33,-4.33,-4.33,0.00,5.28,22.50,467.87,93110.41,29.76,-771902848.00,427047072.00,234.33,70.54,-5.78,-41.78,176.03,6,-4.25,5.28,22.50,-11.19,-254.88,-55.75,23.88,-19.19,-9.50,-0.71,-0.48,-0.32,-0.39,70.90,4.31,61.09,0.00,0.00,0.00,-45.00,3,1,3,0
3111.37,Coasting,68.91,-4.77,464.15,-4.33,-4.33,-4.33,0.00,6.06,21.54,467.87,93110.41,29.76,-771902848.00,427047072.00,234.33,70.54,-5.78,-41.78,176.03,6,-3.54,6.06,21.54,-10.62,-255.75,-54.88,23.88,-19.19,-9.50,-0.72,-0.49,-0.31,-0.38,70.62,3.99,58.56,0.00,0.00,0.00,-45.00,3,1,3,0
3111.38,Coasting,68.90,-4.77,466.80,-4.32,-4.32,-4.32,0.00,6.29,20.83,467.87,93110.41,29.76,-771902848.00,427047072.00,234.33,70.54,-5.78,-41.78,176.03,6,-3.25,6.29,20.83,-10.25,-257.00,-55.06,23.88,-19.19,-9.50,-0.73,-0.50,-0.29,-0.37,70.35,3.66,56.03,0.00,0.00,0.00,-45.00,3,1,3,0
3111.39,Coasting,68.90,-4.76,469.14,-4.31,-4.31,-4.31,0.00,6.28,20.19,467.87,93110.41,29.76,-771902848.00,427047072.00,234.33,70.54,-5.78,-41.78,176.03,6,-2.95,6.28,20.19,-10.25,-257.00,-55.06,23.88,-19.19,-9.50,-0.74,-0.50,-0.28,-0.35,70.10,3.33,53.50,0.00,0.00,0.00,-45.00,3,1,3,0
3111.40,Coasting,68.91,-4.76,471.20,-4.30,-4.30,-4.30,0.00,6.59,19.65,467.87,93110.41,29.76,-771902848.00,427047072.00,234.33,70.54,-5.78,-41.78,176.03,6,-3.87,6.59,19.65,-10.25,-257.56,-55.62,21.69,-17.50,-13.50,-0.74,-0.50,-0.28,-0.35,70.10,3.33,53.50,0.00,0.00,0.00,-45.00,3,1,3,0
3111.41,Coasting,68.91,-4.77,473.40,-4.29,-4.29,-4.29,0.00,5.36,18.93,484.86,92921.08,29.76,-771902848.00,427047072.00,234.33,70.54,-5.78,-41.78,176.03,6,-3.45,5.36,18.93,-10.31,-257.88,-55.44,21.69,-17.50,-13.50,-0.75,-0.51,-0.25,-0.32,69.63,2.61,48.44,0.00,0.00,0.00,-45.00,3,1,3,0
3111.42,Coasting,68.90,-4.76,476.48,-4.28,-4.28,-4.28,0.00,5.99,18.37,484.86,92921.08,29.76,-771902848.00,427047072.00,234.33,70.54,-5.78,-41.78,176.03,6,-2.77,5.99,18.37,-10.31,-258.44,-55.06,21.69,-17.50,-13.50,-0.76,-0.52,-0.24,-0.31,69.43,2.23,45.90,0.00,0.00,0.00,-45.00,3,1,3,0
3111.43,Coasting,68.89,-4.75,479.25,-4.27,-4.27,-4.27,0.00,5.08,17.90,484.86,92921.08,29.76,-771902848.00,427047072.00,234.33,70.54,-5.78,-41.78,176.03,6,-3.16,5.08,17.90,-9.50,-259.62,-54.38,21.69,-17.50,-13.50,-0.77,-0.52,-0.22,-0.30,69.25,1.84,43.36,0.00,0.00,0.00,-45.00,3,1,3,0
3111.44,Coasting,68.89,-4.74,481.96,-4.25,-4.25,-4.25,0.00,5.69,17.17,484.86,92921.08,29.76,-771902848.00,427047072.00,234.33,70.54,-5.78,-41.78,176.03,6,-2.27,5.69,17.17,-9.50,-259.62,-54.38,21.69,-17.50,-13.50,-0.77,-0.53,-0.21,-0.28,69.09,1.44,40.81,0.00,0.00,0.00,-45.00,3,1,3,0
3111.45,Coasting,68.90,-4.75,483.90,-4.23,-4.23,-4.23,0.00,6.21,16.84,484.86,92921.08,29.76,-771902848.00,427047072.00,234.33,70.54,-5.78,-41.78,176.03,6,-1.95,6.21,16.84,-8.75,-260.56,-54.50,18.38,-18.25,-18.56,-0.77,-0.53,-0.21,-0.28,69.09,1.44,40.81,0.00,0.00,0.00,-45.00,3,1,3,0
3111.46,Coasting,68.90,-4.74,486.02,-4.20,-4.20,-4.20,0.00,6.30,16.40,484.86,92921.08,29.76,-771902848.00,427047072.00,234.33,70.54,-5.78,-41.78,176.03,6,-1.87,6.30,16.40,-8.56,-260.88,-55.31,18.38,-18.25,-18.56,-0.79,-0.54,-0.18,-0.25,68.83,0.63,35.71,0.00,0.00,0.00,-45.00,3,1,3,0
3111.47,Coasting,68.89,-4.73,489.22,-4.19,-4.19,-4.19,0.00,5.90,15.99,501.92,92731.30,29.77,-771902848.00,427047072.00,234.33,70.54,-5.78,-41.78,176.03,6,-1.94,5.90,15.99,-9.12,-261.31,-56.62,18.38,-18.25,-18.56,-0.79,-0.54,-0.16,-0.23,68.72,0.22,33.16,0.00,0.00,0.00,-45.00,3,1,3,0
3111.48,Coasting,68.88,-4.73,492.10,-4.16,-4.16,-4.16,0.00,4.92,15.23,501.92,92731.30,29.77,-771902848.00,427047072.00,234.33,70.54,-5.78,-41.78,176.03,6,-1.36,4.92,15.23,-8.31,-261.88,-56.62,18.38,-18.25,-18.56,-0.80,-0.54,-0.15,-0.22,68.64,-0.19,30.60,0.00,0.00,0.00,-45.00,3,1,3,0
3111.49,Coasting,68.88,-4.72,494.69,-4.15,-4.15,-4.15,0.00,5.95,14.79,501.92,92731.30,29.77,-771902848.00,427047072.00,234.33,70.54,-5.78,-41.78,176.03,6,-2.73,5.95,14.79,-8.31,-261.88,-56.62,15.06,-16.75,-21.75,-0.80,-0.55,-0.13,-0.20,68.56,-0.61,28.03,0.00,0.00,0.00,-45.00,3,1,3,0
3111.50,Coasting,68.88,-4.72,496.98,-4.11,-4.11,-4.11,0.00,5.22,14.44,501.92,92731.30,29.77,-771902848.00,427047072.00,234.33,70.54,-5.78,-41.78,176.03,6,-0.65,5.22,14.44,-9.19,-262.88,-56.38,15.06,-16.75,-21.75,-0.80,-0.55,-0.13,-0.20,68.56,-0.61,28.03,0.00,0.00,0.00,-45.00,3,1,3,0
3111.51,Coasting,68.89,-4.72,498.98,-4.08,-4.08,-4.08,0.00,6.07,14.18,501.92,92731.30,29.77,-771902848.00,427047072.00,234.33,70.54,-5.78,-41.78,176.03,6,-1.18,6.07,14.18,-8.88,-263.50,-57.06,15.06,-16.75,-21.75,-0.81,-0.55,-0.10,-0.17,68.48,-1.44,22.86,0.00,0.00,0.00,-45.00,3,1,3,0
3111.52,Coasting,68.88,-4.71,501.87,-4.05,-4.05,-4.05,0.00,5.49,13.62,501.92,92731.30,29.77,-771902848.00,427047072.00,234.33,70.54,-5.78,-41.78,176.03,6,-0.81,5.49,13.62,-9.56,-265.56,-59.06,15.06,-16.75,-21.75,-0.81,-0.56,-0.09,-0.15,68.47,-1.85,20.25,0.00,0.00,0.00,-45.00,3,1,3,0
3111.53,Coasting,68.88,-4.70,504.46,-4.02,-4.02,-4.02,0.00,5.56,13.13,501.92,92731.30,29.77,-771902848.00,427047072.00,234.33,70.54,-5.78,-41.78,176.03,6,-0.92,5.56,13.13,-9.69,-267.00,-59.69,15.06,-16.75,-21.75,-0.82,-0.56,-0.07,-0.14,68.46,-2.26,17.64,0.00,0.00,0.00,-45.00,3,1,3,0
3111.54,Coasting,68.88,-4.69,507.18,-3.99,-3.99,-3.99,0.00,5.00,12.72,519.77,92532.91,29.76,-771902848.00,427047072.00,234.33,70.54,-5.78,-41.78,176.03,6,-1.50,5.00,12.72,-9.69,-267.00,-59.69,15.06,-16.75,-21.75,-0.82,-0.56,-0.05,-0.12,68.49,-2.68,15.01,0.00,0.00,0.00,-45.00,3,1,3,0
3111.55,Coasting,68.88,-4.69,509.60,-3.96,-3.96,-3.96,0.00,5.12,12.06,519.77,92532.91,29.76,-771902848.00,427047072.00,234.33,70.54,-5.78,-41.78,176.03,6,-1.18,5.12,12.06,-9.81,-268.69,-59.44,8.38,-15.56,-25.00,-0.82,-0.56,-0.05,-0.12,68.49,-2.68,15.01,0.00,0.00,0.00,-45.00,3,1,3,0
3111.56,Coasting,68.89,-4.69,511.73,-3.93,-3.93,-3.93,0.00,5.47,11.84,519.77,92532.91,29.76,-771902848.00,427047072.00,234.33,70.54,-5.78,-41.78,176.03,6,-0.72,5.47,11.84,-10.69,-269.56,-59.19,8.38,-15.56,-25.00,-0.82,-0.56,-0.02,-0.09,68.55,-3.53,9.72,0.00,0.00,0.00,-45.00,3,1,3,0
3111.57,Coasting,68.88,-4.67,514.76,-3.89,-3.89,-3.89,0.00,5.05,11.19,519.77,92532.91,29.76,-771902848.00,427047072.00,234.33,70.54,-5.78,-41.78,176.03,6,0.40,5.05,11.19,-10.81,-271.25,-59.88,8.38,-15.56,-25.00,-0.82,-0.56,-0.01,-0.07,68.62,-3.94,7.05,0.00,0.00,0.00,-45.00,3,1,3,0
3111.58,Coasting,68.88,-4.66,517.48,-3.85,-3.85,-3.85,0.00,4.48,11.13,519.77,92532.91,29.76,-771902848.00,427047072.00,234.33,70.54,-5.78,-41.78,176.03,6,-0.05,4.48,11.13,-12.19,-272.25,-59.69,8.38,-15.56,-25.00,-0.82,-0.56,0.01,-0.05,68.70,-4.37,4.38,0.00,0.00,0.00,-45.00,3,1,3,0
3111.59,Coasting,68.87,-4.65,520.14,-3.81,-3.81,-3.81,0.00,4.48,9.95,519.77,92532.91,29.76,-771902848.00,427047072.00,234.33,70.54,-5.78,-41.78,176.03,6,-0.02,4.48,9.95,-12.19,-272.25,-59.69,8.38,-15.56,-25.00,-0.82,-0.56,0.03,-0.04,68.79,-4.79,1.69,0.00,0.00,0.00,-45.00,3,1,3,0
3111.60,Coasting,68.88,-4.65,522.44,-3.77,-3.77,-3.77,0.00,4.66,9.56,537.53,92336.03,29.76,-771902848.00,427047072.00,234.33,70.54,-5.78,-41.78,176.03,6,-0.12,4.66,9.56,-12.12,-273.88,-59.69,2.88,-15.50,-25.88,-0.82,-0.56,0.03,-0.04,68.79,-4.79,1.69,0.00,0.00,0.00,-45.00,3,1,3,0
3111.62,Coasting,68.88,-4.64,527.83,-3.67,-3.67,-3.67,0.00,4.28,8.09,537.53,92336.03,29.76,-771902848.00,427047072.00,234.33,70.54,-5.78,-41.78,176.03,6,1.17,4.28,8.09,-13.00,-277.69,-59.50,2.88,-15.50,-25.88,-0.82,-0.56,0.08,0.02,69.19,-6.05,-6.46,0.00,0.00,0.00,-45.00,3,1,3,0
3111.63,Coasting,68.88,-4.62,530.67,-3.62,-3.62,-3.62,0.00,4.22,7.42,537.53,92336.03,29.76,-771902848.00,427047072.00,234.33,70.54,-5.78,-41.78,176.03,6,0.86,4.22,7.42,-13.44,-277.88,-59.81,2.88,-15.50,-25.88,-0.82,-0.56,0.09,0.03,69.36,-6.45,-9.19,0.00,0.00,0.00,-45.00,3,1,3,0
3111.64,Coasting,68.88,-4.61,533.45,-3.58,-3.58,-3.58,0.00,4.38,6.88,537.53,92336.03,29.76,-771902848.00,427047072.00,234.33,70.54,-5.78,-41.78,176.03,6,0.85,4.38,6.88,-13.44,-277.88,-59.81,-3.38,-15.50,-27.50,-0.82,-0.56,0.11,0.05,69.55,-6.86,-11.94,0.00,0.00,0.00,-45.00,3,1,3,0
3111.65,Coasting,68.89,-4.61,535.69,-3.52,-3.52,-3.52,0.00,3.61,6.52,537.53,92336.03,29.76,-771902848.00,427047072.00,234.33,70.54,-5.78,-41.78,176.03,6,1.92,3.61,6.52,-13.62,-278.69,-59.94,-3.38,-15.50,-27.50,-0.82,-0.56,0.11,0.05,69.55,-6.86,-11.94,0.00,0.00,0.00,-45.00,3,1,3,0
3111.66,Coasting,68.90,-4.61,537.63,-3.47,-3.47,-3.47,0.00,2.77,5.43,537.53,92336.03,29.76,-771902848.00,427047072.00,234.33,70.54,-5.78,-41.78,176.03,6,1.72,2.77,5.43,-14.06,-279.12,-61.00,-3.38,-15.50,-27.50,-0.81,-0.56,0.14,0.09,69.98,-7.61,-17.47,0.00,0.00,0.00,-45.00,3,1,3,0
3111.67,Coasting,68.89,-4.59,540.89,-3.40,-3.40,-3.40,0.00,3.50,4.84,555.11,92141.42,29.76,-771902848.00,427047072.00,234.33,70.54,-5.78,-41.78,176.03,6,2.22,3.50,4.84,-14.19,-280.50,-62.19,-3.38,-15.50,-27.50,-0.81,-0.55,0.16,0.10,70.22,-7.98,-20.26,0.00,0.00,0.00,-45.00,3,1,3,0
3111.68,Coasting,68.89,-4.58,543.84,-3.35,-3.35,-3.35,0.00,2.90,4.55,555.11,92141.42,29.76,-771902848.00,427047072.00,234.33,70.54,-5.78,-41.78,176.03,6,1.92,2.90,4.55,-13.69,-281.50,-62.75,-3.38,-15.50,-27.50,-0.81,-0.55,0.17,0.12,70.48,-8.32,-23.06,0.00,0.00,0.00,-45.00,3,1,3,0
3111.69,Coasting,68.90,-4.57,546.49,-3.30,-3.30,-3.30,0.00,3.76,3.09,555.11,92141.42,29.76,-771902848.00,427047072.00,234.33,70.54,-5.78,-41.78,176.03,6,1.16,3.76,3.09,-13.69,-281.50,-62.75,-3.38,-15.50,-27.50,-0.80,-0.55,0.19,0.14,70.76,-8.66,-25.86,0.00,0.00,0.00,-45.00,3,1,3,0
3111.70,Coasting,68.91,-4.57,548.83,-3.24,-3.24,-3.24,0.00,2.89,2.71,555.11,92141.42,29.76,-771902848.00,427047072.00,234.33,70.54,-5.78,-41.78,176.03,6,2.49,2.89,2.71,-14.31,-282.62,-62.06,-9.56,-15.06,-26.38,-0.80,-0.55,0.19,0.14,70.76,-8.66,-25.86,0.00,0.00,0.00,-45.00,3,1,3,0
3111.71,Coasting,68.92,-4.57,550.89,-3.18,-3.18,-3.18,0.00,3.85,2.08,555.11,92141.42,29.76,-771902848.00,427047072.00,234.33,70.54,-5.78,-41.78,176.03,6,2.63,3.85,2.08,-14.56,-283.00,-62.06,-9.56,-15.06,-26.38,-0.79,-0.54,0.22,0.17,71.35,-9.31,-31.52,0.00,0.00,0.00,-45.00,3,1,3,0
3111.72,Coasting,68.92,-4.56,553.85,-3.12,-3.12,-3.12,0.00,1.69,1.70,555.11,92141.42,29.76,-771902848.00,427047072.00,234.33,70.54,-5.78,-41.78,176.03,6,2.09,1.69,1.70,-15.25,-284.38,-61.94,-9.56,-15.06,-26.38,-0.79,-0.54,0.24,0.19,71.68,-9.61,-34.36,0.00,0.00,0.00,-45.00,3,1,3,0
3111.73,Coasting,68.92,-4.54,556.94,-3.05,-3.05,-3.05,0.00,1.63,0.65,574.02,91932.47,29.76,-771902848.00,427047072.00,234.33,70.54,-5.78,-41.78,176.03,6,2.77,1.63,0.65,-13.75,-284.38,-63.62,-9.56,-15.06,-26.38,-0.78,-0.53,0.25,0.21,72.03,-9.88,-37.21,0.00,0.00,0.00,-45.00,3,1,3,0
3111.74,Coasting,68.92,-4.53,559.96,-2.98,-2.98,-2.98,0.00,1.82,0.58,574.02,91932.47,29.76,-771902848.00,427047072.00,234.33,70.54,-5.78,-41.78,176.03,6,3.46,1.82,0.58,-13.75,-284.38,-63.62,-9.56,-15.06,-26.38,-0.77,-0.53,0.27,0.23,72.38,-10.13,-40.07,0.00,0.00,0.00,-45.00,3,1,3,0
3111.75,Coasting,68.93,-4.53,562.19,-2.93,-2.93,-2.93,0.00,1.32,-0.30,574.02,91932.47,29.76,-771902848.00,427047072.00,234.33,70.54,-5.78,-41.78,176.03,6,2.43,1.32,-0.30,-14.50,-284.75,-64.25,-15.06,-15.38,-24.38,-0.77,-0.53,0.27,0.23,72.38,-10.13,-40.07,0.00,0.00,0.00,-45.00,3,1,3,0
3111.76,Coasting,68.94,-4.53,564.62,-2.87,-2.87,-2.87,0.00,0.50,-0.94,574.02,91932.47,29.76,-771902848.00,427047072.00,234.33,70.54,-5.78,-41.78,176.03,6,1.77,0.50,-0.94,-14.25,-285.62,-64.69,-15.06,-15.38,-24.38,-0.76,-0.52,0.30,0.26,73.16,-10.57,-45.81,0.00,0.00,0.00,-45.00,3,1,3,0
3111.77,Coasting,68.95,-4.52,567.47,-2.81,-2.81,-2.81,0.00,1.33,-1.26,574.02,91932.47,29.76,-771902848.00,427047072.00,234.33,70.54,-5.78,-41.78,176.03,6,2.59,1.33,-1.26,-11.19,-285.56,-65.69,-15.06,-15.38,-24.38,-0.75,-0.51,0.31,0.28,73.58,-10.75,-48.69,0.00,0.00,0.00,-45.00,3,1,3,0
3111.78,Coasting,68.95,-4.51,570.25,-2.74,-2.74,-2.74,0.00,1.40,-1.77,574.02,91932.47,29.76,-771902848.00,427047072.00,234.33,70.54,-5.78,-41.78,176.03,6,3.09,1.40,-1.77,-11.56,-286.25,-65.12,-15.06,-15.38,-24.38,-0.74,-0.51,0.33,0.29,74.01,-10.91,-51.58,0.00,0.00,0.00,-45.00,3,1,3,0
3111.79,Coasting,68.96,-4.50,572.98,-2.67,-2.67,-2.67,0.00,1.16,-1.98,574.02,91932.47,29.76,-771902848.00,427047072.00,234.33,70.54,-5.78,-41.78,176.03,6,3.44,1.16,-1.98,-11.56,-286.25,-65.12,-20.25,-15.25,-22.19,-0.73,-0.50,0.34,0.31,74.45,-11.06,-54.47,0.00,0.00,0.00,-45.00,3,1,3,0
3111.80,Coasting,68.97,-4.50,575.28,-2.61,-2.61,-2.61,0.00,0.70,-2.71,590.22,91753.71,29.76,-771902848.00,427047072.00,234.33,70.54,-5.78,-41.78,176.03,6,3.33,0.70,-2.71,-12.12,-286.25,-65.81,-20.25,-15.25,-22.19,-0.73,-0.50,0.34,0.31,74.45,-11.06,-54.47,0.00,0.00,0.00,-45.00,3,1,3,0
3111.81,Coasting,68.98,-4.50,577.78,-2.55,-2.55,-2.55,0.00,0.05,-2.99,590.22,91753.71,29.76,-771902848.00,427047072.00,234.33,70.54,-5.78,-41.78,176.03,6,3.19,0.05,-2.99,-12.88,-287.62,-65.88,-20.25,-15.25,-22.19,-0.71,-0.49,0.37,0.34,75.33,-11.27,-60.30,0.00,0.00,0.00,-45.00,3,1,3,0
3111.82,Coasting,68.99,-4.49,580.70,-2.47,-2.47,-2.47,0.00,-0.76,-3.03,590.22,91753.71,29.76,-771902848.00,427047072.00,234.33,70.54,-5.78,-41.78,176.03,6,4.09,-0.76,-3.03,-12.50,-288.25,-66.25,-20.25,-15.25,-22.19,-0.70,-0.48,0.39,0.36,75.78,-11.34,-63.21,0.00,0.00,0.00,-45.00,3,1,3,0
3111.83,Coasting,68.99,-4.48,583.79,-2.39,-2.39,-2.39,0.00,0.23,-3.63,590.22,91753.71,29.76,-771902848.00,427047072.00,234.33,70.54,-5.78,-41.78,176.03,6,3.75,0.23,-3.63,-13.00,-287.94,-67.50,-20.25,-15.25,-22.19,-0.69,-0.47,0.40,0.38,76.23,-11.38,-66.12,0.00,0.00,0.00,-45.00,3,1,3,0
3111.84,Coasting,69.00,-4.48,586.34,-2.32,-2.32,-2.32,0.00,-0.05,-4.24,590.22,91753.71,29.76,-771902848.00,427047072.00,234.33,70.54,-5.78,-41.78,176.03,6,4.14,-0.05,-4.24,-13.00,-287.94,-67.50,-20.25,-15.25,-22.19,-0.68,-0.46,0.41,0.39,76.68,-11.40,-69.05,0.00,0.00,0.00,-45.00,3,1,3,0
3111.85,Coasting,69.02,-4.48,588.60,-2.25,-2.25,-2.25,0.00,-1.59,-4.37,590.22,91753.71,29.76,-771902848.00,427047072.00,234.33,70.54,-5.78,-41.78,176.03,6,3.92,-1.59,-4.37,-13.06,-288.94,-68.00,-23.50,-16.06,-16.69,-0.68,-0.46,0.41,0.39,76.68,-11.40,-69.05,0.00,0.00,0.00,-45.00,3,1,3,0
3111.86,Coasting,69.03,-4.48,590.97,-2.19,-2.19,-2.19,0.00,-2.09,-4.34,609.06,91753.71,29.76,-771902848.00,427047072.00,234.33,70.54,-5.78,-41.78,176.03,6,3.62,-2.09,-4.34,-13.06,-288.62,-68.19,-23.50,-16.06,-16.69,-0.65,-0.45,0.44,0.42,77.58,-11.35,-74.90,0.00,0.00,0.00,-45.00,3,1,3,0
3111.87,Coasting,69.04,-4.47,594.25,-2.11,-2.11,-2.11,0.00,-1.95,-5.00,609.06,91546.20,29.76,-771902848.00,427047072.00,234.33,70.54,-5.78,-41.78,176.03,6,3.74,-1.95,-5.00,-13.00,-288.50,-69.00,-23.50,-16.06,-16.69,-0.64,-0.44,0.45,0.44,78.02,-11.29,-77.83,0.00,0.00,0.00,-45.00,3,1,3,0
3111.88,Coasting,69.05,-4.46,597.23,-2.03,-2.03,-2.03,0.00,-1.44,-5.23,609.06,91546.20,29.76,-771902848.00,427047072.00,234.33,70.54,-5.78,-41.78,176.03,6,4.90,-1.44,-5.23,-13.31,-287.56,-68.81,-23.50,-16.06,-16.69,-0.63,-0.43,0.47,0.45,78.46,-11.19,-80.74,0.00,0.00,0.00,-45.00,3,1,3,0
3111.89,Coasting,69.06,-4.46,600.14,-1.96,-1.96,-1.96,0.00,-0.94,-5.64,609.06,91546.20,29.76,-771902848.00,427047072.00,234.33,70.54,-5.78,-41.78,176.03,6,3.41,-0.94,-5.64,-13.31,-287.56,-68.81,-23.50,-16.06,-16.69,-0.61,-0.42,0.48,0.47,78.91,-11.09,-83.67,0.00,0.00,0.00,-45.00,3,1,3,0
3111.90,Coasting,69.08,-4.46,602.27,-1.90,-1.90,-1.90,0.00,-0.68,-6.15,609.06,91546.20,29.76,-771902848.00,427047072.00,234.33,70.54,-5.78,-41.78,176.03,6,3.87,-0.68,-6.15,-12.44,-288.50,-68.69,-26.00,-18.00,-11.06,-0.61,-0.42,0.48,0.47,78.91,-11.09,-83.67,0.00,0.00,0.00,-45.00,3,1,3,0
3111.91,Coasting,69.09,-4.46,604.59,-1.84,-1.84,-1.84,0.00,-0.37,-6.30,609.06,91546.20,29.76,-771902848.00,427047072.00,234.33,70.54,-5.78,-41.78,176.03,6,3.40,-0.37,-6.30,-12.00,-288.38,-67.25,-26.00,-18.00,-11.06,-0.59,-0.40,0.50,0.49,79.79,-10.86,-89.51,0.00,0.00,0.00,-45.00,3,1,3,0
3111.92,Coasting,69.10,-4.46,607.34,-1.78,-1.78,-1.78,0.00,-1.39,-6.46,609.06,91546.20,29.76,-771902848.00,427047072.00,234.33,70.54,-5.78,-41.78,176.03,6,2.56,-1.39,-6.46,-11.50,-289.38,-66.38,-26.00,-18.00,-11.06,-0.57,-0.39,0.51,0.51,80.25,-10.71,-92.43,0.00,0.00,0.00,-45.00,3,1,3,0
3111.93,Coasting,69.08,-4.43,610.41,-1.75,-1.75,-1.75,0.00,-3.32,-6.57,626.74,91351.86,29.76,-771902784.00,427046976.00,234.98,71.02,-6.44,-41.13,176.03,0,2.85,-3.32,-6.57,-8.69,-287.44,-65.75,-26.00,-18.00,-11.06,-0.56,-0.38,0.52,0.52,80.70,-10.54,-95.33,0.00,0.00,0.00,-45.00,3,1,3,0
3112.00,Coasting,68.97,-4.23,628.55,-1.32,-1.32,-1.32,0.00,-2.05,-7.79,644.88,91152.73,29.77,-771902784.00,427046976.00,234.98,71.02,-6.44,-41.13,176.03,0,6.02,-2.05,-7.79,-9.81,-291.00,-67.44,-26.25,-19.25,2.00,-0.44,-0.31,0.59,0.60,83.50,-8.66,-115.58,0.00,0.00,0.00,-45.00,3,1,3,0
3112.01,Coasting,68.96,-4.20,631.11,-1.30,-1.30,-1.30,0.00,-4.08,-7.85,644.88,91152.73,29.77,-771902784.00,427046976.00,234.98,71.02,-6.44,-41.13,176.03,0,1.62,-4.08,-7.85,-7.75,-289.00,-67.69,-26.25,-19.25,2.00,-0.42,-0.29,0.60,0.61,83.86,-8.32,-118.46,0.00,0.00,0.00,-45.00,3,1,3,0
3112.02,Coasting,68.95,-4.17,633.85,-1.27,-1.27,-1.27,0.00,-4.26,-7.83,644.88,91152.73,29.77,-771902784.00,427046976.00,234.98,71.02,-6.44,-41.13,176.03,0,3.04,-4.26,-7.83,-7.38,-287.94,-67.50,-26.25,-19.25,2.00,-0.40,-0.28,0.61,0.62,84.19,-7.96,-121.32,0.00,0.00,0.00,-45.00,3,1,3,0
3112.03,Coasting,68.93,-4.14,636.77,-1.24,-1.24,-1.24,0.00,-3.86,-8.02,644.88,91152.73,29.77,-771902784.00,427046976.00,234.98,71.02,-6.44,-41.13,176.03,0,2.58,-3.86,-8.02,-6.69,-288.81,-68.44,-26.25,-19.25,2.00,-0.38,-0.27,0.62,0.63,84.51,-7.57,-124.20,0.00,0.00,0.00,-45.00,3,1,3,0
3112.04,Coasting,68.92,-4.12,639.38,-1.21,-1.21,-1.21,0.00,-5.06,-7.78,644.88,91152.73,29.77,-771902784.00,427046976.00,234.98,71.02,-6.44,-41.13,176.03,0,2.78,-5.06,-7.78,-6.69,-288.81,-68.44,-24.38,-19.56,5.75,-0.37,-0.26,0.62,0.64,84.80,-7.17,-127.05,0.00,0.00,0.00,-45.00,3,1,3,0
3112.05,Coasting,68.91,-4.10,641.44,-1.19,-1.19,-1.19,0.00,-4.26,-7.83,644.88,91152.73,29.77,-771902784.00,427046976.00,234.98,71.02,-6.44,-41.13,176.03,0,3.56,-4.26,-7.83,-7.88,-287.81,-68.62,-24.38,-19.56,5.75,-0.37,-0.26,0.62,0.64,84.80,-7.17,-127.05,0.00,0.00,0.00,-45.00,3,1,3,0
3112.06,Coasting,68.90,-4.08,644.20,-1.16,-1.16,-1.16,0.00,-4.17,-7.98,666.44,90916.62,29.64,-771902784.00,427046976.00,234.98,71.02,-6.44,-41.13,176.03,0,3.40,-4.17,-7.98,-9.00,-287.81,-68.88,-24.38,-19.56,5.75,-0.33,-0.23,0.64,0.66,85.29,-6.32,-132.77,0.00,0.00,0.00,-45.00,3,1,3,0
3112.07,Coasting,68.89,-4.05,647.62,-1.13,-1.13,-1.13,0.00,-4.44,-7.86,666.44,90916.62,29.64,-771902784.00,427046976.00,234.98,71.02,-6.44,-41.13,176.03,0,2.08,-4.44,-7.86,-9.06,-289.12,-68.75,-24.38,-19.56,5.75,-0.31,-0.22,0.64,0.67,85.51,-5.88,-135.63,0.00,0.00,0.00,-45.00,3,1,3,0
3112.08,Coasting,68.88,-4.02,650.48,-1.11,-1.11,-1.11,0.00,-4.16,-8.07,666.44,90916.62,29.64,-771902784.00,427046976.00,234.98,71.02,-6.44,-41.13,176.03,0,1.90,-4.16,-8.07,-8.38,-289.12,-69.19,-24.38,-19.56,5.75,-0.29,-0.21,0.65,0.67,85.71,-5.43,-138.48,0.00,0.00,0.00,-45.00,3,1,3,0
3112.09,Coasting,68.86,-4.00,653.52,-1.09,-1.09,-1.09,0.00,-4.75,-8.02,666.44,90916.62,29.64,-771902784.00,427046976.00,234.98,71.02,-6.44,-41.13,176.03,0,1.98,-4.75,-8.02,-8.38,-289.12,-69.19,-24.38,-19.56,5.75,-0.27,-0.20,0.65,0.68,85.89,-4.97,-141.34,0.00,0.00,0.00,-45.00,3,1,3,0
3112.10,Coasting,68.85,-3.98,655.76,-1.07,-1.07,-1.07,0.00,-5.16,-7.89,666.44,90916.62,29.64,-771902784.00,427046976.00,234.98,71.02,-6.44,-41.13,176.03,0,2.03,-5.16,-7.89,-8.00,-289.38,-69.12,-20.19,-21.50,10.56,-0.27,-0.20,0.65,0.68,85.89,-4.97,-141.34,0.00,0.00,0.00,-45.00,3,1,3,0
3112.11,Coasting,68.85,-3.96,658.19,-1.06,-1.06,-1.06,0.00,-4.46,-8.09,666.44,90916.62,29.64,-771902784.00,427046976.00,234.98,71.02,-6.44,-41.13,176.03,0,1.84,-4.46,-8.09,-8.56,-289.06,-69.44,-20.19,-21.50,10.56,-0.23,-0.17,0.66,0.69,86.17,-4.01,-147.04,0.00,0.00,0.00,-45.00,3,1,3,0
3112.12,Coasting,68.83,-3.93,661.73,-1.04,-1.04,-1.04,0.00,-4.20,-7.96,685.64,90706.70,29.65,-771902784.00,427046976.00,234.98,71.02,-6.44,-41.13,176.03,0,1.60,-4.20,-7.96,-9.75,-290.44,-69.62,-20.19,-21.50,10.56,-0.21,-0.16,0.67,0.70,86.26,-3.53,-149.89,0.00,0.00,0.00,-45.00,3,1,3,0
3112.14,Coasting,68.82,-3.91,664.96,-1.03,-1.03,-1.03,0.00,-4.17,-8.05,685.64,90706.70,29.65,-771902784.00,427046976.00,234.98,71.02,-6.44,-41.13,176.03,0,0.95,-4.17,-8.05,-8.75,-289.88,-69.44,-20.19,-21.50,10.56,-0.19,-0.14,0.67,0.70,86.34,-3.03,-152.74,0.00,0.00,0.00,-45.00,3,1,3,0
3112.15,Coasting,68.81,-3.88,667.87,-1.01,-1.01,-1.01,0.00,-5.47,-7.87,685.64,90706.70,29.65,-771902784.00,427046976.00,234.98,71.02,-6.44,-41.13,176.03,0,1.28,-5.47,-7.87,-8.75,-289.88,-69.44,-20.19,-21.50,10.56,-0.17,-0.13,0.67,0.71,86.39,-2.54,-155.60,0.00,0.00,0.00,-45.00,3,1,3,0
3112.15,Coasting,68.80,-3.87,670.47,-1.00,-1.00,-1.00,0.00,-5.70,-7.61,685.64,90706.70,29.65,-771902784.00,427046976.00,234.98,71.02,-6.44,-41.13,176.03,0,2.18,-5.70,-7.61,-9.38,-290.94,-69.19,-15.06,-21.69,15.75,-0.17,-0.13,0.67,0.71,86.39,-2.54,-155.60,0.00,0.00,0.00,-45.00,3,1,3,0
3112.16,Coasting,68.79,-3.85,672.77,-0.98,-0.98,-0.98,0.00,-4.41,-7.86,685.64,90706.70,29.65,-771902784.00,427046976.00,234.98,71.02,-6.44,-41.13,176.03,0,2.23,-4.41,-7.86,-9.56,-289.94,-69.38,-15.06,-21.69,15.75,-0.13,-0.10,0.68,0.72,86.40,-1.57,-161.30,0.00,0.00,0.00,-45.00,3,1,3,0
3112.17,Coasting,68.78,-3.82,675.99,-0.96,-0.96,-0.96,0.00,-5.10,-7.68,685.64,90706.70,29.65,-771902784.00,427046976.00,234.98,71.02,-6.44,-41.13,176.03,0,1.31,-5.10,-7.68,-10.88,-292.44,-67.81,-15.06,-21.69,15.75,-0.11,-0.09,0.68,0.72,86.36,-1.09,-164.17,0.00,0.00,0.00,-45.00,3,1,3,0
3112.19,Coasting,68.77,-3.80,678.90,-0.96,-0.96,-0.96,0.00,-4.28,-7.97,685.64,90706.70,29.65,-771902784.00,427046976.00,234.98,71.02,-6.44,-41.13,176.03,0,0.07,-4.28,-7.97,-9.94,-292.31,-68.00,-15.06,-21.69,15.75,-0.09,-0.07,0.68,0.72,86.31,-0.62,-167.03,0.00,0.00,0.00,-45.00,3,1,3,0
3112.20,Coasting,68.76,-3.78,682.15,-0.97,-0.97,-0.97,0.00,-5.85,-7.83,703.81,90508.51,29.76,-771902784.00,427046976.00,234.98,71.02,-6.44,-41.13,176.03,0,-0.67,-5.85,-7.83,-9.94,-292.31,-68.00,-15.06,-21.69,15.75,-0.07,-0.06,0.68,0.73,86.23,-0.13,-169.87,0.00,0.00,0.00,-45.00,3,1,3,0
3112.20,Coasting,68.75,-3.77,684.59,-0.96,-0.96,-0.96,0.00,-4.67,-7.72,703.81,90508.51,29.76,-771902784.00,427046976.00,234.98,71.02,-6.44,-41.13,176.03,0,0.48,-4.67,-7.72,-10.12,-289.94,-68.81,-9.50,-22.50,17.00,-0.07,-0.06,0.68,0.73,86.23,-0.13,-169.87,0.00,0.00,0.00,-45.00,3,1,3,0
3112.21,Coasting,68.74,-3.75,687.23,-0.95,-0.95,-0.95,0.00,-5.38,-7.69,703.81,90508.51,29.76,-771902784.00,427046976.00,234.98,71.02,-6.44,-41.13,176.03,0,1.83,-5.38,-7.69,-10.00,-289.94,-68.94,-9.50,-22.50,17.00,-0.02,-0.03,0.68,0.73,85.99,0.81,-175.57,0.00,0.00,0.00,-45.00,3,1,3,0
3112.22,Coasting,68.73,-3.73,690.30,-0.96,-0.96,-0.96,0.00,-4.60,-7.78,703.81,90508.51,29.76,-771902784.00,427046976.00,234.98,71.02,-6.44,-41.13,176.03,0,-0.80,-4.60,-7.78,-10.94,-291.50,-67.44,-9.50,-22.50,17.00,-0.00,-0.02,0.68,0.73,85.84,1.25,-178.45,0.00,0.00,0.00,-45.00,3,1,3,0
3112.24,Coasting,68.72,-3.71,693.30,-0.97,-0.97,-0.97,0.00,-5.36,-7.87,703.81,90508.51,29.76,-771902784.00,427046976.00,234.98,71.02,-6.44,-41.13,176.03,0,-1.14,-5.36,-7.87,-10.94,-291.25,-66.50,-9.50,-22.50,17.00,0.02,-0.00,0.68,0.73,85.66,1.69,178.69,0.00,0.00,0.00,-45.00,3,1,3,0
3112.25,Coasting,68.71,-3.70,696.24,-0.98,-0.98,-0.98,0.00,-4.09,-8.17,703.81,90508.51,29.76,-771902784.00,427046976.00,234.98,71.02,-6.44,-41.13,176.03,0,-1.36,-4.09,-8.17,-10.94,-291.25,-66.50,-9.50,-22.50,17.00,0.04,0.01,0.68,0.73,85.47,2.12,175.84,0.00,0.00,0.00,-45.00,3,1,3,0
3112.25,Coasting,68.71,-3.68,698.80,-1.00,-1.00,-1.00,0.00,-5.42,-7.94,722.87,90300.91,29.76,-771902784.00,427046976.00,234.98,71.02,-6.44,-41.13,176.03,0,-1.50,-5.42,-7.94,-10.19,-291.31,-68.00,-2.69,-24.06,18.19,0.04,0.01,0.68,0.73,85.47,2.12,175.84,0.00,0.00,0.00,-45.00,3,1,3,0
3112.26,Coasting,68.70,-3.67,701.55,-1.00,-1.00,-1.00,0.00,-3.48,-8.02,722.87,90300.91,29.76,-771902784.00,427046976.00,234.98,71.02,-6.44,-41.13,176.03,0,-0.49,-3.48,-8.02,-11.00,-290.12,-67.56,-2.69,-24.06,18.19,0.08,0.04,0.67,0.73,85.01,2.96,170.13,0.00,0.00,0.00,-45.00,3,1,3,0
3112.27,Coasting,68.68,-3.65,704.98,-1.02,-1.02,-1.02,0.00,-4.52,-7.92,722.87,90300.91,29.76,-771902784.00,427046976.00,234.98,71.02,-6.44,-41.13,176.03,0,-1.20,-4.52,-7.92,-9.94,-289.38,-67.25,-2.69,-24.06,18.19,0.10,0.05,0.67,0.73,84.75,3.37,167.27,0.00,0.00,0.00,-45.00,3,1,3,0
3112.29,Coasting,68.67,-3.63,708.09,-1.03,-1.03,-1.03,0.00,-4.36,-8.02,722.87,90300.91,29.76,-771902784.00,427046976.00,234.98,71.02,-6.44,-41.13,176.03,0,-1.68,-4.36,-8.02,-10.00,-288.25,-67.00,-2.69,-24.06,18.19,0.12,0.07,0.67,0.73,84.48,3.75,164.43,0.00,0.00,0.00,-45.00,3,1,3,0
3112.30,Coasting,68.66,-3.62,710.88,-1.05,-1.05,-1.05,0.00,-5.00,-8.06,722.87,90300.91,29.76,-771902784.00,427046976.00,234.98,71.02,-6.44,-41.13,176.03,0,-2.13,-5.00,-8.06,-10.00,-288.25,-67.00,4.38,-23.00,17.88,0.14,0.08,0.67,0.73,84.18,4.12,161.58,0.00,0.00,0.00,-45.00,3,1,3,0
3112.30,Coasting,68.65,-3.61,713.37,-1.06,-1.06,-1.06,0.00,-5.27,-7.46,722.87,90300.91,29.76,-771902784.00,427046976.00,234.98,71.02,-6.44,-41.13,176.03,0,-0.34,-5.27,-7.46,-10.69,-288.62,-67.31,4.38,-23.00,17.88,0.14,0.08,0.67,0.73,84.18,4.12,161.58,0.00,0.00,0.00,-45.00,3,1,3,0
3112.31,Coasting,68.64,-3.60,715.56,-1.05,-1.05,-1.05,0.00,-4.45,-7.85,722.87,90300.91,29.76,-771902784.00,427046976.00,234.98,71.02,-6.44,-41.13,176.03,0,0.57,-4.45,-7.85,-11.56,-288.19,-66.38,4.38,-23.00,17.88,0.18,0.11,0.66,0.72,83.52,4.79,155.86,0.00,0.00,0.00,-45.00,3,1,3,0
3112.32,Coasting,68.63,-3.58,719.10,-1.07,-1.07,-1.07,0.00,-3.63,-7.83,741.52,90098.11,29.76,-771902784.00,427046976.00,234.98,71.02,-6.44,-41.13,176.03,0,-1.29,-3.63,-7.83,-10.75,-290.19,-65.69,4.38,-23.00,17.88,0.20,0.12,0.65,0.72,83.17,5.09,152.99,0.00,0.00,0.00,-45.00,3,1,3,0
3112.34,Coasting,68.62,-3.57,722.31,-1.10,-1.10,-1.10,0.00,-3.20,-8.24,741.52,90098.11,29.76,-771902784.00,427046976.00,234.98,71.02,-6.44,-41.13,176.03,0,-3.17,-3.20,-8.24,-9.12,-288.94,-65.88,4.38,-23.00,17.88,0.22,0.14,0.65,0.72,82.83,5.39,150.12,0.00,0.00,0.00,-45.00,3,1,3,0
3112.35,Coasting,68.61,-3.56,725.21,-1.13,-1.13,-1.13,0.00,-3.62,-8.27,741.52,90098.11,29.76,-771902784.00,427046976.00,234.98,71.02,-6.44,-41.13,176.03,0,-2.95,-3.62,-8.27,-9.12,-288.94,-65.88,4.38,-23.00,17.88,0.24,0.15,0.64,0.71,82.47,5.67,147.27,0.00,0.00,0.00,-45.00,3,1,3,0
3112.35,Coasting,68.60,-3.55,727.80,-1.16,-1.16,-1.16,0.00,-3.45,-8.17,741.52,90098.11,29.76,-771902784.00,427046976.00,234.98,71.02,-6.44,-41.13,176.03,0,-2.84,-3.45,-8.17,-8.62,-287.56,-66.81,10.69,-23.19,16.75,0.24,0.15,0.64,0.71,82.47,5.67,147.27,0.00,0.00,0.00,-45.00,3,1,3,0
3112.36,Coasting,68.59,-3.53,730.34,-1.17,-1.17,-1.17,0.00,-3.62,-7.95,741.52,90098.11,29.76,-771902784.00,427046976.00,234.98,71.02,-6.44,-41.13,176.03,0,-1.04,-3.62,-7.95,-8.75,-287.56,-67.00,10.69,-23.19,16.75,0.28,0.18,0.63,0.70,81.70,6.19,141.55,0.00,0.00,0.00,-45.00,3,1,3,0
3112.38,Coasting,68.57,-3.52,733.31,-1.17,-1.17,-1.17,0.00,-4.99,-7.60,741.52,90098.11,29.76,-771902784.00,427046976.00,234.98,71.02,-6.44,-41.13,176.03,0,-0.06,-4.99,-7.60,-8.25,-286.88,-66.25,10.69,-23.19,16.75,0.30,0.19,0.62,0.70,81.31,6.42,138.70,0.00,0.00,0.00,-45.00,3,1,3,0
3112.39,Coasting,68.56,-3.51,736.65,-1.19,-1.19,-1.19,0.00,-4.18,-7.95,761.14,89885.20,29.76,-771902784.00,427046976.00,234.98,71.02,-6.44,-41.13,176.03,0,-1.61,-4.18,-7.95,-8.00,-289.00,-65.00,10.69,-23.19,16.75,0.32,0.20,0.62,0.69,80.91,6.61,135.82,0.00,0.00,0.00,-45.00,3,1,3,0
3112.40,Coasting,68.55,-3.50,739.92,-1.23,-1.23,-1.23,0.00,-2.18,-8.36,761.14,89885.20,29.76,-771902784.00,427046976.00,234.98,71.02,-6.44,-41.13,176.03,0,-4.13,-2.18,-8.36,-8.00,-289.00,-65.00,10.69,-23.19,16.75,0.34,0.22,0.61,0.68,80.49,6.79,132.96,0.00,0.00,0.00,-45.00,3,1,3,0
3112.41,Coasting,68.54,-3.49,742.38,-1.26,-1.26,-1.26,0.00,-2.85,-8.24,761.14,89885.20,29.76,-771902784.00,427046976.00,234.98,71.02,-6.44,-41.13,176.03,0,-3.25,-2.85,-8.24,-8.12,-286.81,-65.62,16.50,-23.56,15.19,0.34,0.22,0.61,0.68,80.49,6.79,132.96,0.00,0.00,0.00,-45.00,3,1,3,0
3112.41,Coasting,68.53,-3.48,745.03,-1.28,-1.28,-1.28,0.00,-2.43,-8.20,761.14,89885.20,29.76,-771902784.00,427046976.00,234.98,71.02,-6.44,-41.13,176.03,0,-2.87,-2.43,-8.20,-9.00,-285.38,-66.94,16.50,-23.56,15.19,0.38,0.24,0.59,0.67,79.63,7.11,127.25,0.00,0.00,0.00,-45.00,3,1,3,0
3112.43,Coasting,68.51,-3.47,748.13,-1.31,-1.31,-1.31,0.00,-2.61,-8.08,761.14,89885.20,29.76,-771902784.00,427046976.00,234.98,71.02,-6.44,-41.13,176.03,0,-2.28,-2.61,-8.08,-8.75,-285.31,-67.44,16.50,-23.56,15.19,0.39,0.25,0.59,0.66,79.19,7.25,124.40,0.00,0.00,0.00,-45.00,3,1,3,0
3112.44,Coasting,68.50,-3.46,751.16,-1.33,-1.33,-1.33,0.00,-3.92,-7.65,761.14,89885.20,29.76,-771902784.00,427046976.00,234.98,71.02,-6.44,-41.13,176.03,0,-1.89,-3.92,-7.65,-8.62,-285.94,-66.12,16.50,-23.56,15.19,0.41,0.27,0.58,0.65,78.75,7.35,121.54,0.00,0.00,0.00,-45.00,3,1,3,0
3112.45,Coasting,68.48,-3.45,754.12,-1.38,-1.38,-1.38,0.00,-1.90,-8.24,761.14,89885.20,29.76,-771902784.00,427046976.00,234.98,71.02,-6.44,-41.13,176.03,0,-4.27,-1.90,-8.24,-8.62,-285.94,-66.12,16.50,-23.56,15.19,0.43,0.28,0.57,0.64,78.29,7.42,118.67,0.00,0.00,0.00,-45.00,3,1,3,0
3112.46,Coasting,68.47,-3.45,756.95,-1.42,-1.42,-1.42,0.00,-0.69,-8.76,780.58,89674.63,29.76,-771902784.00,427046976.00,234.98,71.02,-6.44,-41.13,176.03,0,-4.52,-0.69,-8.76,-8.62,-286.94,-66.12,19.75,-22.56,10.06,0.43,0.28,0.57,0.64,78.29,7.42,118.67,0.00,0.00,0.00,-45.00,3,1,3,0
3112.46,Coasting,68.46,-3.44,759.46,-1.44,-1.44,-1.44,0.00,-1.40,-8.40,780.58,89674.63,29.76,-771902784.00,427046976.00,234.98,71.02,-6.44,-41.13,176.03,0,-3.01,-1.40,-8.40,-9.88,-285.69,-66.81,19.75,-22.56,10.06,0.46,0.30,0.55,0.63,77.36,7.54,112.95,0.00,0.00,0.00,-45.00,3,1,3,0
3112.48,Coasting,68.44,-3.43,762.92,-1.47,-1.47,-1.47,0.00,-2.64,-8.02,780.58,89674.63,29.76,-771902784.00,427046976.00,234.98,71.02,-6.44,-41.13,176.03,0,-2.24,-2.64,-8.02,-9.94,-284.88,-67.62,19.75,-22.56,10.06,0.48,0.31,0.54,0.62,76.88,7.56,110.09,0.00,0.00,0.00,-45.00,3,1,3,0
3112.49,Coasting,68.43,-3.42,766.06,-1.50,-1.50,-1.50,0.00,-2.18,-8.09,780.58,89674.63,29.76,-771902784.00,427046976.00,234.98,71.02,-6.44,-41.13,176.03,0,-2.66,-2.18,-8.09,-9.56,-283.88,-66.75,19.75,-22.56,10.06,0.50,0.32,0.53,0.61,76.41,7.55,107.25,0.00,0.00,0.00,-45.00,3,1,3,0
3112.50,Coasting,68.41,-3.41,768.89,-1.54,-1.54,-1.54,0.00,-2.60,-8.22,780.58,89674.63,29.76,-771902784.00,427046976.00,234.98,71.02,-6.44,-41.13,176.03,0,-4.23,-2.60,-8.22,-9.56,-283.88,-66.75,19.75,-22.56,10.06,0.51,0.34,0.52,0.60,75.94,7.52,104.38,0.00,0.00,0.00,-45.00,3,1,3,0
3112.51,Coasting,68.40,-3.40,771.40,-1.58,-1.58,-1.58,0.00,-0.83,-8.46,780.58,89674.63,29.76,-771902784.00,427046976.00,234.98,71.02,-6.44,-41.13,176.03,0,-4.04,-0.83,-8.46,-10.81,-285.69,-66.25,22.75,-21.56,4.19,0.51,0.34,0.52,0.60,75.94,7.52,104.38,0.00,0.00,0.00,-45.00,3,1,3,0
3112.51,Coasting,68.38,-3.40,774.01,-1.59,-1.59,-1.59,0.00,-1.15,-8.04,799.39,89674.63,29.76,-771902784.00,427046976.00,234.98,71.02,-6.44,-41.13,176.03,0,-1.82,-1.15,-8.04,-11.88,-285.06,-67.31,22.75,-21.56,4.19,0.55,0.36,0.49,0.58,74.96,7.40,98.67,0.00,0.00,0.00,-45.00,3,1,3,0
3112.53,Coasting,68.36,-3.39,777.57,-1.61,-1.61,-1.61,0.00,-0.85,-8.34,799.45,89470.67,29.76,-771902784.00,427046976.00,234.98,71.02,-6.44,-41.13,176.03,0,-1.92,-0.85,-8.34,-11.69,-285.06,-67.62,22.75,-21.56,4.19,0.56,0.37,0.48,0.56,74.49,7.30,95.81,0.00,0.00,0.00,-45.00,3,1,3,0
3112.54,Coasting,68.35,-3.38,780.81,-1.64,-1.64,-1.64,0.00,0.56,-8.39,799.45,89470.67,29.76,-771902784.00,427046976.00,234.98,71.02,-6.44,-41.13,176.03,0,-2.52,0.56,-8.39,-10.50,-283.38,-68.06,22.75,-21.56,4.19,0.58,0.38,0.47,0.55,74.03,7.20,92.97,0.00,0.00,0.00,-45.00,3,1,3,0
3112.55,Coasting,68.33,-3.37,783.99,-1.69,-1.69,-1.69,0.00,-2.12,-8.04,799.45,89470.67,29.76,-771902784.00,427046976.00,234.98,71.02,-6.44,-41.13,176.03,0,-4.00,-2.12,-8.04,-10.50,-283.38,-68.06,22.75,-21.56,4.19,0.59,0.39,0.46,0.54,73.56,7.06,90.12,0.00,0.00,0.00,-45.00,3,1,3,0
3112.56,Coasting,68.32,-3.37,786.34,-1.71,-1.71,-1.71,0.00,-0.87,-8.38,799.45,89470.67,29.76,-771902784.00,427046976.00,234.98,71.02,-6.44,-41.13,176.03,0,-2.48,-0.87,-8.38,-12.00,-283.75,-68.31,24.56,-21.19,-1.75,0.59,0.39,0.46,0.54,73.56,7.06,90.12,0.00,0.00,0.00,-45.00,3,1,3,0
3112.56,Coasting,68.30,-3.36,788.89,-1.73,-1.73,-1.73,0.00,-0.49,-8.27,799.45,89470.67,29.76,-771902784.00,427046976.00,234.98,71.02,-6.44,-41.13,176.03,0,-3.05,-0.49,-8.27,-12.94,-286.31,-67.88,24.56,-21.19,-1.75,0.62,0.41,0.43,0.51,72.62,6.70,84.40,0.00,0.00,0.00,-45.00,3,1,3,0
3112.58,Coasting,68.28,-3.35,792.15,-1.76,-1.76,-1.76,0.00,-0.14,-8.31,799.45,89470.67,29.76,-771902784.00,427046976.00,234.98,71.02,-6.44,-41.13,176.03,0,-2.36,-0.14,-8.31,-12.81,-286.44,-67.12,24.56,-21.19,-1.75,0.63,0.42,0.42,0.50,72.16,6.48,81.54,0.00,0.00,0.00,-45.00,3,1,3,0
3112.59,Coasting,68.26,-3.35,795.22,-1.79,-1.79,-1.79,0.00,0.37,-8.45,817.66,89274.14,29.76,-771902784.00,427046976.00,234.98,71.02,-6.44,-41.13,176.03,0,-2.86,0.37,-8.45,-12.25,-285.31,-67.00,24.56,-21.19,-1.75,0.65,0.42,0.41,0.49,71.73,6.24,78.70,0.00,0.00,0.00,-45.00,3,1,3,0
3112.60,Coasting,68.24,-3.34,798.49,-1.82,-1.82,-1.82,0.00,-1.15,-8.00,817.66,89274.14,29.76,-771902784.00,427046976.00,234.98,71.02,-6.44,-41.13,176.03,0,-2.30,-1.15,-8.00,-12.25,-285.31,-67.00,24.56,-21.19,-1.75,0.66,0.43,0.39,0.47,71.31,5.98,75.86,0.00,0.00,0.00,-45.00,3,1,3,0
3112.61,Coasting,68.22,-3.33,801.17,-1.84,-1.84,-1.84,0.00,-1.40,-8.16,817.66,89274.14,29.76,-771902784.00,427046976.00,234.98,71.02,-6.44,-41.13,176.03,0,-3.07,-1.40,-8.16,-12.50,-285.44,-66.44,25.75,-19.06,-7.00,0.66,0.43,0.39,0.47,71.31,5.98,75.86,0.00,0.00,0.00,-45.00,3,1,3,0
3112.61,Coasting,68.21,-3.33,803.55,-1.86,-1.86,-1.86,0.00,1.30,-8.61,817.66,89274.14,29.76,-771902784.00,427046976.00,234.98,71.02,-6.44,-41.13,176.03,0,-2.60,1.30,-8.61,-12.44,-287.69,-65.50,25.75,-19.06,-7.00,0.68,0.45,0.36,0.45,70.50,5.34,70.16,0.00,0.00,0.00,-45.00,3,1,3,0
3112.63,Coasting,68.19,-3.32,806.90,-1.89,-1.89,-1.89,0.00,1.78,-8.68,817.66,89274.14,29.76,-771902784.00,427046976.00,234.98,71.02,-6.44,-41.13,176.03,0,-2.45,1.78,-8.68,-12.50,-287.50,-64.88,25.75,-19.06,-7.00,0.69,0.46,0.35,0.43,70.12,5.01,67.32,0.00,0.00,0.00,-45.00,3,1,3,0
3112.64,Coasting,68.17,-3.31,809.92,-1.91,-1.91,-1.91,0.00,0.88,-8.37,817.66,89274.14,29.76,-771902784.00,427046976.00,234.98,71.02,-6.44,-41.13,176.03,0,-1.33,0.88,-8.37,-12.75,-285.75,-65.81,25.75,-19.06,-7.00,0.71,0.47,0.33,0.42,69.76,4.66,64.50,0.00,0.00,0.00,-45.00,3,1,3,0
3112.65,Coasting,68.15,-3.30,813.01,-1.93,-1.93,-1.93,0.00,0.02,-8.35,835.86,89078.14,29.76,-771902784.00,427046976.00,234.98,71.02,-6.44,-41.13,176.03,0,-2.04,0.02,-8.35,-12.75,-285.75,-65.81,25.75,-19.06,-7.00,0.72,0.47,0.32,0.40,69.43,4.28,61.68,0.00,0.00,0.00,-45.00,3,1,3,0
3112.66,Coasting,68.13,-3.30,815.78,-1.95,-1.95,-1.95,0.00,-0.07,-8.06,835.86,89078.14,29.76,-771902784.00,427046976.00,234.98,71.02,-6.44,-41.13,176.03,0,-2.61,-0.07,-8.06,-11.81,-284.69,-65.00,23.38,-18.38,-12.88,0.72,0.47,0.32,0.40,69.43,4.28,61.68,0.00,0.00,0.00,-45.00,3,1,3,0
3112.67,Coasting,68.11,-3.29,818.24,-1.97,-1.97,-1.97,0.00,1.86,-8.61,835.86,89078.14,29.76,-771902784.00,427046976.00,234.98,71.02,-6.44,-41.13,176.03,0,-2.61,1.86,-8.61,-11.62,-286.06,-63.88,23.38,-18.38,-12.88,0.74,0.49,0.29,0.37,68.81,3.47,56.06,0.00,0.00,0.00,-45.00,3,1,3,0
3112.68,Coasting,68.09,-3.28,821.67,-1.99,-1.99,-1.99,0.00,2.31,-8.47,835.86,89078.14,29.76,-771902784.00,427046976.00,234.98,71.02,-6.44,-41.13,176.03,0,-1.06,2.31,-8.47,-11.88,-284.81,-64.31,23.38,-18.38,-12.88,0.75,0.49,0.27,0.36,68.54,3.04,53.26,0.00,0.00,0.00,-45.00,3,1,3,0
3112.69,Coasting,68.07,-3.27,824.77,-2.00,-2.00,-2.00,0.00,0.84,-8.41,835.86,89078.14,29.76,-771902784.00,427046976.00,234.98,71.02,-6.44,-41.13,176.03,0,-1.43,0.84,-8.41,-11.50,-283.56,-64.69,23.38,-18.38,-12.88,0.75,0.50,0.26,0.34,68.29,2.62,50.47,0.00,0.00,0.00,-45.00,3,1,3,0
3112.70,Coasting,68.05,-3.26,827.81,-2.01,-2.01,-2.01,0.00,1.24,-8.36,835.86,89078.14,29.76,-771902784.00,427046976.00,234.98,71.02,-6.44,-41.13,176.03,0,-1.12,1.24,-8.36,-11.50,-283.56,-64.69,23.38,-18.38,-12.88,0.76,0.51,0.24,0.33,68.06,2.18,47.69,0.00,0.00,0.00,-45.00,3,1,3,0
3112.71,Coasting,68.03,-3.26,830.03,-2.02,-2.02,-2.02,0.00,1.85,-8.49,835.86,89078.14,29.76,-771902784.00,427046976.00,234.98,71.02,-6.44,-41.13,176.03,0,-0.95,1.85,-8.49,-10.94,-283.81,-64.88,20.75,-16.88,-18.00,0.76,0.51,0.24,0.33,68.06,2.18,47.69,0.00,0.00,0.00,-45.00,3,1,3,0
3112.72,Coasting,68.01,-3.25,832.83,-2.04,-2.04,-2.04,0.00,2.30,-8.70,854.33,88879.55,29.75,-771902784.00,427046976.00,234.98,71.02,-6.44,-41.13,176.03,0,-1.72,2.30,-8.70,-10.38,-282.38,-65.25,20.75,-16.88,-18.00,0.78,0.52,0.21,0.29,67.69,1.29,42.15,0.00,0.00,0.00,-45.00,3,1,3,0
3112.73,Coasting,67.99,-3.24,836.09,-2.05,-2.05,-2.05,0.00,1.30,-8.46,854.33,88879.55,29.75,-771902784.00,427046976.00,234.98,71.02,-6.44,-41.13,176.03,0,-0.88,1.30,-8.46,-10.75,-281.69,-65.69,20.75,-16.88,-18.00,0.78,0.52,0.19,0.28,67.53,0.85,39.38,0.00,0.00,0.00,-45.00,3,1,3,0
3112.74,Coasting,67.97,-3.23,839.28,-2.05,-2.05,-2.05,0.00,1.43,-8.18,854.33,88879.55,29.75,-771902784.00,427046976.00,234.98,71.02,-6.44,-41.13,176.03,0,-0.59,1.43,-8.18,-11.19,-281.81,-65.62,20.75,-16.88,-18.00,0.79,0.53,0.18,0.26,67.39,0.39,36.62,0.00,0.00,0.00,-45.00,3,1,3,0
3112.75,Coasting,67.94,-3.22,842.42,-2.06,-2.06,-2.06,0.00,1.17,-8.20,854.33,88879.55,29.75,-771902784.00,427046976.00,234.98,71.02,-6.44,-41.13,176.03,0,-0.68,1.17,-8.20,-11.19,-281.81,-65.62,20.75,-16.88,-18.00,0.80,0.53,0.16,0.24,67.28,-0.08,33.85,0.00,0.00,0.00,-45.00,3,1,3,0
3112.76,Coasting,67.93,-3.21,844.97,-2.07,-2.07,-2.07,0.00,2.32,-8.52,854.33,88879.55,29.75,-771902784.00,427046976.00,234.98,71.02,-6.44,-41.13,176.03,0,-1.13,2.32,-8.52,-10.44,-281.69,-65.81,16.00,-15.69,-22.00,0.80,0.53,0.16,0.24,67.28,-0.08,33.85,0.00,0.00,0.00,-45.00,3,1,3,0
3112.77,Coasting,67.91,-3.21,847.21,-2.08,-2.08,-2.08,0.00,2.36,-8.38,854.33,88879.55,29.75,-771902784.00,427046976.00,234.98,71.02,-6.44,-41.13,176.03,0,-0.76,2.36,-8.38,-9.62,-280.38,-66.00,16.00,-15.69,-22.00,0.81,0.54,0.13,0.21,67.14,-1.00,28.35,0.00,0.00,0.00,-45.00,3,1,3,0
3112.78,Coasting,67.88,-3.19,850.82,-2.09,-2.09,-2.09,0.00,2.17,-8.41,872.63,88683.07,29.75,-771902784.00,427046976.00,234.98,71.02,-6.44,-41.13,176.03,0,-0.76,2.17,-8.41,-11.00,-280.81,-66.31,16.00,-15.69,-22.00,0.81,0.54,0.11,0.19,67.09,-1.47,25.60,0.00,0.00,0.00,-45.00,3,1,3,0
3112.79,Coasting,67.86,-3.18,854.09,-2.09,-2.09,-2.09,0.00,1.80,-8.37,872.63,88683.07,29.75,-771902784.00,427046976.00,234.98,71.02,-6.44,-41.13,176.03,0,-0.70,1.80,-8.37,-11.38,-281.50,-66.44,16.00,-15.69,-22.00,0.82,0.54,0.10,0.17,67.06,-1.94,22.83,0.00,0.00,0.00,-45.00,3,1,3,0
3112.80,Coasting,67.84,-3.17,857.30,-2.09,-2.09,-2.09,0.00,1.78,-8.29,872.63,88683.07,29.75,-771902784.00,427046976.00,234.98,71.02,-6.44,-41.13,176.03,0,-0.14,1.78,-8.29,-11.38,-281.50,-66.44,16.00,-15.69,-22.00,0.82,0.55,0.08,0.16,67.06,-2.41,20.07,0.00,0.00,0.00,-45.00,3,1,3,0
3112.81,Coasting,67.82,-3.17,859.67,-2.08,-2.08,-2.08,0.00,2.40,-8.31,872.63,88683.07,29.75,-771902784.00,427046976.00,234.98,71.02,-6.44,-41.13,176.03,0,1.23,2.40,-8.31,-10.50,-282.12,-66.31,9.69,-15.00,-26.00,0.82,0.55,0.08,0.16,67.06,-2.41,20.07,0.00,0.00,0.00,-45.00,3,1,3,0
3112.82,Coasting,67.80,-3.16,862.00,-2.08,-2.08,-2.08,0.00,2.45,-8.18,872.63,88683.07,29.75,-771902784.00,427046976.00,234.98,71.02,-6.44,-41.13,176.03,0,0.95,2.45,-8.18,-10.94,-282.25,-67.00,9.69,-15.00,-26.00,0.82,0.55,0.05,0.12,67.13,-3.33,14.54,0.00,0.00,0.00,-45.00,3,1,3,0
3112.83,Coasting,67.78,-3.15,865.31,-2.09,-2.09,-2.09,0.00,1.80,-8.30,872.63,88683.07,29.75,-771902784.00,427046976.00,234.98,71.02,-6.44,-41.13,176.03,0,-1.21,1.80,-8.30,-10.81,-280.88,-67.06,9.69,-15.00,-26.00,0.83,0.55,0.03,0.10,67.19,-3.79,11.77,0.00,0.00,0.00,-45.00,3,1,3,0
3112.84,Coasting,67.76,-3.13,868.29,-2.09,-2.09,-2.09,0.00,1.07,-8.15,872.63,88683.07,29.75,-771902784.00,427046976.00,234.98,71.02,-6.44,-41.13,176.03,0,0.03,1.07,-8.15,-11.88,-283.75,-66.56,9.69,-15.00,-26.00,0.83,0.55,0.01,0.09,67.27,-4.26,8.98,0.00,0.00,0.00,-45.00,3,1,3,0
3112.85,Coasting,67.73,-3.12,871.59,-2.08,-2.08,-2.08,0.00,1.76,-8.13,891.47,88481.28,29.75,-771902784.00,427046976.00,234.98,71.02,-6.44,-41.13,176.03,0,0.71,1.76,-8.13,-11.88,-283.75,-66.56,9.69,-15.00,-26.00,0.83,0.56,-0.00,0.07,67.38,-4.72,6.19,0.00,0.00,0.00,-45.00,3,1,3,0
3112.86,Coasting,67.72,-3.11,874.06,-2.07,-2.07,-2.07,0.00,1.68,-7.99,891.47,88481.28,29.75,-771902784.00,427046976.00,234.98,71.02,-6.44,-41.13,176.03,0,1.37,1.68,-7.99,-11.25,-283.94,-66.19,4.19,-15.25,-26.75,0.83,0.56,-0.00,0.07,67.38,-4.72,6.19,0.00,0.00,0.00,-45.00,3,1,3,0
3112.87,Coasting,67.70,-3.10,876.74,-2.06,-2.06,-2.06,0.00,2.77,-8.29,891.47,88481.28,29.75,-771902784.00,427046976.00,234.98,71.02,-6.44,-41.13,176.03,0,1.30,2.77,-8.29,-11.00,-282.50,-66.38,4.19,-15.25,-26.75,0.83,0.56,-0.04,0.03,67.66,-5.62,0.62,0.00,0.00,0.00,-45.00,3,1,3,0
3112.88,Coasting,67.67,-3.09,880.14,-2.06,-2.06,-2.06,0.00,1.89,-8.10,891.47,88481.28,29.75,-771902784.00,427046976.00,234.98,71.02,-6.44,-41.13,176.03,0,-0.24,1.89,-8.10,-12.19,-282.00,-67.06,4.19,-15.25,-26.75,0.83,0.56,-0.05,0.01,67.82,-6.05,-2.16,0.00,0.00,0.00,-45.00,3,1,3,0
3112.89,Coasting,67.65,-3.08,883.21,-2.07,-2.07,-2.07,0.00,1.41,-8.14,891.47,88481.28,29.75,-771902784.00,427046976.00,234.98,71.02,-6.44,-41.13,176.03,0,-0.71,1.41,-8.14,-12.00,-283.75,-65.88,4.19,-15.25,-26.75,0.83,0.56,-0.07,-0.00,68.01,-6.49,-4.97,0.00,0.00,0.00,-45.00,3,1,3,0
3112.90,Coasting,67.63,-3.07,885.96,-2.06,-2.06,-2.06,0.00,1.03,-7.96,891.47,88481.28,29.75,-771902784.00,427046976.00,234.98,71.02,-6.44,-41.13,176.03,0,1.13,1.03,-7.96,-12.00,-283.75,-65.88,4.19,-15.25,-26.75,0.83,0.56,-0.09,-0.02,68.24,-6.93,-7.76,0.00,0.00,0.00,-45.00,3,1,3,0
3112.91,Coasting,67.61,-3.06,888.78,-2.03,-2.03,-2.03,0.00,2.35,-8.01,910.29,88280.75,29.75,-771902784.00,427046976.00,234.98,71.02,-6.44,-41.13,176.03,0,2.89,2.35,-8.01,-10.81,-282.94,-65.31,-2.88,-14.00,-27.56,0.83,0.56,-0.09,-0.02,68.24,-6.93,-7.76,0.00,0.00,0.00,-45.00,3,1,3,0
3112.92,Coasting,67.60,-3.05,891.28,-2.01,-2.01,-2.01,0.00,2.15,-7.87,910.29,88280.05,29.75,-771902784.00,427046976.00,234.98,71.02,-6.44,-41.13,176.03,0,2.58,2.15,-7.87,-11.31,-281.88,-65.69,-2.88,-14.00,-27.56,0.82,0.55,-0.12,-0.06,68.72,-7.73,-13.34,0.00,0.00,0.00,-45.00,3,1,3,0
3112.93,Coasting,67.57,-3.03,894.77,-1.99,-1.99,-1.99,0.00,1.91,-8.05,910.29,88280.05,29.75,-771902784.00,427046976.00,234.98,71.02,-6.44,-41.13,176.03,0,1.90,1.91,-8.05,-12.06,-280.12,-66.69,-2.88,-14.00,-27.56,0.82,0.55,-0.14,-0.08,69.00,-8.11,-16.13,0.00,0.00,0.00,-45.00,3,1,3,0
3112.94,Coasting,67.55,-3.02,897.94,-1.99,-1.99,-1.99,0.00,0.89,-7.87,910.29,88280.05,29.75,-771902720.00,427046880.00,235.41,71.64,-7.24,-40.70,176.03,5,0.33,0.89,-7.87,-11.38,-280.12,-66.12,-2.88,-14.00,-27.56,0.82,0.55,-0.15,-0.09,69.28,-8.48,-18.92,0.00,0.00,0.00,-45.00,3,1,3,0
3113.01,Coasting,67.41,-2.92,917.45,-1.71,-1.71,-1.71,0.00,2.19,-7.94,928.39,88086.80,29.74,-771902720.00,427046880.00,235.41,71.64,-7.24,-40.70,176.03,5,3.83,2.19,-7.94,-10.06,-279.06,-65.81,-14.38,-14.56,-25.00,0.78,0.53,-0.26,-0.22,71.82,-10.58,-38.53,0.00,0.00,0.00,-45.00,3,1,3,0
3113.02,Coasting,67.40,-2.91,920.03,-1.68,-1.68,-1.68,0.00,0.91,-7.42,928.39,88086.80,29.74,-771902720.00,427046880.00,235.41,71.64,-7.24,-40.70,176.03,5,2.97,0.91,-7.42,-11.69,-277.19,-65.38,-14.38,-14.56,-25.00,0.77,0.52,-0.28,-0.23,72.23,-10.81,-41.33,0.00,0.00,0.00,-45.00,3,1,3,0
3113.03,Coasting,67.38,-2.90,922.54,-1.66,-1.66,-1.66,0.00,1.27,-7.74,928.39,88086.80,29.74,-771902720.00,427046880.00,235.41,71.64,-7.24,-40.70,176.03,5,2.56,1.27,-7.74,-11.88,-278.94,-66.25,-14.38,-14.56,-25.00,0.76,0.52,-0.29,-0.25,72.64,-11.01,-44.15,0.00,0.00,0.00,-45.00,3,1,3,0
3113.04,Coasting,67.37,-2.88,925.71,-1.63,-1.63,-1.63,0.00,1.17,-7.72,948.16,87876.19,29.63,-771902720.00,427046880.00,235.41,71.64,-7.24,-40.70,176.03,5,2.67,1.17,-7.72,-12.06,-278.25,-65.62,-14.38,-14.56,-25.00,0.76,0.51,-0.31,-0.27,73.07,-11.20,-46.96,0.00,0.00,0.00,-45.00,3,1,3,0
3113.05,Coasting,67.35,-2.87,929.06,-1.61,-1.61,-1.61,0.00,-0.60,-7.52,948.16,87876.19,29.63,-771902720.00,427046880.00,235.41,71.64,-7.24,-40.70,176.03,5,2.34,-0.60,-7.52,-12.06,-278.25,-65.62,-14.38,-14.56,-25.00,0.75,0.51,-0.32,-0.28,73.52,-11.37,-49.78,0.00,0.00,0.00,-45.00,3,1,3,0
3113.06,Coasting,67.34,-2.86,931.57,-1.57,-1.57,-1.57,0.00,0.35,-7.32,948.16,87876.19,29.63,-771902720.00,427046880.00,235.41,71.64,-7.24,-40.70,176.03,5,4.27,0.35,-7.32,-10.31,-278.81,-65.56,-18.50,-14.56,-20.19,0.75,0.51,-0.32,-0.28,73.52,-11.37,-49.78,0.00,0.00,0.00,-45.00,3,1,3,0
3113.07,Coasting,67.32,-2.84,934.27,-1.54,-1.54,-1.54,0.00,0.00,-7.42,948.16,87876.19,29.63,-771902720.00,427046880.00,235.41,71.64,-7.24,-40.70,176.03,5,3.60,0.00,-7.42,-9.38,-277.00,-64.62,-18.50,-14.56,-20.19,0.73,0.50,-0.35,-0.31,74.46,-11.64,-55.40,0.00,0.00,0.00,-45.00,3,1,3,0
3113.08,Coasting,67.31,-2.83,937.44,-1.50,-1.50,-1.50,0.00,1.49,-7.67,948.16,87876.19,29.63,-771902720.00,427046880.00,235.41,71.64,-7.24,-40.70,176.03,5,3.59,1.49,-7.67,-10.25,-276.44,-64.88,-18.50,-14.56,-20.19,0.72,0.49,-0.37,-0.33,74.93,-11.74,-58.20,0.00,0.00,0.00,-45.00,3,1,3,0
3113.09,Coasting,67.29,-2.81,940.53,-1.48,-1.48,-1.48,0.00,0.28,-7.40,948.16,87876.19,29.63,-771902720.00,427046880.00,235.41,71.64,-7.24,-40.70,176.03,5,1.99,0.28,-7.40,-10.44,-278.75,-64.75,-18.50,-14.56,-20.19,0.71,0.48,-0.38,-0.35,75.41,-11.82,-61.03,0.00,0.00,0.00,-45.00,3,1,3,0
3113.10,Coasting,67.28,-2.80,943.30,-1.45,-1.45,-1.45,0.00,-0.43,-7.29,948.16,87876.19,29.63,-771902720.00,427046880.00,235.41,71.64,-7.24,-40.70,176.03,5,2.90,-0.43,-7.29,-10.44,-278.75,-64.75,-18.50,-14.56,-20.19,0.70,0.48,-0.39,-0.36,75.90,-11.89,-63.85,0.00,0.00,0.00,-45.00,2,1,3,0
3113.11,Coasting,67.26,-2.78,946.15,-1.41,-1.41,-1.41,0.00,-1.17,-7.19,966.53,87680.75,29.62,-771902720.00,427046880.00,235.41,71.64,-7.24,-40.70,176.03,5,3.72,-1.17,-7.19,-9.25,-277.94,-64.31,-24.00,-15.19,-16.69,0.70,0.48,-0.39,-0.36,75.90,-11.89,-63.85,0.00,0.00,0.00,-45.00,2,1,3,0
3113.12,Coasting,67.25,-2.77,948.69,-1.37,-1.37,-1.37,0.00,0.19,-7.16,966.53,87680.75,29.62,-771902720.00,427046880.00,235.41,71.64,-7.24,-40.70,176.03,5,5.24,0.19,-7.16,-8.81,-277.56,-64.12,-24.00,-15.19,-16.69,0.68,0.46,-0.42,-0.39,76.88,-11.94,-69.46,0.00,0.00,0.00,-45.00,2,1,3,0
3113.13,Coasting,67.24,-2.76,952.20,-1.33,-1.33,-1.33,0.00,0.44,-7.25,966.53,87680.75,29.62,-771902720.00,427046880.00,235.41,71.64,-7.24,-40.70,176.03,5,3.61,0.44,-7.25,-9.12,-275.00,-64.56,-24.00,-15.19,-16.69,0.67,0.45,-0.43,-0.41,77.36,-11.92,-72.27,0.00,0.00,0.00,-45.00,2,1,3,0
3113.14,Coasting,67.22,-2.74,955.39,-1.30,-1.30,-1.30,0.00,-0.16,-7.41,966.53,87680.75,29.62,-771902720.00,427046880.00,235.41,71.64,-7.24,-40.70,176.03,5,2.31,-0.16,-7.41,-9.94,-277.19,-64.25,-24.00,-15.19,-16.69,0.65,0.45,-0.44,-0.42,77.84,-11.89,-75.08,0.00,0.00,0.00,-45.00,2,1,3,0
3113.15,Coasting,67.21,-2.72,958.50,-1.27,-1.27,-1.27,0.00,-1.51,-6.94,966.53,87680.75,29.62,-771902720.00,427046880.00,235.41,71.64,-7.24,-40.70,176.03,5,3.15,-1.51,-6.94,-9.94,-277.19,-64.25,-24.00,-15.19,-16.69,0.64,0.44,-0.46,-0.43,78.34,-11.84,-77.90,0.00,0.00,0.00,-45.00,2,1,3,0
3113.16,Coasting,67.20,-2.71,960.76,-1.23,-1.23,-1.23,0.00,-1.70,-6.96,966.53,87680.75,29.62,-771902720.00,427046880.00,235.41,71.64,-7.24,-40.70,176.03,5,4.46,-1.70,-6.96,-8.56,-277.06,-63.50,-25.38,-17.50,-9.50,0.64,0.44,-0.46,-0.43,78.34,-11.84,-77.90,0.00,0.00,0.00,-45.00,2,1,3,0
3113.17,Coasting,67.19,-2.70,963.24,-1.19,-1.19,-1.19,0.00,-1.76,-6.84,966.53,87680.75,29.62,-771902720.00,427046880.00,235.41,71.64,-7.24,-40.70,176.03,5,4.31,-1.76,-6.84,-7.69,-275.56,-63.56,-25.38,-17.50,-9.50,0.61,0.42,-0.48,-0.46,79.32,-11.66,-83.49,0.00,0.00,0.00,-45.00,2,1,3,0
3113.18,Coasting,67.17,-2.68,966.80,-1.15,-1.15,-1.15,0.00,-0.92,-7.09,983.02,87505.73,29.72,-771902720.00,427046880.00,235.41,71.64,-7.24,-40.70,176.03,5,3.66,-0.92,-7.09,-8.56,-275.00,-64.38,-25.38,-17.50,-9.50,0.60,0.41,-0.49,-0.47,79.80,-11.53,-86.28,0.00,0.00,0.00,-45.00,2,1,3,0
3113.19,Coasting,67.16,-2.67,970.03,-1.12,-1.12,-1.12,0.00,-0.52,-7.27,983.02,87505.73,29.72,-771902720.00,427046880.00,235.41,71.64,-7.24,-40.70,176.03,5,3.15,-0.52,-7.27,-8.56,-275.12,-63.62,-25.38,-17.50,-9.50,0.59,0.40,-0.50,-0.49,80.27,-11.38,-89.06,0.00,0.00,0.00,-45.00,2,1,3,0
3113.20,Coasting,67.15,-2.66,972.92,-1.08,-1.08,-1.08,0.00,-1.63,-6.97,983.02,87505.73,29.72,-771902720.00,427046880.00,235.41,71.64,-7.24,-40.70,176.03,5,3.30,-1.63,-6.97,-8.56,-275.12,-63.62,-25.38,-17.50,-9.50,0.57,0.39,-0.51,-0.50,80.74,-11.22,-91.85,0.00,0.00,0.00,-45.00,2,1,3,0
3113.21,Coasting,67.14,-2.64,975.23,-1.06,-1.06,-1.06,0.00,-2.79,-6.68,983.02,87505.73,29.72,-771902720.00,427046880.00,235.41,71.64,-7.24,-40.70,176.03,5,3.27,-2.79,-6.68,-7.94,-275.31,-63.25,-27.19,-18.88,-6.00,0.57,0.39,-0.51,-0.50,80.74,-11.22,-91.85,0.00,0.00,0.00,-45.00,2,1,3,0
3113.22,Coasting,67.13,-2.63,977.75,-1.03,-1.03,-1.03,0.00,-1.48,-7.00,983.02,87505.73,29.72,-771902720.00,427046880.00,235.41,71.64,-7.24,-40.70,176.03,5,3.54,-1.48,-7.00,-7.62,-273.94,-63.50,-27.19,-18.88,-6.00,0.54,0.38,-0.54,-0.53,81.64,-10.80,-97.35,0.00,0.00,0.00,-45.00,2,1,3,0
3113.23,Coasting,67.12,-2.62,980.74,-0.99,-0.99,-0.99,0.00,-1.07,-6.97,983.02,87505.73,29.72,-771902720.00,427046880.00,235.41,71.64,-7.24,-40.70,176.03,5,3.48,-1.07,-6.97,-7.62,-271.62,-64.06,-27.19,-18.88,-6.00,0.53,0.37,-0.55,-0.54,82.07,-10.56,-100.09,0.00,0.00,0.00,-45.00,2,1,3,0
3113.24,Coasting,67.11,-2.60,984.30,-0.94,-0.94,-0.94,0.00,-1.51,-6.88,1000.24,87323.23,29.74,-771902720.00,427046880.00,235.41,71.64,-7.24,-40.70,176.03,5,3.76,-1.51,-6.88,-8.12,-272.12,-63.56,-27.19,-18.88,-6.00,0.51,0.36,-0.56,-0.55,82.49,-10.31,-102.83,0.00,0.00,0.00,-45.00,2,1,3,0
3113.25,Coasting,67.10,-2.59,987.26,-0.91,-0.91,-0.91,0.00,-2.07,-6.85,1000.24,87323.23,29.74,-771902720.00,427046880.00,235.41,71.64,-7.24,-40.70,176.03,5,3.28,-2.07,-6.85,-8.12,-272.12,-63.56,-27.19,-18.88,-6.00,0.50,0.35,-0.56,-0.56,82.90,-10.04,-105.56,0.00,0.00,0.00,-45.00,1,1,3,0
3113.26,Coasting,67.09,-2.58,989.90,-0.88,-0.88,-0.88,0.00,-2.36,-6.75,1000.24,87323.23,29.74,-771902720.00,427046880.00,235.41,71.64,-7.24,-40.70,176.03,5,3.25,-2.36,-6.75,-8.56,-272.19,-63.19,-26.19,-18.50,0.75,0.50,0.35,-0.56,-0.56,82.90,-10.04,-105.56,0.00,0.00,0.00,-45.00,1,1,3,0
3113.27,Coasting,67.08,-2.57,992.22,-0.86,-0.86,-0.86,0.00,-3.01,-6.66,1000.24,87323.23,29.74,-771902720.00,427046880.00,235.41,71.64,-7.24,-40.70,176.03,5,2.76,-3.01,-6.66,-8.88,-271.56,-63.69,-26.19,-18.50,0.75,0.47,0.33,-0.58,-0.58,83.64,-9.42,-111.00,0.00,0.00,0.00,-45.00,1,1,3,0
3113.28,Coasting,67.07,-2.55,995.53,-0.82,-0.82,-0.82,0.00,-3.23,-6.71,1000.24,87323.23,29.74,-771902720.00,427046880.00,235.41,71.64,-7.24,-40.70,176.03,5,3.41,-3.23,-6.71,-9.94,-270.38,-63.88,-26.19,-18.50,0.75,0.45,0.32,-0.59,-0.59,83.98,-9.10,-113.70,0.00,0.00,0.00,-45.00,1,1,3,0
3113.29,Coasting,67.07,-2.54,998.52,-0.77,-0.77,-0.77,0.00,-2.74,-6.68,1000.24,87323.23,29.74,-771902720.00,427046880.00,235.41,71.64,-7.24,-40.70,176.03,5,3.80,-2.74,-6.68,-10.81,-270.06,-64.31,-26.19,-18.50,0.75,0.43,0.30,-0.60,-0.60,84.29,-8.74,-116.40,0.00,0.00,0.00,-45.00,1,1,3,0
3113.30,Coasting,67.06,-2.53,1001.80,-0.74,-0.74,-0.74,0.00,-2.97,-6.40,1017.08,87144.95,29.74,-771902720.00,427046880.00,235.41,71.64,-7.24,-40.70,176.03,5,3.26,-2.97,-6.40,-10.81,-270.06,-64.31,-24.69,-19.88,5.88,0.42,0.29,-0.61,-0.61,84.56,-8.39,-119.09,0.00,0.00,0.00,-45.00,1,1,3,0
3113.31,Coasting,67.05,-2.52,1004.23,-0.72,-0.72,-0.72,0.00,-2.94,-6.32,1017.08,87144.95,29.74,-771902720.00,427046880.00,235.41,71.64,-7.24,-40.70,176.03,5,2.70,-2.94,-6.32,-12.62,-270.50,-63.50,-24.69,-19.88,5.88,0.42,0.29,-0.61,-0.61,84.56,-8.39,-119.09,0.00,0.00,0.00,-45.00,1,1,3,0
3113.32,Coasting,67.04,-2.51,1006.86,-0.70,-0.70,-0.70,0.00,-3.53,-6.66,1017.08,87144.95,29.74,-771902720.00,427046880.00,235.41,71.64,-7.24,-40.70,176.03,5,2.02,-3.53,-6.66,-12.62,-270.50,-63.50,-24.69,-19.88,5.88,0.38,0.27,-0.62,-0.63,85.08,-7.63,-124.48,0.00,0.00,0.00,-45.00,1,1,3,0
3113.33,Coasting,67.04,-2.50,1009.97,-0.67,-0.67,-0.67,0.00,-3.00,-6.57,1017.08,87144.95,29.74,-771902720.00,427046880.00,235.41,71.64,-7.24,-40.70,176.03,5,2.76,-3.00,-6.57,-12.00,-270.25,-62.62,-24.69,-19.88,5.88,0.36,0.26,-0.63,-0.64,85.31,-7.25,-127.15,0.00,0.00,0.00,-45.00,1,1,3,0
3113.34,Coasting,67.03,-2.49,1013.01,-0.64,-0.64,-0.64,0.00,-2.54,-6.58,1017.08,87144.95,29.74,-771902720.00,427046880.00,235.41,71.64,-7.24,-40.70,176.03,5,2.95,-2.54,-6.58,-12.00,-270.25,-62.62,-24.69,-19.88,5.88,0.35,0.25,-0.63,-0.65,85.52,-6.86,-129.83,0.00,0.00,0.00,-45.00,1,1,3,0
3113.35,Coasting,67.02,-2.48,1015.98,-0.60,-0.60,-0.60,0.00,-2.98,-6.43,1017.08,87144.95,29.74,-771902720.00,427046880.00,235.41,71.64,-7.24,-40.70,176.03,5,3.05,-2.98,-6.43,-12.00,-270.25,-62.62,-24.69,-19.88,5.88,0.33,0.24,-0.64,-0.65,85.72,-6.46,-132.50,0.00,0.00,0.00,-45.00,1,1,3,0
3113.36,Coasting,67.02,-2.47,1018.10,-0.58,-0.58,-0.58,0.00,-4.21,-6.52,1017.08,87144.95,29.74,-771902720.00,427046880.00,235.41,71.64,-7.24,-40.70,176.03,5,2.83,-4.21,-6.52,-11.75,-270.38,-60.94,-22.00,-21.38,10.25,0.33,0.24,-0.64,-0.65,85.72,-6.46,-132.50,0.00,0.00,0.00,-45.00,1,1,3,0
3113.37,Coasting,67.01,-2.46,1020.82,-0.56,-0.56,-0.56,0.00,-4.12,-6.18,1034.73,86958.55,29.74,-771902720.00,427046880.00,235.41,71.64,-7.24,-40.70,176.03,5,1.97,-4.12,-6.18,-11.75,-270.38,-60.94,-22.00,-21.38,10.25,0.29,0.21,-0.65,-0.67,86.05,-5.67,-137.82,0.00,0.00,0.00,-45.00,1,1,3,0
3113.38,Coasting,67.01,-2.45,1024.26,-0.52,-0.52,-0.52,0.00,-2.77,-6.66,1034.73,86958.55,29.74,-771902720.00,427046880.00,235.41,71.64,-7.24,-40.70,176.03,5,3.19,-2.77,-6.66,-10.75,-271.44,-59.75,-22.00,-21.38,10.25,0.28,0.20,-0.65,-0.68,86.20,-5.26,-140.50,0.00,0.00,0.00,-45.00,1,1,3,0
3113.39,Coasting,67.00,-2.44,1027.38,-0.49,-0.49,-0.49,0.00,-2.49,-6.56,1034.73,86958.55,29.74,-771902720.00,427046880.00,235.41,71.64,-7.24,-40.70,176.03,5,3.00,-2.49,-6.56,-9.00,-269.81,-58.88,-22.00,-21.38,10.25,0.26,0.19,-0.66,-0.68,86.35,-4.87,-143.16,0.00,0.00,0.00,-45.00,1,1,3,0
3113.40,Coasting,67.00,-2.43,1030.16,-0.47,-0.47,-0.47,0.00,-4.09,-6.34,1034.73,86958.55,29.74,-771902720.00,427046880.00,235.41,71.64,-7.24,-40.70,176.03,5,2.33,-4.09,-6.34,-9.00,-269.81,-58.88,-18.56,-22.50,14.19,0.24,0.17,-0.66,-0.69,86.48,-4.46,-145.80,0.00,0.00,0.00,-45.00,1,1,3,0
3113.41,Coasting,66.99,-2.43,1032.62,-0.45,-0.45,-0.45,0.00,-4.46,-6.29,1034.73,86958.55,29.74,-771902720.00,427046880.00,235.41,71.64,-7.24,-40.70,176.03,5,2.00,-4.46,-6.29,-8.62,-269.00,-59.06,-18.56,-22.50,14.19,0.24,0.17,-0.66,-0.69,86.48,-4.46,-145.80,0.00,0.00,0.00,-45.00,1,1,3,0
3113.42,Coasting,66.99,-2.42,1034.77,-0.44,-0.44,-0.44,0.00,-4.66,-6.45,1034.73,86958.55,29.74,-771902720.00,427046880.00,235.41,71.64,-7.24,-40.70,176.03,5,1.43,-4.66,-6.45,-8.94,-268.81,-59.81,-18.56,-22.50,14.19,0.20,0.15,-0.67,-0.70,86.68,-3.61,-151.07,0.00,0.00,0.00,-45.00,1,1,3,0
3113.43,Coasting,66.98,-2.41,1038.30,-0.42,-0.42,-0.42,0.00,-4.42,-6.47,1052.93,86958.55,29.74,-771902720.00,427046880.00,235.41,71.64,-7.24,-40.70,176.03,5,1.71,-4.42,-6.47,-8.75,-268.31,-60.94,-18.56,-22.50,14.19,0.18,0.14,-0.67,-0.70,86.76,-3.16,-153.68,0.00,0.00,0.00,-45.00,1,1,3,0
