State - Time (s),State - Stage,State - Stage,State - PX (m),State - PY (m),State - PZ (m),State - VX (m/s),State - VY (m/s),State - VZ (m/s),State - AX (m/s/s),State - AY (m/s/s),State - AZ (m/s/s),State - Actuation Angle (deg),State - Acutal Angle (deg),State - CdA,State - Est Apo (m),State - Target Apogee (m),State - Mach Number,State - Tilt [deg],MockBarometer - Pres (hPa),MockBarometer - Temp (C),MockBarometer - Alt ASL (m),MockBarometer - Alt AGL (m),MockIMU - AccX (m/s^2),MockIMU - AccY (m/s^2),MockIMU - AccZ (m/s^2),MockIMU - GyroX (rad/s),MockIMU - GyroY (rad/s),MockIMU - GyroZ (rad/s),MockIMU - MagX (uT),MockIMU - MagY (uT),MockIMU - MagZ (uT),MockIMU - OriX,MockIMU - OriY,MockIMU - OriZ,MockIMU - OriW,MockGPS - Lat,MockGPS - Lon,MockGPS - Alt (m),MockGPS - Disp X (m),MockGPS - Disp Y (m),MockGPS - Disp Z (m),MockGPS - Fix Quality,MockGPS - Time of Day,E5 - Rel Steps,BR - Battery Voltage (V),BR - ALT (m),BR - PRES (Pa),BR - TEMP (C),BR - VEL (m/s),BR - ANG (deg),BR - ACCX (m/s^2),BR - ACCY (m/s^2),BR - ACCZ (m/s^2),BR - GYROX (rad/s),BR - GYROY (rad/s),BR - GYROZ (rad/s),BR - ROLL (deg),BR - TILT (deg)
74.840,0,0,0.000,0.000,0.000,0.000,0.000,0.000,0.000,0.000,0.000,0.000,0.000,0.0103675,0.000,7500.000,0.000,0.000,0.000,0.000,44307.690,0.000,0.000,0.000,0.000,0.000,0.000,0.000,0.000,0.000,0.000,0.000,0.000,0.000,1.000,0.0000000,0.0000000,0.000,0.000,0.000,0.000,0,00:00:00,0,0.000,0.000,0.000,0.000,0.000,0.000,0.000,0.000,0.000,0.000,0.000,0.000,0.000,0.000
74.941,0,0,-0.000,-0.000,-5474.960,-0.721,-0.002,-146.980,-7.145,-0.021,-6.636,0.000,0.000,0.0103675,0.000,7500.000,0.000,90.000,1013.250,15.049,-0.003,-5474.961,-9.748,-0.036,0.254,-0.011,0.045,-0.001,0.000,0.000,0.000,-0.002,0.378,0.000,0.926,0.0000000,0.0000000,0.000,0.000,0.000,0.000,0,00:00:00,0,0.000,0.000,0.000,0.000,0.000,0.000,0.000,0.000,0.000,0.000,0.000,0.000,0.000,0.000
75.042,0,0,-0.047,-0.000,-4386.950,-1.156,0.002,-117.751,-4.323,0.040,-8.613,0.000,0.000,0.0103675,0.000,7500.000,0.433,45.617,1013.266,15.052,-0.131,-3290.016,-9.628,0.060,0.435,0.018,0.012,-0.048,0.000,0.000,0.000,0.001,0.544,-0.001,0.839,0.0000000,0.0000000,0.000,0.000,0.000,0.000,0,00:00:00,0,0.000,0.000,0.000,0.000,0.000,0.000,0.000,0.000,0.000,0.000,0.000,0.000,0.000,0.000
75.143,0,0,-0.118,-0.000,-3715.506,-1.410,-0.003,-97.496,-2.533,-0.052,-9.426,0.000,0.000,0.0103675,0.000,7500.000,0.347,24.069,1013.272,15.051,-0.182,-2360.351,-9.755,-0.063,0.337,-0.030,-0.013,0.005,0.000,0.000,0.000,-0.002,0.622,-0.001,0.783,0.0000000,0.0000000,0.000,0.000,0.000,0.000,0,00:00:00,0,0.000,0.000,0.000,0.000,0.000,0.000,0.000,0.000,0.000,0.000,0.000,0.000,0.000,0.000
75.244,0,0,-0.200,0.000,-3249.974,-1.554,0.008,-79.264,-1.441,0.108,-9.651,0.000,0.000,0.0103675,0.000,7500.000,0.287,13.061,1013.243,15.052,0.057,-1841.832,-9.755,0.105,0.233,0.013,0.031,0.024,0.000,0.000,0.000,0.002,0.662,0.002,0.750,0.0000000,0.0000000,0.000,0.000,0.000,0.000,0,00:00:00,0,0.000,0.000,0.000,0.000,0.000,0.000,0.000,0.000,0.000,0.000,0.000,0.000,0.000,0.000
75.345,0,0,-0.290,0.001,-2903.142,-1.676,0.004,-59.767,-1.234,-0.033,-9.724,0.000,0.000,0.0103675,0.000,7500.000,0.233,7.128,1013.263,15.052,-0.105,-1510.837,-9.793,-0.022,0.421,0.015,0.010,0.008,0.000,0.000,0.000,0.001,0.677,0.000,0.736,0.0000000,0.0000000,0.000,0.000,0.000,0.000,0,00:00:00,0,0.000,0.000,0.000,0.000,0.000,0.000,0.000,0.000,0.000,0.000,0.000,0.000,0.000,0.000
75.446,0,0,-0.384,0.000,-2631.093,-1.740,-0.013,-37.125,-0.665,-0.175,-9.757,0.000,0.000,0.0103675,0.000,7500.000,0.176,4.767,1013.314,15.049,-0.531,-1281.161,-9.779,-0.161,0.173,-0.000,-0.003,-0.020,0.000,0.000,0.000,-0.003,0.689,-0.003,0.725,0.0000000,0.0000000,0.000,0.000,0.000,0.000,0,00:00:00,0,0.000,0.000,0.000,0.000,0.000,0.000,0.000,0.000,0.000,0.000,0.000,0.000,0.000,0.000
75.547,0,0,-0.480,-0.001,-2408.617,-1.787,-0.017,-10.148,-0.503,-0.034,-9.739,0.000,0.000,0.0103675,0.000,7500.000,0.109,2.898,1013.254,15.050,-0.036,-1111.533,-9.751,-0.013,0.173,0.011,0.006,0.027,0.000,0.000,0.000,-0.000,0.695,-0.002,0.719,0.0000000,0.0000000,0.000,0.000,0.000,0.000,0,00:00:00,0,0.000,0.000,0.000,0.000,0.000,0.000,0.000,0.000,0.000,0.000,0.000,0.000,0.000,0.000
75.648,0,0,-0.578,-0.003,-2220.176,-1.825,-0.021,21.863,-0.421,-0.043,-9.743,0.000,0.000,0.0103675,0.000,7500.000,0.030,1.939,1013.254,15.050,-0.036,-981.906,-9.751,-0.013,0.173,0.011,0.006,0.027,0.000,0.000,0.000,0.001,0.698,-0.001,0.716,0.0000000,0.0000000,0.000,0.000,0.000,0.000,0,00:00:00,0,0.000,0.000,0.000,0.000,0.000,0.000,0.000,0.000,0.000,0.000,0.000,0.000,0.000,0.000
75.749,0,0,-0.677,-0.004,-2055.320,-1.886,-0.011,59.262,-0.666,0.103,-9.658,0.000,0.000,0.0103675,0.000,7500.000,0.065,1.460,1013.227,15.050,0.187,-879.182,-9.673,0.142,0.369,0.014,0.022,0.027,0.000,0.000,0.000,0.004,0.696,0.001,0.718,0.0000000,0.0000000,0.000,0.000,0.000,0.000,0,00:00:00,0,0.000,0.000,0.000,0.000,0.000,0.000,0.000,0.000,0.000,0.000,0.000,0.000,0.000,0.000
75.850,0,0,-0.780,-0.005,-1916.274,-1.941,-0.030,99.100,-0.631,-0.189,-9.827,0.000,0.000,0.0103675,0.000,7500.000,0.175,1.760,1013.238,15.051,0.101,-879.268,-9.843,-0.149,0.323,-0.005,0.008,-0.002,0.000,0.000,0.000,0.000,0.696,-0.003,0.718,0.0000000,0.0000000,0.000,0.000,0.000,0.000,0,00:00:00,0,0.000,0.000,0.000,0.000,0.000,0.000,0.000,0.000,0.000,0.000,0.000,0.000,0.000,0.000
75.951,0,0,-0.885,-0.007,-1794.664,-1.999,-0.019,140.915,-0.667,0.111,-9.732,0.000,0.000,0.0103675,0.000,7500.000,0.292,1.798,1013.240,15.051,0.082,-879.287,-9.749,0.165,0.339,0.019,-0.015,0.002,0.000,0.000,0.000,0.004,0.695,0.000,0.719,0.0000000,0.0000000,0.000,0.000,0.000,0.000,0,00:00:00,0,0.000,0.000,0.000,0.000,0.000,0.000,0.000,0.000,0.000,0.000,0.000,0.000,0.000,0.000
76.052,0,0,-0.992,-0.008,-1685.072,-2.054,-0.009,183.946,-0.679,0.094,-9.732,0.000,0.000,0.0103675,0.000,7500.000,0.415,1.937,1013.240,15.051,0.082,-879.287,-9.749,0.165,0.339,0.019,-0.015,0.002,0.000,0.000,0.000,0.007,0.695,0.001,0.719,0.0000000,0.0000000,0.000,0.000,0.000,0.000,0,00:00:00,0,0.000,0.000,0.000,0.000,0.000,0.000,0.000,0.000,0.000,0.000,0.000,0.000,0.000,0.000
76.153,0,0,-1.101,-0.008,-1584.011,-2.103,-0.019,227.243,-0.645,-0.097,-9.562,0.000,0.000,0.0103675,0.000,7500.000,0.542,2.006,1013.242,15.050,0.069,-879.300,-9.579,-0.016,0.315,0.011,-0.010,0.041,0.000,0.000,0.000,0.006,0.695,-0.001,0.719,0.0000000,0.0000000,0.000,0.000,0.000,0.000,0,00:00:00,0,0.000,0.000,0.000,0.000,0.000,0.000,0.000,0.000,0.000,0.000,0.000,0.000,0.000,0.000
76.254,0,0,-1.210,-0.009,-1489.322,-2.154,-0.022,269.654,-0.710,-0.037,-9.717,0.000,0.000,0.0103675,0.000,7500.000,0.669,1.973,1013.234,15.053,0.133,-879.236,-9.736,0.034,0.359,-0.011,-0.010,0.025,0.000,0.000,0.000,0.005,0.694,-0.000,0.720,0.0000000,0.0000000,0.000,0.000,0.000,0.000,0,00:00:00,0,0.000,0.000,0.000,0.000,0.000,0.000,0.000,0.000,0.000,0.000,0.000,0.000,0.000,0.000
76.355,0,0,-1.319,-0.012,-1399.855,-2.173,-0.047,309.953,-0.438,-0.248,-9.932,0.000,0.000,0.0103675,0.000,7500.000,0.794,2.069,1013.263,15.052,-0.111,-879.480,-9.942,-0.156,0.173,0.017,-0.001,0.014,0.000,0.000,0.000,0.002,0.698,-0.005,0.717,0.0000000,0.0000000,0.000,0.000,0.000,0.000,0,00:00:00,0,0.000,0.000,0.000,0.000,0.000,0.000,0.000,0.000,0.000,0.000,0.000,0.000,0.000,0.000
76.456,0,0,-1.424,-0.017,-1315.089,-2.183,-0.073,346.994,-0.391,-0.265,-9.934,0.000,0.000,0.0103675,0.000,7500.000,0.912,1.535,1013.263,15.052,-0.111,-879.480,-9.942,-0.156,0.173,0.017,-0.001,0.014,0.000,0.000,0.000,0.001,0.699,-0.007,0.715,0.0000000,0.0000000,0.000,0.000,0.000,0.000,0,00:00:00,0,0.000,0.000,0.000,0.000,0.000,0.000,0.000,0.000,0.000,0.000,0.000,0.000,0.000,0.000
76.557,0,0,-1.524,-0.022,-1235.008,-2.175,-0.071,379.703,-0.276,0.014,-9.992,0.000,0.000,0.0103675,0.000,7500.000,1.021,1.269,1013.261,15.048,-0.090,-879.459,-9.995,0.077,0.112,-0.045,0.007,0.023,0.000,0.000,0.000,0.002,0.701,-0.002,0.713,0.0000000,0.0000000,0.000,0.000,0.000,0.000,0,00:00:00,0,0.000,0.000,0.000,0.000,0.000,0.000,0.000,0.000,0.000,0.000,0.000,0.000,0.000,0.000
76.658,0,0,-1.618,-0.027,-1159.895,-2.159,-0.065,407.213,-0.247,0.060,-9.992,0.000,0.000,0.0103675,0.000,7500.000,1.118,0.936,1013.261,15.048,-0.090,-879.459,-9.995,0.077,0.112,-0.045,0.007,0.023,0.000,0.000,0.000,0.002,0.702,0.001,0.712,0.0000000,0.0000000,0.000,0.000,0.000,0.000,0,00:00:00,0,0.000,0.000,0.000,0.000,0.000,0.000,0.000,0.000,0.000,0.000,0.000,0.000,0.000,0.000
76.759,0,0,-1.707,-0.031,-1090.194,-2.182,-0.051,428.922,-0.698,0.124,-9.712,0.000,0.000,0.0103675,0.000,7500.000,1.199,0.771,1013.290,15.049,-0.332,-879.701,-9.729,0.127,0.411,-0.010,-0.038,0.021,0.000,0.000,0.000,0.004,0.697,0.003,0.718,0.0000000,0.0000000,0.000,0.000,0.000,0.000,0,00:00:00,0,0.000,0.000,0.000,0.000,0.000,0.000,0.000,0.000,0.000,0.000,0.000,0.000,0.000,0.000
76.860,0,0,-1.790,-0.033,-917.790,-2.186,-0.052,531.722,-0.575,-0.019,-9.658,0.000,0.000,0.0103675,0.000,7500.000,1.263,1.703,1013.234,15.055,0.132,0.200,-9.671,-0.005,0.290,0.009,0.008,-0.013,0.000,0.000,0.000,0.002,0.697,0.001,0.717,0.0000000,0.0000000,0.000,0.000,0.000,0.000,0,00:00:00,0,0.000,0.000,0.000,0.000,0.000,0.000,0.000,0.000,0.000,0.000,0.000,0.000,0.000,0.000
76.961,0,0,-1.868,-0.036,-754.590,-2.195,-0.055,619.360,-0.699,-0.040,-9.610,0.000,0.000,0.0103675,0.000,7500.000,1.565,1.688,1013.249,15.050,0.012,0.071,-9.628,-0.032,0.373,-0.007,0.002,0.008,0.000,0.000,0.000,0.001,0.695,-0.000,0.719,0.0000000,0.0000000,0.000,0.000,0.000,0.000,0,00:00:00,0,0.000,0.000,0.000,0.000,0.000,0.000,0.000,0.000,0.000,0.000,0.000,0.000,0.000,0.000
77.062,0,0,-1.938,-0.038,-602.142,-2.179,-0.052,691.225,-0.510,0.020,-9.706,0.000,0.000,0.0103675,0.000,7500.000,1.823,1.946,1013.217,15.050,0.275,0.313,-9.717,0.023,0.231,-0.004,0.004,0.004,0.000,0.000,0.000,0.001,0.697,0.000,0.717,0.0000000,0.0000000,0.000,0.000,0.000,0.000,0,00:00:00,0,0.000,0.000,0.000,0.000,0.000,0.000,0.000,0.000,0.000,0.000,0.000,0.000,0.000,0.000
77.163,0,0,-2.000,-0.040,-461.690,-2.159,-0.051,747.341,-0.536,-0.005,-9.853,0.000,0.000,0.0103675,0.000,7500.000,2.035,1.644,1013.203,15.049,0.390,0.402,-9.864,0.004,0.278,0.006,0.044,0.008,0.000,0.000,0.000,0.001,0.698,0.000,0.716,0.0000000,0.0000000,0.000,0.000,0.000,0.000,0,00:00:00,0,0.000,0.000,0.000,0.000,0.000,0.000,0.000,0.000,0.000,0.000,0.000,0.000,0.000,0.000
77.264,0,0,-2.053,-0.043,-334.058,-2.161,-0.061,788.327,-0.832,-0.121,-9.679,0.000,0.000,0.0103675,0.000,7500.000,2.200,1.502,1013.223,15.050,0.224,0.229,-9.704,-0.049,0.472,0.063,0.005,-0.010,0.000,0.000,0.000,0.002,0.694,-0.003,0.720,0.0000000,0.0000000,0.000,0.000,0.000,0.000,0,00:00:00,0,0.000,0.000,0.000,0.000,0.000,0.000,0.000,0.000,0.000,0.000,0.000,0.000,0.000,0.000
77.365,0,0,-2.099,-0.046,-219.607,-2.146,-0.072,815.205,-0.718,-0.126,-9.672,0.000,0.000,0.0103675,0.000,7500.000,2.321,2.129,1013.247,15.052,0.024,0.030,-9.692,-0.044,0.363,0.010,0.011,-0.001,0.000,0.000,0.000,0.002,0.694,-0.004,0.720,0.0000000,0.0000000,0.000,0.000,0.000,0.000,0,00:00:00,0,0.000,0.000,0.000,0.000,0.000,0.000,0.000,0.000,0.000,0.000,0.000,0.000,0.000,0.000
77.466,0,0,-2.136,-0.049,-118.297,-2.109,-0.067,829.290,-0.553,0.034,-9.847,0.000,0.000,0.0103675,0.000,7500.000,2.400,2.106,1013.257,15.051,-0.060,-0.096,-9.858,0.143,0.254,0.029,0.016,-0.007,0.000,0.000,0.000,0.006,0.696,-0.002,0.718,0.0000000,0.0000000,0.000,0.000,0.000,0.000,0,00:00:00,0,0.000,0.000,0.000,0.000,0.000,0.000,0.000,0.000,0.000,0.000,0.000,0.000,0.000,0.000
77.567,0,0,-2.163,-0.051,-29.812,-2.072,-0.073,832.064,-0.609,-0.084,-9.733,0.000,0.000,0.0103675,0.000,7500.000,2.441,1.743,1013.299,15.050,-0.405,-0.435,-9.748,0.050,0.300,0.027,-0.020,0.019,0.000,0.000,0.000,0.007,0.696,-0.003,0.718,0.0000000,0.0000000,0.000,0.000,0.000,0.000,0,00:00:00,0,0.000,0.000,0.000,0.000,0.000,0.000,0.000,0.000,0.000,0.000,0.000,0.000,0.000,0.000
77.668,0,0,-2.181,-0.054,46.489,-2.031,-0.081,825.081,-0.615,-0.110,-9.732,0.000,0.000,0.0103675,0.000,7500.000,2.449,1.810,1013.299,15.050,-0.405,-0.430,-9.748,0.050,0.300,0.027,-0.020,0.019,0.000,0.000,0.000,0.008,0.696,-0.004,0.718,0.0000000,0.0000000,0.000,0.000,0.000,0.000,0,00:00:00,0,0.000,0.000,0.000,0.000,0.000,0.000,0.000,0.000,0.000,0.000,0.000,0.000,0.000,0.000
77.769,0,0,-2.189,-0.057,111.380,-1.982,-0.081,809.853,-0.564,-0.029,-9.717,0.000,0.000,0.0103675,0.000,7500.000,2.429,1.843,1013.285,15.049,-0.288,-0.262,-9.729,0.139,0.278,0.008,0.019,-0.020,0.000,0.000,0.000,0.009,0.697,-0.003,0.717,0.0000000,0.0000000,0.000,0.000,0.000,0.000,0,00:00:00,0,0.000,0.000,0.000,0.000,0.000,0.000,0.000,0.000,0.000,0.000,0.000,0.000,0.000,0.000
77.870,0,0,-2.187,-0.061,165.732,-1.925,-0.104,787.784,-0.523,-0.249,-9.858,0.000,0.000,0.0103675,0.000,7500.000,2.384,1.686,1013.248,15.049,0.013,0.037,-9.871,-0.071,0.258,0.007,0.019,0.020,0.000,0.000,0.000,0.007,0.698,-0.006,0.716,0.0000000,0.0000000,0.000,0.000,0.000,0.000,0,00:00:00,0,0.000,0.000,0.000,0.000,0.000,0.000,0.000,0.000,0.000,0.000,0.000,0.000,0.000,0.000
77.971,0,0,-2.178,-0.067,210.426,-1.877,-0.139,760.179,-0.638,-0.384,-9.745,0.000,0.000,0.0103675,0.000,7500.000,2.319,1.535,1013.228,15.049,0.180,0.211,-9.765,-0.181,0.351,0.023,0.033,-0.022,0.000,0.000,0.000,0.004,0.697,-0.011,0.717,0.0000000,0.0000000,0.000,0.000,0.000,0.000,0,00:00:00,0,0.000,0.000,0.000,0.000,0.000,0.000,0.000,0.000,0.000,0.000,0.000,0.000,0.000,0.000
78.072,0,0,-2.162,-0.075,246.283,-1.844,-0.160,728.125,-0.795,-0.248,-9.703,0.000,0.000,0.0103675,0.000,7500.000,2.238,1.703,1013.282,15.052,-0.270,-0.258,-9.729,-0.046,0.434,-0.002,-0.003,-0.028,0.000,0.000,0.000,0.004,0.694,-0.010,0.720,0.0000000,0.0000000,0.000,0.000,0.000,0.000,0,00:00:00,0,0.000,0.000,0.000,0.000,0.000,0.000,0.000,0.000,0.000,0.000,0.000,0.000,0.000,0.000
78.173,0,0,-2.142,-0.084,274.264,-1.814,-0.180,692.708,-0.832,-0.247,-9.700,0.000,0.000,0.0103675,0.000,7500.000,2.143,2.138,1013.282,15.052,-0.270,-0.290,-9.729,-0.046,0.434,-0.002,-0.003,-0.028,0.000,0.000,0.000,0.004,0.692,-0.010,0.721,0.0000000,0.0000000,0.000,0.000,0.000,0.000,0,00:00:00,0,0.000,0.000,0.000,0.000,0.000,0.000,0.000,0.000,0.000,0.000,0.000,0.000,0.000,0.000
78.274,0,0,-2.117,-0.094,295.229,-1.786,-0.200,654.837,-0.850,-0.246,-9.698,0.000,0.000,0.0103675,0.000,7500.000,2.039,2.356,1013.282,15.052,-0.270,-0.299,-9.729,-0.046,0.434,-0.002,-0.003,-0.028,0.000,0.000,0.000,0.004,0.692,-0.010,0.722,0.0000000,0.0000000,0.000,0.000,0.000,0.000,0,00:00:00,0,0.000,0.000,0.000,0.000,0.000,0.000,0.000,0.000,0.000,0.000,0.000,0.000,0.000,0.000
78.375,0,0,-2.090,-0.105,310.037,-1.745,-0.213,615.329,-0.722,-0.179,-9.783,0.000,0.000,0.0103675,0.000,7500.000,1.928,2.464,1013.238,15.051,0.102,0.059,-9.805,0.005,0.356,-0.016,0.043,-0.008,0.000,0.000,0.000,0.005,0.694,-0.008,0.720,0.0000000,0.0000000,0.000,0.000,0.000,0.000,0,00:00:00,0,0.000,0.000,0.000,0.000,0.000,0.000,0.000,0.000,0.000,0.000,0.000,0.000,0.000,0.000
78.476,0,0,-2.058,-0.115,319.400,-1.700,-0.209,574.822,-0.672,-0.030,-9.905,0.000,0.000,0.0103675,0.000,7500.000,1.811,2.149,1013.226,15.050,0.204,0.155,-9.921,0.172,0.330,0.017,0.017,-0.026,0.000,0.000,0.000,0.009,0.695,-0.006,0.719,0.0000000,0.0000000,0.000,0.000,0.000,0.000,0,00:00:00,0,0.000,0.000,0.000,0.000,0.000,0.000,0.000,0.000,0.000,0.000,0.000,0.000,0.000,0.000
78.577,0,0,-2.023,-0.125,323.994,-1.648,-0.241,533.897,-0.594,-0.385,-9.827,0.000,0.000,0.0103675,0.000,7500.000,1.692,1.978,1013.235,15.048,0.124,0.108,-9.847,-0.197,0.282,-0.014,-0.007,0.026,0.000,0.000,0.000,0.004,0.696,-0.009,0.718,0.0000000,0.0000000,0.000,0.000,0.000,0.000,0,00:00:00,0,0.000,0.000,0.000,0.000,0.000,0.000,0.000,0.000,0.000,0.000,0.000,0.000,0.000,0.000
78.678,0,0,-1.986,-0.137,324.384,-1.612,-0.265,492.995,-0.735,-0.307,-9.693,0.000,0.000,0.0103675,0.000,7500.000,1.572,1.831,1013.309,15.051,-0.490,-0.475,-9.717,-0.130,0.393,-0.012,0.011,0.004,0.000,0.000,0.000,0.003,0.694,-0.010,0.720,0.0000000,0.0000000,0.000,0.000,0.000,0.000,0,00:00:00,0,0.000,0.000,0.000,0.000,0.000,0.000,0.000,0.000,0.000,0.000,0.000,0.000,0.000,0.000
78.779,0,0,-1.947,-0.149,321.260,-1.579,-0.281,452.590,-0.746,-0.247,-9.781,0.000,0.000,0.0103675,0.000,7500.000,1.451,2.040,1013.297,15.049,-0.389,-0.378,-9.805,-0.044,0.393,0.026,0.033,0.007,0.000,0.000,0.000,0.005,0.694,-0.010,0.720,0.0000000,0.0000000,0.000,0.000,0.000,0.000,0,00:00:00,0,0.000,0.000,0.000,0.000,0.000,0.000,0.000,0.000,0.000,0.000,0.000,0.000,0.000,0.000
78.880,0,0,-1.908,-0.161,315.187,-1.541,-0.284,413.041,-0.677,-0.116,-9.947,0.000,0.000,0.0103675,0.000,7500.000,1.332,2.074,1013.259,15.051,-0.073,-0.051,-9.964,0.088,0.336,0.001,0.015,0.002,0.000,0.000,0.000,0.008,0.695,-0.007,0.719,0.0000000,0.0000000,0.000,0.000,0.000,0.000,0,00:00:00,0,0.000,0.000,0.000,0.000,0.000,0.000,0.000,0.000,0.000,0.000,0.000,0.000,0.000,0.000
78.981,0,0,-1.868,-0.172,306.608,-1.508,-0.292,374.624,-0.703,-0.171,-9.889,0.000,0.000,0.0103675,0.000,7500.000,1.216,1.961,1013.250,15.049,-0.003,0.002,-9.908,0.005,0.365,-0.025,0.030,0.034,0.000,0.000,0.000,0.007,0.695,-0.006,0.719,0.0000000,0.0000000,0.000,0.000,0.000,0.000,0,00:00:00,0,0.000,0.000,0.000,0.000,0.000,0.000,0.000,0.000,0.000,0.000,0.000,0.000,0.000,0.000
79.082,0,0,-1.828,-0.184,295.961,-1.471,-0.320,337.579,-0.643,-0.382,-9.725,0.000,0.000,0.0103675,0.000,7500.000,1.103,1.951,1013.254,15.049,-0.031,0.029,-9.746,-0.195,0.323,0.009,0.007,-0.024,0.000,0.000,0.000,0.003,0.695,-0.010,0.719,0.0000000,0.0000000,0.000,0.000,0.000,0.000,0,00:00:00,0,0.000,0.000,0.000,0.000,0.000,0.000,0.000,0.000,0.000,0.000,0.000,0.000,0.000,0.000
79.183,0,0,-1.789,-0.195,283.653,-1.450,-0.313,302.077,-0.781,-0.042,-9.802,0.000,0.000,0.0103675,0.000,7500.000,0.994,1.905,1013.250,15.049,0.001,0.127,-9.824,0.101,0.417,-0.043,0.014,0.000,0.000,0.000,0.000,0.005,0.694,-0.005,0.720,0.0000000,0.0000000,0.000,0.000,0.000,0.000,0,00:00:00,0,0.000,0.000,0.000,0.000,0.000,0.000,0.000,0.000,0.000,0.000,0.000,0.000,0.000,0.000
79.284,0,0,-1.751,-0.205,270.031,-1.449,-0.314,268.259,-0.946,-0.120,-9.825,0.000,0.000,0.0103675,0.000,7500.000,0.889,2.125,1013.254,15.050,-0.037,0.138,-9.858,-0.007,0.517,-0.032,0.023,-0.016,0.000,0.000,0.000,0.004,0.692,-0.005,0.722,0.0000000,0.0000000,0.000,0.000,0.000,0.000,0,00:00:00,0,0.000,0.000,0.000,0.000,0.000,0.000,0.000,0.000,0.000,0.000,0.000,0.000,0.000,0.000
79.385,0,0,-1.715,-0.215,255.357,-1.395,-0.315,236.195,-0.406,-0.124,-9.824,0.000,0.000,0.0103675,0.000,7500.000,0.790,2.498,1013.301,15.050,-0.427,-0.259,-9.832,0.013,0.128,0.024,0.000,-0.025,0.000,0.000,0.000,0.004,0.697,-0.005,0.717,0.0000000,0.0000000,0.000,0.000,0.000,0.000,0,00:00:00,0,0.000,0.000,0.000,0.000,0.000,0.000,0.000,0.000,0.000,0.000,0.000,0.000,0.000,0.000
79.486,0,0,-1.678,-0.224,240.039,-1.372,-0.327,206.071,-0.686,-0.246,-9.659,0.000,0.000,0.0103675,0.000,7500.000,0.695,1.621,1013.248,15.050,0.019,0.160,-9.679,-0.068,0.372,0.044,0.017,0.018,0.000,0.000,0.000,0.005,0.696,-0.008,0.718,0.0000000,0.0000000,0.000,0.000,0.000,0.000,0,00:00:00,0,0.000,0.000,0.000,0.000,0.000,0.000,0.000,0.000,0.000,0.000,0.000,0.000,0.000,0.000
79.587,0,0,-1.643,-0.233,224.261,-1.352,-0.344,177.863,-0.705,-0.288,-9.656,0.000,0.000,0.0103675,0.000,7500.000,0.607,1.862,1013.248,15.050,0.019,0.107,-9.679,-0.068,0.372,0.044,0.017,0.018,0.000,0.000,0.000,0.006,0.695,-0.010,0.719,0.0000000,0.0000000,0.000,0.000,0.000,0.000,0,00:00:00,0,0.000,0.000,0.000,0.000,0.000,0.000,0.000,0.000,0.000,0.000,0.000,0.000,0.000,0.000
79.688,0,0,-1.608,-0.243,208.254,-1.310,-0.353,151.584,-0.456,-0.225,-9.806,0.000,0.000,0.0103675,0.000,7500.000,0.524,1.983,1013.250,15.052,0.003,0.099,-9.817,0.020,0.194,0.023,0.009,-0.007,0.000,0.000,0.000,0.008,0.698,-0.009,0.716,0.0000000,0.0000000,0.000,0.000,0.000,0.000,0,00:00:00,0,0.000,0.000,0.000,0.000,0.000,0.000,0.000,0.000,0.000,0.000,0.000,0.000,0.000,0.000
79.789,0,0,-1.573,-0.253,192.218,-1.273,-0.377,127.266,-0.480,-0.379,-9.672,0.000,0.000,0.0103675,0.000,7500.000,0.446,1.532,1013.250,15.051,-0.001,0.106,-9.687,-0.126,0.238,0.011,0.007,-0.007,0.000,0.000,0.000,0.006,0.698,-0.012,0.716,0.0000000,0.0000000,0.000,0.000,0.000,0.000,0,00:00:00,0,0.000,0.000,0.000,0.000,0.000,0.000,0.000,0.000,0.000,0.000,0.000,0.000,0.000,0.000
79.890,0,0,-1.538,-0.264,176.328,-1.246,-0.392,104.863,-0.564,-0.292,-9.884,0.000,0.000,0.0103675,0.000,7500.000,0.375,1.450,1013.243,15.049,0.055,0.170,-9.900,-0.045,0.296,-0.011,0.006,0.022,0.000,0.000,0.000,0.007,0.697,-0.011,0.717,0.0000000,0.0000000,0.000,0.000,0.000,0.000,0,00:00:00,0,0.000,0.000,0.000,0.000,0.000,0.000,0.000,0.000,0.000,0.000,0.000,0.000,0.000,0.000
79.991,0,0,-1.505,-0.275,160.692,-1.235,-0.393,84.338,-0.706,-0.157,-9.814,0.000,0.000,0.0103675,0.000,7500.000,0.309,1.562,1013.271,15.050,-0.172,-0.039,-9.833,0.082,0.376,-0.004,-0.015,0.011,0.000,0.000,0.000,0.009,0.695,-0.008,0.719,0.0000000,0.0000000,0.000,0.000,0.000,0.000,0,00:00:00,0,0.000,0.000,0.000,0.000,0.000,0.000,0.000,0.000,0.000,0.000,0.000,0.000,0.000,0.000
80.092,0,0,-1.474,-0.285,145.481,-1.206,-0.412,65.676,-0.503,-0.337,-9.769,0.000,0.000,0.0103675,0.000,7500.000,0.248,1.921,1013.254,15.051,-0.030,0.079,-9.784,-0.132,0.238,-0.036,0.032,-0.030,0.000,0.000,0.000,0.005,0.697,-0.010,0.717,0.0000000,0.0000000,0.000,0.000,0.000,0.000,0,00:00:00,0,0.000,0.000,0.000,0.000,0.000,0.000,0.000,0.000,0.000,0.000,0.000,0.000,0.000,0.000
80.193,0,0,-1.444,-0.297,130.788,-1.209,-0.426,48.827,-0.797,-0.294,-9.536,0.000,0.000,0.0103675,0.000,7500.000,0.193,1.566,1013.244,15.050,0.048,0.131,-9.562,-0.098,0.445,-0.007,-0.002,0.025,0.000,0.000,0.000,0.004,0.694,-0.010,0.720,0.0000000,0.0000000,0.000,0.000,0.000,0.000,0,00:00:00,0,0.000,0.000,0.000,0.000,0.000,0.000,0.000,0.000,0.000,0.000,0.000,0.000,0.000,0.000
80.294,0,0,-1.417,-0.307,116.595,-1.188,-0.417,33.595,-0.547,-0.082,-9.786,0.000,0.000,0.0103675,0.000,7500.000,0.144,2.121,1013.321,15.048,-0.587,-0.528,-9.798,0.104,0.230,-0.011,-0.043,-0.002,0.000,0.000,0.000,0.007,0.696,-0.006,0.718,0.0000000,0.0000000,0.000,0.000,0.000,0.000,0,00:00:00,0,0.000,0.000,0.000,0.000,0.000,0.000,0.000,0.000,0.000,0.000,0.000,0.000,0.000,0.000
80.395,0,0,-1.390,-0.316,103.136,-1.167,-0.410,20.045,-0.532,-0.099,-9.912,0.000,0.000,0.0103675,0.000,7500.000,0.099,1.856,1013.267,15.051,-0.139,-0.027,-9.923,0.076,0.252,-0.012,0.014,0.015,0.000,0.000,0.000,0.008,0.697,-0.005,0.717,0.0000000,0.0000000,0.000,0.000,0.000,0.000,0,00:00:00,0,0.000,0.000,0.000,0.000,0.000,0.000,0.000,0.000,0.000,0.000,0.000,0.000,0.000,0.000
80.496,0,0,-1.365,-0.324,90.433,-1.172,-0.421,8.093,-0.773,-0.280,-9.784,0.000,0.000,0.0103675,0.000,7500.000,0.059,1.615,1013.228,15.051,0.186,0.317,-9.809,-0.115,0.421,-0.012,-0.009,-0.006,0.000,0.000,0.000,0.005,0.694,-0.007,0.720,0.0000000,0.0000000,0.000,0.000,0.000,0.000,0,00:00:00,0,0.000,0.000,0.000,0.000,0.000,0.000,0.000,0.000,0.000,0.000,0.000,0.000,0.000,0.000
80.597,0,0,-1.343,-0.332,78.441,-1.168,-0.426,-2.422,-0.676,-0.219,-9.729,0.000,0.000,0.0103675,0.000,7500.000,0.024,2.063,1013.254,15.051,-0.032,0.109,-9.750,-0.020,0.321,0.038,-0.040,0.006,0.000,0.000,0.000,0.006,0.694,-0.008,0.720,0.0000000,0.0000000,0.000,0.000,0.000,0.000,0,00:00:00,0,0.000,0.000,0.000,0.000,0.000,0.000,0.000,0.000,0.000,0.000,0.000,0.000,0.000,0.000
80.698,0,0,-1.323,-0.340,67.213,-1.169,-0.439,-11.580,-0.713,-0.312,-9.792,0.000,0.000,0.0103675,0.000,7500.000,0.008,2.089,1013.249,15.049,0.007,0.098,-9.817,-0.076,0.340,0.036,-0.051,0.020,0.000,0.000,0.000,0.007,0.693,-0.010,0.720,0.0000000,0.0000000,0.000,0.000,0.000,0.000,0,00:00:00,0,0.000,0.000,0.000,0.000,0.000,0.000,0.000,0.000,0.000,0.000,0.000,0.000,0.000,0.000
80.799,0,0,-1.305,-0.348,56.763,-1.165,-0.442,-19.464,-0.653,-0.213,-9.778,0.000,0.000,0.0103675,0.000,7500.000,0.034,2.184,1013.244,15.049,0.048,0.101,-9.797,0.007,0.317,-0.016,0.017,0.003,0.000,0.000,0.000,0.007,0.695,-0.009,0.719,0.0000000,0.0000000,0.000,0.000,0.000,0.000,0,00:00:00,0,0.000,0.000,0.000,0.000,0.000,0.000,0.000,0.000,0.000,0.000,0.000,0.000,0.000,0.000
80.900,0,0,-1.289,-0.356,47.105,-1.179,-0.454,-26.164,-0.812,-0.309,-9.791,0.000,0.000,0.0103675,0.000,7500.000,0.057,1.969,1013.231,15.049,0.158,0.198,-9.820,-0.079,0.428,0.010,-0.009,0.012,0.000,0.000,0.000,0.007,0.693,-0.010,0.721,0.0000000,0.0000000,0.000,0.000,0.000,0.000,0,00:00:00,0,0.000,0.000,0.000,0.000,0.000,0.000,0.000,0.000,0.000,0.000,0.000,0.000,0.000,0.000
81.001,0,0,-1.276,-0.365,38.179,-1.211,-0.470,-31.816,-0.995,-0.351,-9.855,0.000,0.000,0.0103675,0.000,7500.000,0.077,2.256,1013.265,15.049,-0.128,-0.071,-9.896,-0.112,0.531,0.005,-0.015,0.014,0.000,0.000,0.000,0.006,0.690,-0.011,0.724,0.0000000,0.0000000,0.000,0.000,0.000,0.000,0,00:00:00,0,0.000,0.000,0.000,0.000,0.000,0.000,0.000,0.000,0.000,0.000,0.000,0.000,0.000,0.000
81.102,0,0,-1.267,-0.373,30.062,-1.214,-0.459,-36.430,-0.694,-0.085,-9.770,0.000,0.000,0.0103675,0.000,7500.000,0.094,2.708,1013.224,15.049,0.216,0.273,-9.789,0.132,0.310,-0.016,0.003,-0.031,0.000,0.000,0.000,0.008,0.693,-0.007,0.721,0.0000000,0.0000000,0.000,0.000,0.000,0.000,0,00:00:00,0,0.000,0.000,0.000,0.000,0.000,0.000,0.000,0.000,0.000,0.000,0.000,0.000,0.000,0.000
81.203,0,0,-1.259,-0.380,22.646,-1.217,-0.460,-40.180,-0.687,-0.207,-9.854,0.000,0.000,0.0103675,0.000,7500.000,0.107,2.251,1013.253,15.055,-0.026,0.026,-9.875,0.015,0.329,0.003,0.000,0.008,0.000,0.000,0.000,0.009,0.694,-0.007,0.720,0.0000000,0.0000000,0.000,0.000,0.000,0.000,0,00:00:00,0,0.000,0.000,0.000,0.000,0.000,0.000,0.000,0.000,0.000,0.000,0.000,0.000,0.000,0.000
81.304,0,0,-1.252,-0.386,15.989,-1.216,-0.449,-43.093,-0.651,-0.100,-9.988,0.000,0.000,0.0103675,0.000,7500.000,0.118,2.079,1013.220,15.049,0.248,0.355,-10.004,0.096,0.319,-0.027,0.018,0.014,0.000,0.000,0.000,0.009,0.695,-0.005,0.719,0.0000000,0.0000000,0.000,0.000,0.000,0.000,0,00:00:00,0,0.000,0.000,0.000,0.000,0.000,0.000,0.000,0.000,0.000,0.000,0.000,0.000,0.000,0.000
81.405,0,0,-1.246,-0.391,9.951,-1.236,-0.460,-45.298,-0.857,-0.315,-9.723,0.000,0.000,0.0103675,0.000,7500.000,0.127,1.901,1013.270,15.050,-0.170,-0.091,-9.754,-0.109,0.465,0.012,-0.002,-0.017,0.000,0.000,0.000,0.006,0.693,-0.009,0.721,0.0000000,0.0000000,0.000,0.000,0.000,0.000,0,00:00:00,0,0.000,0.000,0.000,0.000,0.000,0.000,0.000,0.000,0.000,0.000,0.000,0.000,0.000,0.000
81.506,0,0,-1.242,-0.397,4.569,-1.233,-0.463,-46.871,-0.619,-0.238,-9.986,0.000,0.000,0.0103675,0.000,7500.000,0.133,2.318,1013.266,15.051,-0.129,-0.067,-10.004,-0.036,0.272,-0.009,-0.020,-0.009,0.000,0.000,0.000,0.006,0.695,-0.009,0.719,0.0000000,0.0000000,0.000,0.000,0.000,0.000,0,00:00:00,0,0.000,0.000,0.000,0.000,0.000,0.000,0.000,0.000,0.000,0.000,0.000,0.000,0.000,0.000
81.607,0,0,-1.239,-0.401,-0.201,-1.245,-0.456,-47.840,-0.771,-0.135,-9.693,0.000,0.000,0.0103675,0.000,7500.000,0.138,1.994,1013.273,15.049,-0.188,-0.122,-9.716,0.060,0.394,-0.001,-0.022,-0.006,0.000,0.000,0.000,0.007,0.693,-0.007,0.721,0.0000000,0.0000000,0.000,0.000,0.000,0.000,0,00:00:00,0,0.000,0.000,0.000,0.000,0.000,0.000,0.000,0.000,0.000,0.000,0.000,0.000,0.000,0.000
81.708,0,0,-1.236,-0.405,-4.338,-1.249,-0.459,-48.267,-0.690,-0.244,-9.734,0.000,0.000,0.0103675,0.000,7500.000,0.141,2.222,1013.230,15.050,0.166,0.232,-9.756,-0.046,0.331,-0.001,-0.011,-0.047,0.000,0.000,0.000,0.005,0.694,-0.009,0.720,0.0000000,0.0000000,0.000,0.000,0.000,0.000,0,00:00:00,0,0.000,0.000,0.000,0.000,0.000,0.000,0.000,0.000,0.000,0.000,0.000,0.000,0.000,0.000
81.809,0,0,-1.234,-0.409,-7.929,-1.241,-0.457,-48.256,-0.562,-0.202,-9.753,0.000,0.000,0.0103675,0.000,7500.000,0.142,2.114,1013.227,15.049,0.188,0.250,-9.768,-0.015,0.252,-0.010,-0.009,0.011,0.000,0.000,0.000,0.006,0.696,-0.008,0.718,0.0000000,0.0000000,0.000,0.000,0.000,0.000,0,00:00:00,0,0.000,0.000,0.000,0.000,0.000,0.000,0.000,0.000,0.000,0.000,0.000,0.000,0.000,0.000
81.910,0,0,-1.232,-0.412,-11.037,-1.244,-0.443,-47.872,-0.675,-0.068,-9.638,0.000,0.000,0.0103675,0.000,7500.000,0.142,1.823,1013.244,15.050,0.051,0.103,-9.655,0.091,0.348,-0.026,0.002,-0.033,0.000,0.000,0.000,0.006,0.695,-0.005,0.719,0.0000000,0.0000000,0.000,0.000,0.000,0.000,0,00:00:00,0,0.000,0.000,0.000,0.000,0.000,0.000,0.000,0.000,0.000,0.000,0.000,0.000,0.000,0.000
82.011,0,0,-1.230,-0.415,-13.679,-1.244,-0.461,-47.168,-0.651,-0.401,-9.612,0.000,0.000,0.0103675,0.000,7500.000,0.141,1.938,1013.247,15.050,0.028,0.075,-9.634,-0.219,0.336,0.019,0.022,0.008,0.000,0.000,0.000,0.003,0.695,-0.010,0.719,0.0000000,0.0000000,0.000,0.000,0.000,0.000,0,00:00:00,0,0.000,0.000,0.000,0.000,0.000,0.000,0.000,0.000,0.000,0.000,0.000,0.000,0.000,0.000
82.112,0,0,-1.228,-0.418,-15.888,-1.236,-0.458,-46.204,-0.559,-0.192,-9.722,0.000,0.000,0.0103675,0.000,7500.000,0.139,1.904,1013.242,15.050,0.070,0.092,-9.737,-0.006,0.259,0.004,-0.022,-0.011,0.000,0.000,0.000,0.004,0.696,-0.009,0.718,0.0000000,0.0000000,0.000,0.000,0.000,0.000,0,00:00:00,0,0.000,0.000,0.000,0.000,0.000,0.000,0.000,0.000,0.000,0.000,0.000,0.000,0.000,0.000
82.213,0,0,-1.226,-0.421,-17.682,-1.228,-0.473,-45.002,-0.568,-0.364,-9.721,0.000,0.000,0.0103675,0.000,7500.000,0.136,1.777,1013.224,15.052,0.217,0.247,-9.739,-0.153,0.282,0.024,0.001,-0.026,0.000,0.000,0.000,0.003,0.696,-0.012,0.718,0.0000000,0.0000000,0.000,0.000,0.000,0.000,0,00:00:00,0,0.000,0.000,0.000,0.000,0.000,0.000,0.000,0.000,0.000,0.000,0.000,0.000,0.000,0.000
82.314,0,0,-1.223,-0.426,-19.132,-1.220,-0.489,-43.634,-0.562,-0.389,-9.721,0.000,0.000,0.0103675,0.000,7500.000,0.133,1.714,1013.224,15.052,0.217,0.163,-9.739,-0.153,0.282,0.024,0.001,-0.026,0.000,0.000,0.000,0.003,0.697,-0.014,0.717,0.0000000,0.0000000,0.000,0.000,0.000,0.000,0,00:00:00,0,0.000,0.000,0.000,0.000,0.000,0.000,0.000,0.000,0.000,0.000,0.000,0.000,0.000,0.000
82.415,0,0,-1.219,-0.431,-20.307,-1.212,-0.487,-42.179,-0.564,-0.202,-9.880,0.000,0.000,0.0103675,0.000,7500.000,0.129,1.683,1013.264,15.050,-0.116,-0.167,-9.894,0.026,0.272,-0.008,-0.024,0.023,0.000,0.000,0.000,0.006,0.697,-0.010,0.717,0.0000000,0.0000000,0.000,0.000,0.000,0.000,0,00:00:00,0,0.000,0.000,0.000,0.000,0.000,0.000,0.000,0.000,0.000,0.000,0.000,0.000,0.000,0.000
82.516,0,0,-1.216,-0.434,-21.171,-1.219,-0.475,-40.592,-0.704,-0.112,-9.775,0.000,0.000,0.0103675,0.000,7500.000,0.124,1.699,1013.251,15.049,-0.012,-0.031,-9.793,0.093,0.379,-0.018,0.020,0.027,0.000,0.000,0.000,0.009,0.695,-0.006,0.719,0.0000000,0.0000000,0.000,0.000,0.000,0.000,0,00:00:00,0,0.000,0.000,0.000,0.000,0.000,0.000,0.000,0.000,0.000,0.000,0.000,0.000,0.000,0.000
82.617,0,0,-1.214,-0.437,-21.794,-1.232,-0.475,-38.932,-0.770,-0.230,-9.642,0.000,0.000,0.0103675,0.000,7500.000,0.120,1.900,1013.269,15.051,-0.160,-0.164,-9.667,-0.019,0.401,0.006,-0.017,-0.022,0.000,0.000,0.000,0.007,0.693,-0.008,0.720,0.0000000,0.0000000,0.000,0.000,0.000,0.000,0,00:00:00,0,0.000,0.000,0.000,0.000,0.000,0.000,0.000,0.000,0.000,0.000,0.000,0.000,0.000,0.000
82.718,0,0,-1.214,-0.439,-22.145,-1.248,-0.466,-37.200,-0.797,-0.142,-9.705,0.000,0.000,0.0103675,0.000,7500.000,0.115,2.188,1013.232,15.050,0.147,0.127,-9.731,0.032,0.401,-0.037,-0.020,0.021,0.000,0.000,0.000,0.007,0.693,-0.006,0.721,0.0000000,0.0000000,0.000,0.000,0.000,0.000,0,00:00:00,0,0.000,0.000,0.000,0.000,0.000,0.000,0.000,0.000,0.000,0.000,0.000,0.000,0.000,0.000
82.819,0,0,-1.215,-0.440,-22.309,-1.272,-0.453,-35.468,-0.869,-0.101,-9.808,0.000,0.000,0.0103675,0.000,7500.000,0.110,2.332,1013.241,15.051,0.079,0.045,-9.836,0.078,0.458,0.004,0.036,-0.000,0.000,0.000,0.000,0.008,0.692,-0.005,0.722,0.0000000,0.0000000,0.000,0.000,0.000,0.000,0,00:00:00,0,0.000,0.000,0.000,0.000,0.000,0.000,0.000,0.000,0.000,0.000,0.000,0.000,0.000,0.000
82.920,0,0,-1.217,-0.440,-22.321,-1.264,-0.444,-33.748,-0.562,-0.136,-9.752,0.000,0.000,0.0103675,0.000,7500.000,0.104,2.394,1013.260,15.052,-0.087,-0.110,-9.766,0.063,0.238,0.023,0.001,0.012,0.000,0.000,0.000,0.010,0.695,-0.005,0.719,0.0000000,0.0000000,0.000,0.000,0.000,0.000,0,00:00:00,0,0.000,0.000,0.000,0.000,0.000,0.000,0.000,0.000,0.000,0.000,0.000,0.000,0.000,0.000
83.021,0,0,-1.220,-0.439,-22.198,-1.278,-0.445,-32.058,-0.782,-0.239,-9.759,0.000,0.000,0.0103675,0.000,7500.000,0.099,1.892,1013.272,15.053,-0.185,-0.224,-9.784,-0.037,0.425,-0.002,0.033,-0.045,0.000,0.000,0.000,0.007,0.694,-0.008,0.720,0.0000000,0.0000000,0.000,0.000,0.000,0.000,0,00:00:00,0,0.000,0.000,0.000,0.000,0.000,0.000,0.000,0.000,0.000,0.000,0.000,0.000,0.000,0.000
83.122,0,0,-1.222,-0.439,-21.924,-1.278,-0.450,-30.385,-0.639,-0.282,-9.783,0.000,0.000,0.0103675,0.000,7500.000,0.094,2.095,1013.256,15.052,-0.047,-0.071,-9.803,-0.081,0.309,-0.002,0.003,0.005,0.000,0.000,0.000,0.006,0.695,-0.009,0.719,0.0000000,0.0000000,0.000,0.000,0.000,0.000,0,00:00:00,0,0.000,0.000,0.000,0.000,0.000,0.000,0.000,0.000,0.000,0.000,0.000,0.000,0.000,0.000
83.223,0,0,-1.225,-0.438,-21.581,-1.284,-0.439,-28.780,-0.709,-0.122,-9.707,0.000,0.000,0.0103675,0.000,7500.000,0.090,1.940,1013.286,15.048,-0.301,-0.349,-9.727,0.070,0.368,-0.005,0.014,-0.002,0.000,0.000,0.000,0.007,0.695,-0.007,0.719,0.0000000,0.0000000,0.000,0.000,0.000,0.000,0,00:00:00,0,0.000,0.000,0.000,0.000,0.000,0.000,0.000,0.000,0.000,0.000,0.000,0.000,0.000,0.000
83.324,0,0,-1.228,-0.437,-21.115,-1.307,-0.433,-27.199,-0.870,-0.169,-9.665,0.000,0.000,0.0103675,0.000,7500.000,0.085,2.012,1013.259,15.051,-0.075,-0.120,-9.694,0.037,0.464,0.016,-0.007,0.002,0.000,0.000,0.000,0.008,0.692,-0.007,0.722,0.0000000,0.0000000,0.000,0.000,0.000,0.000,0,00:00:00,0,0.000,0.000,0.000,0.000,0.000,0.000,0.000,0.000,0.000,0.000,0.000,0.000,0.000,0.000
83.425,0,0,-1.234,-0.436,-20.578,-1.333,-0.428,-25.684,-0.902,-0.185,-9.662,0.000,0.000,0.0103675,0.000,7500.000,0.080,2.397,1013.259,15.051,-0.075,-0.126,-9.694,0.037,0.464,0.016,-0.007,0.002,0.000,0.000,0.000,0.009,0.691,-0.007,0.723,0.0000000,0.0000000,0.000,0.000,0.000,0.000,0,00:00:00,0,0.000,0.000,0.000,0.000,0.000,0.000,0.000,0.000,0.000,0.000,0.000,0.000,0.000,0.000
83.526,0,0,-1.240,-0.434,-20.027,-1.331,-0.433,-24.292,-0.630,-0.273,-9.853,0.000,0.000,0.0103675,0.000,7500.000,0.076,2.589,1013.294,15.052,-0.362,-0.424,-9.874,-0.057,0.265,-0.010,-0.019,0.049,0.000,0.000,0.000,0.008,0.694,-0.007,0.720,0.0000000,0.0000000,0.000,0.000,0.000,0.000,0,00:00:00,0,0.000,0.000,0.000,0.000,0.000,0.000,0.000,0.000,0.000,0.000,0.000,0.000,0.000,0.000
83.627,0,0,-1.246,-0.434,-19.397,-1.343,-0.455,-22.949,-0.782,-0.452,-9.888,0.000,0.000,0.0103675,0.000,7500.000,0.072,2.118,1013.262,15.050,-0.100,-0.164,-9.919,-0.201,0.400,0.032,-0.008,0.026,0.000,0.000,0.000,0.006,0.693,-0.012,0.721,0.0000000,0.0000000,0.000,0.000,0.000,0.000,0,00:00:00,0,0.000,0.000,0.000,0.000,0.000,0.000,0.000,0.000,0.000,0.000,0.000,0.000,0.000,0.000
83.728,0,0,-1.251,-0.435,-18.767,-1.327,-0.463,-21.694,-0.493,-0.303,-9.746,0.000,0.000,0.0103675,0.000,7500.000,0.068,2.236,1013.288,15.048,-0.313,-0.376,-9.761,-0.076,0.185,-0.017,-0.057,0.006,0.000,0.000,0.000,0.005,0.696,-0.011,0.718,0.0000000,0.0000000,0.000,0.000,0.000,0.000,0,00:00:00,0,0.000,0.000,0.000,0.000,0.000,0.000,0.000,0.000,0.000,0.000,0.000,0.000,0.000,0.000
83.829,0,0,-1.254,-0.437,-18.096,-1.305,-0.460,-20.511,-0.448,-0.204,-9.834,0.000,0.000,0.0103675,0.000,7500.000,0.064,1.824,1013.271,15.051,-0.177,-0.229,-9.845,-0.003,0.194,-0.026,-0.002,0.022,0.000,0.000,0.000,0.006,0.698,-0.008,0.716,0.0000000,0.0000000,0.000,0.000,0.000,0.000,0,00:00:00,0,0.000,0.000,0.000,0.000,0.000,0.000,0.000,0.000,0.000,0.000,0.000,0.000,0.000,0.000
83.930,0,0,-1.257,-0.437,-17.312,-1.322,-0.441,-19.329,-0.828,-0.036,-9.785,0.000,0.000,0.0103675,0.000,7500.000,0.061,1.482,1013.183,15.050,0.555,0.516,-9.808,0.172,0.456,0.010,-0.036,-0.029,0.000,0.000,0.000,0.010,0.693,-0.006,0.720,0.0000000,0.0000000,0.000,0.000,0.000,0.000,0,00:00:00,0,0.000,0.000,0.000,0.000,0.000,0.000,0.000,0.000,0.000,0.000,0.000,0.000,0.000,0.000
84.031,0,0,-1.260,-0.437,-16.651,-1.314,-0.455,-18.340,-0.579,-0.367,-9.917,0.000,0.000,0.0103675,0.000,7500.000,0.057,2.175,1013.285,15.052,-0.290,-0.307,-9.936,-0.134,0.279,0.019,0.054,0.001,0.000,0.000,0.000,0.007,0.696,-0.010,0.718,0.0000000,0.0000000,0.000,0.000,0.000,0.000,0,00:00:00,0,0.000,0.000,0.000,0.000,0.000,0.000,0.000,0.000,0.000,0.000,0.000,0.000,0.000,0.000
84.132,0,0,-1.262,-0.439,-15.903,-1.329,-0.477,-17.326,-0.818,-0.449,-9.554,0.000,0.000,0.0103675,0.000,7500.000,0.054,1.738,1013.208,15.049,0.350,0.345,-9.587,-0.200,0.452,0.020,-0.002,-0.018,0.000,0.000,0.000,0.004,0.693,-0.014,0.721,0.0000000,0.0000000,0.000,0.000,0.000,0.000,0,00:00:00,0,0.000,0.000,0.000,0.000,0.000,0.000,0.000,0.000,0.000,0.000,0.000,0.000,0.000,0.000
84.233,0,0,-1.266,-0.442,-15.166,-1.349,-0.501,-16.396,-0.856,-0.471,-9.550,0.000,0.000,0.0103675,0.000,7500.000,0.051,2.225,1013.208,15.049,0.350,0.397,-9.587,-0.200,0.452,0.020,-0.002,-0.018,0.000,0.000,0.000,0.003,0.692,-0.016,0.722,0.0000000,0.0000000,0.000,0.000,0.000,0.000,0,00:00:00,0,0.000,0.000,0.000,0.000,0.000,0.000,0.000,0.000,0.000,0.000,0.000,0.000,0.000,0.000
84.334,0,0,-1.272,-0.447,-14.486,-1.360,-0.504,-15.592,-0.785,-0.266,-9.687,0.000,0.000,0.0103675,0.000,7500.000,0.048,2.469,1013.241,15.049,0.073,0.149,-9.714,-0.032,0.396,-0.038,0.031,0.011,0.000,0.000,0.000,0.005,0.693,-0.012,0.721,0.0000000,0.0000000,0.000,0.000,0.000,0.000,0,00:00:00,0,0.000,0.000,0.000,0.000,0.000,0.000,0.000,0.000,0.000,0.000,0.000,0.000,0.000,0.000
84.435,0,0,-1.276,-0.451,-13.849,-1.346,-0.510,-14.885,-0.533,-0.299,-9.719,0.000,0.000,0.0103675,0.000,7500.000,0.046,2.312,1013.256,15.048,-0.052,0.019,-9.735,-0.090,0.218,-0.022,-0.026,0.015,0.000,0.000,0.000,0.004,0.695,-0.011,0.718,0.0000000,0.0000000,0.000,0.000,0.000,0.000,0,00:00:00,0,0.000,0.000,0.000,0.000,0.000,0.000,0.000,0.000,0.000,0.000,0.000,0.000,0.000,0.000
84.536,0,0,-1.281,-0.455,-13.247,-1.369,-0.502,-14.244,-0.896,-0.157,-9.599,0.000,0.000,0.0103675,0.000,7500.000,0.044,1.872,1013.266,15.050,-0.133,-0.026,-9.629,0.044,0.500,-0.004,0.022,0.021,0.000,0.000,0.000,0.007,0.692,-0.008,0.721,0.0000000,0.0000000,0.000,0.000,0.000,0.000,0,00:00:00,0,0.000,0.000,0.000,0.000,0.000,0.000,0.000,0.000,0.000,0.000,0.000,0.000,0.000,0.000
84.637,0,0,-1.287,-0.458,-12.674,-1.395,-0.493,-13.674,-0.937,-0.150,-9.595,0.000,0.000,0.0103675,0.000,7500.000,0.042,2.360,1013.266,15.050,-0.133,-0.032,-9.629,0.044,0.500,-0.004,0.022,0.021,0.000,0.000,0.000,0.008,0.691,-0.006,0.723,0.0000000,0.0000000,0.000,0.000,0.000,0.000,0,00:00:00,0,0.000,0.000,0.000,0.000,0.000,0.000,0.000,0.000,0.000,0.000,0.000,0.000,0.000,0.000
84.738,0,0,-1.295,-0.459,-12.069,-1.411,-0.481,-13.140,-0.841,-0.126,-9.782,0.000,0.000,0.0103675,0.000,7500.000,0.040,2.604,1013.217,15.051,0.276,0.423,-9.810,0.085,0.414,0.014,0.007,0.018,0.000,0.000,0.000,0.010,0.691,-0.006,0.722,0.0000000,0.0000000,0.000,0.000,0.000,0.000,0,00:00:00,0,0.000,0.000,0.000,0.000,0.000,0.000,0.000,0.000,0.000,0.000,0.000,0.000,0.000,0.000
84.839,0,0,-1.301,-0.460,-11.544,-1.382,-0.473,-12.702,-0.392,-0.168,-9.728,0.000,0.000,0.0103675,0.000,7500.000,0.039,2.491,1013.256,15.050,-0.048,0.124,-9.736,0.036,0.117,-0.009,-0.008,-0.015,0.000,0.000,0.000,0.009,0.697,-0.006,0.717,0.0000000,0.0000000,0.000,0.000,0.000,0.000,0,00:00:00,0,0.000,0.000,0.000,0.000,0.000,0.000,0.000,0.000,0.000,0.000,0.000,0.000,0.000,0.000
333.026,6,0,-0.034,0.048,65.172,-0.042,0.037,-4.207,-0.046,-0.086,-0.024,70.000,0.000,0.0118711,7852.043,7123.854,0.012,-3.386,1005.469,14.625,64.943,65.051,-0.007,-0.069,0.073,0.008,0.007,-0.001,0.000,0.000,0.000,-0.190,0.703,-0.049,0.684,0.0000000,0.0000000,64.992,0.000,0.000,0.000,0,00:00:00,0,0.000,0.000,0.000,0.000,0.000,0.000,0.000,0.000,0.000,0.000,0.000,0.000,0.000,0.000
333.127,6,0,-0.035,0.047,64.734,-0.049,0.045,-4.200,-0.091,0.111,0.167,70.000,0.000,0.0118711,7852.043,7123.854,0.012,-3.410,1005.517,14.629,64.544,64.652,0.140,0.164,0.039,-0.002,-0.002,-0.007,0.000,0.000,0.000,-0.191,0.702,-0.049,0.684,0.0000000,0.0000000,64.573,0.000,0.000,0.000,0,00:00:00,0,0.000,0.000,0.000,0.000,0.000,0.000,0.000,0.000,0.000,0.000,0.000,0.000,0.000,0.000
333.228,6,0,-0.037,0.046,64.266,-0.052,0.036,-4.246,-0.046,-0.070,-0.130,70.000,0.000,0.0118711,7852.043,7123.854,0.012,-3.406,1005.595,14.630,63.889,63.997,-0.114,-0.074,0.074,0.027,-0.001,-0.021,0.000,0.000,0.000,-0.190,0.702,-0.050,0.684,0.0000000,0.0000000,64.154,0.000,0.000,0.000,0,00:00:00,0,0.000,0.000,0.000,0.000,0.000,0.000,0.000,0.000,0.000,0.000,0.000,0.000,0.000,0.000
333.329,6,0,-0.038,0.045,63.859,-0.055,0.026,-4.243,-0.046,-0.071,-0.130,70.000,0.000,0.0118711,7852.043,7123.854,0.013,-3.349,1005.595,14.630,63.889,63.997,-0.114,-0.074,0.074,0.027,-0.001,-0.021,0.000,0.000,0.000,-0.190,0.702,-0.052,0.685,0.0000000,0.0000000,64.154,0.000,0.000,0.000,0,00:00:00,0,0.000,0.000,0.000,0.000,0.000,0.000,0.000,0.000,0.000,0.000,0.000,0.000,0.000,0.000
333.430,6,0,-0.039,0.043,63.415,-0.047,0.018,-4.241,0.055,-0.056,0.128,70.000,0.000,0.0118711,7852.043,7123.854,0.012,-3.291,1005.676,14.636,63.209,63.318,0.137,-0.046,-0.042,0.013,0.038,0.019,0.000,0.000,0.000,-0.189,0.703,-0.052,0.683,0.0000000,0.0000000,63.315,0.000,0.000,0.000,0,00:00:00,0,0.000,0.000,0.000,0.000,0.000,0.000,0.000,0.000,0.000,0.000,0.000,0.000,0.000,0.000
333.531,6,0,-0.040,0.040,63.035,-0.048,0.018,-4.219,-0.029,0.018,-0.145,70.000,0.000,0.0118711,7852.043,7123.854,0.012,-3.472,1005.674,14.637,63.231,63.340,-0.146,-0.001,0.029,0.017,-0.037,-0.007,0.000,0.000,0.000,-0.189,0.702,-0.053,0.685,0.0000000,0.0000000,62.896,0.000,0.000,0.000,0,00:00:00,0,0.000,0.000,0.000,0.000,0.000,0.000,0.000,0.000,0.000,0.000,0.000,0.000,0.000,0.000
333.632,6,0,-0.041,0.038,62.647,-0.057,0.011,-4.196,-0.112,-0.047,-0.047,70.000,0.000,0.0118711,7852.043,7123.854,0.012,-3.236,1005.729,14.641,62.771,62.879,-0.039,-0.014,0.124,0.019,-0.011,0.041,0.000,0.000,0.000,-0.187,0.702,-0.052,0.685,0.0000000,0.0000000,62.477,0.000,0.000,0.000,0,00:00:00,0,0.000,0.000,0.000,0.000,0.000,0.000,0.000,0.000,0.000,0.000,0.000,0.000,0.000,0.000
333.733,6,0,-0.042,0.035,62.179,-0.055,0.009,-4.242,-0.008,0.001,-0.138,70.000,0.000,0.0118711,7852.043,7123.854,0.012,-3.143,1005.844,14.647,61.803,61.912,-0.136,-0.022,0.015,-0.026,-0.006,0.008,0.000,0.000,0.000,-0.187,0.702,-0.051,0.685,0.0000000,0.0000000,62.058,0.000,0.000,0.000,0,00:00:00,0,0.000,0.000,0.000,0.000,0.000,0.000,0.000,0.000,0.000,0.000,0.000,0.000,0.000,0.000
333.834,6,0,-0.043,0.032,61.711,-0.041,-0.007,-4.281,0.125,-0.142,-0.095,70.000,0.000,0.0118711,7852.043,7123.854,0.012,-3.162,1005.897,14.646,61.362,61.470,-0.065,-0.190,-0.066,0.000,-0.008,0.020,0.000,0.000,0.000,-0.186,0.702,-0.050,0.686,0.0000000,0.0000000,61.638,0.000,0.000,0.000,0,00:00:00,0,0.000,0.000,0.000,0.000,0.000,0.000,0.000,0.000,0.000,0.000,0.000,0.000,0.000,0.000
333.935,6,0,-0.042,0.028,61.283,-0.039,-0.013,-4.252,-0.011,-0.048,0.262,70.000,0.000,0.0118711,7852.043,7123.854,0.013,-3.119,1005.917,14.648,61.198,61.306,0.266,0.008,0.013,-0.020,-0.022,-0.004,0.000,0.000,0.000,-0.187,0.701,-0.049,0.686,0.0000000,0.0000000,61.219,0.000,0.000,0.000,0,00:00:00,0,0.000,0.000,0.000,0.000,0.000,0.000,0.000,0.000,0.000,0.000,0.000,0.000,0.000,0.000
334.036,6,0,-0.042,0.024,60.885,-0.043,-0.011,-4.229,-0.057,0.032,-0.008,70.000,0.000,0.0118711,7852.043,7123.854,0.013,-3.039,1005.944,14.651,60.969,61.077,-0.015,0.047,0.044,-0.026,-0.010,-0.015,0.000,0.000,0.000,-0.189,0.701,-0.049,0.686,0.0000000,0.0000000,60.800,0.000,0.000,0.000,0,00:00:00,0,0.000,0.000,0.000,0.000,0.000,0.000,0.000,0.000,0.000,0.000,0.000,0.000,0.000,0.000
334.137,6,0,-0.042,0.020,60.476,-0.045,-0.035,-4.210,-0.044,-0.231,0.065,70.000,0.000,0.0118711,7852.043,7123.854,0.012,-3.031,1006.003,14.655,60.474,60.582,0.109,-0.187,0.113,0.011,-0.012,0.027,0.000,0.000,0.000,-0.188,0.700,-0.048,0.687,0.0000000,0.0000000,60.381,0.000,0.000,0.000,0,00:00:00,0,0.000,0.000,0.000,0.000,0.000,0.000,0.000,0.000,0.000,0.000,0.000,0.000,0.000,0.000
334.238,6,0,-0.043,0.015,60.063,-0.052,-0.030,-4.198,-0.087,0.060,0.027,70.000,0.000,0.0118711,7852.043,7123.854,0.012,-2.948,1006.056,14.657,60.029,60.137,0.014,0.089,0.062,-0.005,-0.012,0.001,0.000,0.000,0.000,-0.188,0.700,-0.048,0.687,0.0000000,0.0000000,59.962,0.000,0.000,0.000,0,00:00:00,0,0.000,0.000,0.000,0.000,0.000,0.000,0.000,0.000,0.000,0.000,0.000,0.000,0.000,0.000
334.339,6,0,-0.043,0.011,59.657,-0.037,-0.037,-4.169,0.120,-0.062,0.158,70.000,0.000,0.0118711,7852.043,7123.854,0.012,-2.894,1006.101,14.659,59.657,59.765,0.169,-0.066,-0.101,-0.018,-0.014,0.017,0.000,0.000,0.000,-0.188,0.700,-0.046,0.688,0.0000000,0.0000000,59.542,0.000,0.000,0.000,0,00:00:00,0,0.000,0.000,0.000,0.000,0.000,0.000,0.000,0.000,0.000,0.000,0.000,0.000,0.000,0.000
334.440,6,0,-0.042,0.005,59.218,-0.034,-0.054,-4.193,0.012,-0.166,-0.115,70.000,0.000,0.0118711,7852.043,7123.854,0.012,-2.853,1006.179,14.662,59.004,59.112,-0.079,-0.180,0.048,-0.008,-0.010,0.010,0.000,0.000,0.000,-0.188,0.700,-0.045,0.688,0.0000000,0.0000000,59.123,0.000,0.000,0.000,0,00:00:00,0,0.000,0.000,0.000,0.000,0.000,0.000,0.000,0.000,0.000,0.000,0.000,0.000,0.000,0.000
334.541,6,0,-0.041,0.000,58.789,-0.029,-0.045,-4.209,0.026,0.090,-0.116,70.000,0.000,0.0118711,7852.043,7123.854,0.012,-2.813,1006.221,14.667,58.652,58.760,-0.131,0.052,-0.047,-0.002,-0.015,0.024,0.000,0.000,0.000,-0.187,0.699,-0.044,0.689,0.0000000,0.0000000,58.704,0.000,0.000,0.000,0,00:00:00,0,0.000,0.000,0.000,0.000,0.000,0.000,0.000,0.000,0.000,0.000,0.000,0.000,0.000,0.000
334.642,6,0,-0.040,-0.004,58.387,-0.029,-0.053,-4.193,-0.016,-0.084,-0.018,70.000,0.000,0.0118711,7852.043,7123.854,0.012,-2.737,1006.249,14.669,58.418,58.527,-0.001,-0.076,0.043,0.074,0.013,-0.037,0.000,0.000,0.000,-0.186,0.699,-0.048,0.689,0.0000000,0.0000000,58.285,0.000,0.000,0.000,0,00:00:00,0,0.000,0.000,0.000,0.000,0.000,0.000,0.000,0.000,0.000,0.000,0.000,0.000,0.000,0.000
334.743,6,0,-0.039,-0.009,57.996,-0.033,-0.064,-4.185,-0.067,-0.107,-0.167,70.000,0.000,0.0118711,7852.043,7123.854,0.012,-2.667,1006.288,14.667,58.091,58.200,-0.144,-0.108,0.106,0.012,0.019,-0.034,0.000,0.000,0.000,-0.186,0.699,-0.050,0.688,0.0000000,0.0000000,57.866,0.000,0.000,0.000,0,00:00:00,0,0.000,0.000,0.000,0.000,0.000,0.000,0.000,0.000,0.000,0.000,0.000,0.000,0.000,0.000
334.844,6,0,-0.038,-0.014,57.583,-0.026,-0.061,-4.174,0.054,0.016,0.044,70.000,0.000,0.0118711,7852.043,7123.854,0.012,-2.747,1006.355,14.673,57.532,57.640,0.041,0.005,-0.059,-0.004,-0.019,-0.013,0.000,0.000,0.000,-0.187,0.699,-0.050,0.689,0.0000000,0.0000000,57.447,0.000,0.000,0.000,0,00:00:00,0,0.000,0.000,0.000,0.000,0.000,0.000,0.000,0.000,0.000,0.000,0.000,0.000,0.000,0.000
334.945,6,0,-0.037,-0.019,57.130,-0.037,-0.071,-4.203,-0.129,-0.102,-0.054,70.000,0.000,0.0118711,7852.043,7123.854,0.012,-2.652,1006.439,14.675,56.830,56.938,-0.036,-0.062,0.158,0.020,0.001,0.016,0.000,0.000,0.000,-0.186,0.699,-0.050,0.689,0.0000000,0.0000000,57.027,0.000,0.000,0.000,0,00:00:00,0,0.000,0.000,0.000,0.000,0.000,0.000,0.000,0.000,0.000,0.000,0.000,0.000,0.000,0.000
335.046,6,0,-0.036,-0.023,56.660,-0.005,-0.065,-4.238,0.293,0.048,-0.019,70.000,0.000,0.0118711,7852.043,7123.854,0.012,-2.620,1006.505,14.678,56.276,56.384,-0.023,-0.056,-0.291,-0.015,0.024,-0.018,0.000,0.000,0.000,-0.187,0.699,-0.051,0.688,0.0000000,0.0000000,56.608,0.000,0.000,0.000,0,00:00:00,0,0.000,0.000,0.000,0.000,0.000,0.000,0.000,0.000,0.000,0.000,0.000,0.000,0.000,0.000
335.147,6,0,-0.032,-0.027,56.196,0.015,-0.068,-4.263,0.186,-0.050,0.019,70.000,0.000,0.0118711,7852.043,7123.854,0.012,-2.777,1006.554,14.681,55.869,55.977,0.031,-0.105,-0.160,-0.020,0.032,0.008,0.000,0.000,0.000,-0.187,0.701,-0.050,0.687,0.0000000,0.0000000,56.189,0.000,0.000,0.000,0,00:00:00,0,0.000,0.000,0.000,0.000,0.000,0.000,0.000,0.000,0.000,0.000,0.000,0.000,0.000,0.000
335.248,6,0,-0.028,-0.030,55.774,-0.000,-0.058,-4.287,-0.168,0.091,-0.307,70.000,0.000,0.0118711,7852.043,7123.854,0.013,-2.988,1006.571,14.685,55.725,55.833,-0.321,0.082,0.145,-0.040,0.026,-0.036,0.000,0.000,0.000,-0.190,0.701,-0.050,0.685,0.0000000,0.0000000,55.770,0.000,0.000,0.000,0,00:00:00,0,0.000,0.000,0.000,0.000,0.000,0.000,0.000,0.000,0.000,0.000,0.000,0.000,0.000,0.000
335.349,6,0,-0.026,-0.034,55.330,-0.001,-0.076,-4.293,-0.019,-0.205,0.020,70.000,0.000,0.0118711,7852.043,7123.854,0.013,-3.205,1006.639,14.687,55.154,55.262,0.060,-0.179,0.084,0.015,-0.012,0.026,0.000,0.000,0.000,-0.188,0.701,-0.050,0.686,0.0000000,0.0000000,55.351,0.000,0.000,0.000,0,00:00:00,0,0.000,0.000,0.000,0.000,0.000,0.000,0.000,0.000,0.000,0.000,0.000,0.000,0.000,0.000
335.450,6,0,-0.023,-0.037,54.904,0.007,-0.067,-4.268,0.067,0.073,0.201,70.000,0.000,0.0118711,7852.043,7123.854,0.013,-3.109,1006.677,14.689,54.839,54.947,0.183,0.083,-0.097,-0.021,-0.016,0.019,0.000,0.000,0.000,-0.188,0.701,-0.048,0.686,0.0000000,0.0000000,54.932,0.000,0.000,0.000,0,00:00:00,0,0.000,0.000,0.000,0.000,0.000,0.000,0.000,0.000,0.000,0.000,0.000,0.000,0.000,0.000
335.551,6,0,-0.020,-0.040,54.475,0.003,-0.065,-4.248,-0.045,-0.004,0.190,70.000,0.000,0.0118711,7852.043,7123.854,0.013,-3.064,1006.732,14.693,54.374,54.482,0.187,0.047,0.034,-0.002,0.007,-0.028,0.000,0.000,0.000,-0.189,0.701,-0.049,0.686,0.0000000,0.0000000,54.513,0.000,0.000,0.000,0,00:00:00,0,0.000,0.000,0.000,0.000,0.000,0.000,0.000,0.000,0.000,0.000,0.000,0.000,0.000,0.000
335.652,6,0,-0.018,-0.041,54.073,-0.002,-0.057,-4.225,-0.062,0.064,0.029,70.000,0.000,0.0118711,7852.043,7123.854,0.013,-3.107,1006.762,14.696,54.130,54.238,0.015,0.085,0.036,-0.042,0.020,-0.016,0.000,0.000,0.000,-0.191,0.701,-0.048,0.685,0.0000000,0.0000000,54.094,0.000,0.000,0.000,0,00:00:00,0,0.000,0.000,0.000,0.000,0.000,0.000,0.000,0.000,0.000,0.000,0.000,0.000,0.000,0.000
335.753,6,0,-0.016,-0.043,53.638,0.009,-0.067,-4.236,0.096,-0.121,-0.048,70.000,0.000,0.0118711,7852.043,7123.854,0.012,-3.292,1006.839,14.698,53.478,53.586,-0.021,-0.154,-0.048,-0.032,-0.022,0.007,0.000,0.000,0.000,-0.192,0.701,-0.047,0.685,0.0000000,0.0000000,53.675,0.000,0.000,0.000,0,00:00:00,0,0.000,0.000,0.000,0.000,0.000,0.000,0.000,0.000,0.000,0.000,0.000,0.000,0.000,0.000
335.854,6,0,-0.014,-0.045,53.256,-0.001,-0.052,-4.192,-0.102,0.124,0.095,70.000,0.000,0.0118711,7852.043,7123.854,0.012,-3.231,1006.846,14.700,53.424,53.532,0.066,0.167,0.050,0.006,0.022,-0.001,0.000,0.000,0.000,-0.192,0.702,-0.047,0.685,0.0000000,0.0000000,53.256,0.000,0.000,0.000,0,00:00:00,0,0.000,0.000,0.000,0.000,0.000,0.000,0.000,0.000,0.000,0.000,0.000,0.000,0.000,0.000
335.955,6,0,-0.014,-0.045,52.931,-0.010,-0.037,-4.110,-0.102,0.124,0.094,70.000,0.000,0.0118711,7852.043,7123.854,0.012,-3.338,1006.846,14.700,53.424,53.532,0.066,0.167,0.050,0.006,0.022,-0.001,0.000,0.000,0.000,-0.192,0.702,-0.048,0.684,0.0000000,0.0000000,53.256,0.000,0.000,0.000,0,00:00:00,0,0.000,0.000,0.000,0.000,0.000,0.000,0.000,0.000,0.000,0.000,0.000,0.000,0.000,0.000
336.056,6,0,-0.013,-0.044,52.520,-0.008,-0.042,-4.122,0.021,-0.069,-0.159,70.000,0.000,0.0118711,7852.043,7123.854,0.012,-3.445,1006.963,14.706,52.443,52.551,-0.141,-0.101,0.013,0.003,-0.005,-0.007,0.000,0.000,0.000,-0.192,0.702,-0.048,0.684,0.0000000,0.0000000,52.418,0.000,0.000,0.000,0,00:00:00,0,0.000,0.000,0.000,0.000,0.000,0.000,0.000,0.000,0.000,0.000,0.000,0.000,0.000,0.000
336.157,6,0,-0.013,-0.043,52.153,-0.016,-0.038,-4.089,-0.088,0.016,-0.036,70.000,0.000,0.0118711,7852.043,7123.854,0.012,-3.411,1006.975,14.709,52.346,52.454,-0.039,0.037,0.080,0.009,-0.018,0.016,0.000,0.000,0.000,-0.191,0.702,-0.048,0.685,0.0000000,0.0000000,51.999,0.000,0.000,0.000,0,00:00:00,0,0.000,0.000,0.000,0.000,0.000,0.000,0.000,0.000,0.000,0.000,0.000,0.000,0.000,0.000
336.258,6,0,-0.014,-0.043,51.730,-0.024,-0.051,-4.116,-0.085,-0.149,-0.209,70.000,0.000,0.0118711,7852.043,7123.854,0.012,-3.298,1007.067,14.711,51.571,51.680,-0.176,-0.150,0.142,0.009,0.016,0.013,0.000,0.000,0.000,-0.190,0.702,-0.048,0.684,0.0000000,0.0000000,51.580,0.000,0.000,0.000,0,00:00:00,0,0.000,0.000,0.000,0.000,0.000,0.000,0.000,0.000,0.000,0.000,0.000,0.000,0.000,0.000
336.359,6,0,-0.015,-0.044,51.302,-0.037,-0.054,-4.143,-0.145,-0.062,-0.181,70.000,0.000,0.0118711,7852.043,7123.854,0.012,-3.367,1007.121,14.716,51.122,51.230,-0.166,-0.045,0.167,-0.024,-0.014,0.007,0.000,0.000,0.000,-0.191,0.702,-0.046,0.685,0.0000000,0.0000000,51.161,0.000,0.000,0.000,0,00:00:00,0,0.000,0.000,0.000,0.000,0.000,0.000,0.000,0.000,0.000,0.000,0.000,0.000,0.000,0.000
336.460,6,0,-0.017,-0.045,50.877,-0.045,-0.066,-4.151,-0.083,-0.135,-0.027,70.000,0.000,0.0118711,7852.043,7123.854,0.012,-3.337,1007.168,14.717,50.729,50.837,-0.000,-0.103,0.124,-0.003,-0.047,0.007,0.000,0.000,0.000,-0.191,0.700,-0.046,0.686,0.0000000,0.0000000,50.742,0.000,0.000,0.000,0,00:00:00,0,0.000,0.000,0.000,0.000,0.000,0.000,0.000,0.000,0.000,0.000,0.000,0.000,0.000,0.000
336.561,6,0,-0.020,-0.047,50.440,-0.055,-0.066,-4.160,-0.114,-0.033,0.036,70.000,0.000,0.0118711,7852.043,7123.854,0.012,-3.092,1007.229,14.717,50.224,50.332,0.040,0.015,0.117,-0.025,-0.025,0.013,0.000,0.000,0.000,-0.191,0.700,-0.044,0.687,0.0000000,0.0000000,50.323,0.000,0.000,0.000,0,00:00:00,0,0.000,0.000,0.000,0.000,0.000,0.000,0.000,0.000,0.000,0.000,0.000,0.000,0.000,0.000
336.662,6,0,-0.024,-0.049,50.038,-0.062,-0.073,-4.159,-0.079,-0.087,-0.121,70.000,0.000,0.0118711,7852.043,7123.854,0.012,-3.004,1007.250,14.725,50.045,50.153,-0.101,-0.079,0.109,-0.020,0.035,0.021,0.000,0.000,0.000,-0.191,0.701,-0.043,0.686,0.0000000,0.0000000,49.904,0.000,0.000,0.000,0,00:00:00,0,0.000,0.000,0.000,0.000,0.000,0.000,0.000,0.000,0.000,0.000,0.000,0.000,0.000,0.000
336.763,6,0,-0.027,-0.051,49.623,-0.049,-0.070,-4.159,0.116,-0.002,-0.043,70.000,0.000,0.0118711,7852.043,7123.854,0.012,-3.232,1007.310,14.725,49.543,49.651,-0.039,-0.049,-0.107,-0.001,-0.014,-0.040,0.000,0.000,0.000,-0.193,0.700,-0.044,0.686,0.0000000,0.0000000,49.485,0.000,0.000,0.000,0,00:00:00,0,0.000,0.000,0.000,0.000,0.000,0.000,0.000,0.000,0.000,0.000,0.000,0.000,0.000,0.000
336.864,6,0,-0.029,-0.053,49.172,-0.050,-0.067,-4.185,-0.024,0.007,-0.036,70.000,0.000,0.0118711,7852.043,7123.854,0.012,-3.158,1007.389,14.730,48.879,48.988,-0.037,0.007,0.023,0.015,0.014,0.008,0.000,0.000,0.000,-0.192,0.701,-0.045,0.686,0.0000000,0.0000000,49.066,0.000,0.000,0.000,0,00:00:00,0,0.000,0.000,0.000,0.000,0.000,0.000,0.000,0.000,0.000,0.000,0.000,0.000,0.000,0.000
336.965,6,0,-0.031,-0.054,48.783,-0.051,-0.063,-4.164,-0.024,0.007,-0.036,70.000,0.000,0.0118711,7852.043,7123.854,0.012,-3.204,1007.389,14.730,48.879,48.988,-0.037,0.007,0.023,0.015,0.014,0.008,0.000,0.000,0.000,-0.191,0.701,-0.045,0.685,0.0000000,0.0000000,49.066,0.000,0.000,0.000,0,00:00:00,0,0.000,0.000,0.000,0.000,0.000,0.000,0.000,0.000,0.000,0.000,0.000,0.000,0.000,0.000
337.066,6,0,-0.032,-0.054,48.357,-0.049,-0.067,-4.160,0.003,-0.064,0.089,70.000,0.000,0.0118711,7852.043,7123.854,0.012,-3.249,1007.469,14.736,48.212,48.320,0.101,-0.043,0.012,0.022,0.002,0.043,0.000,0.000,0.000,-0.189,0.702,-0.044,0.686,0.0000000,0.0000000,48.228,0.000,0.000,0.000,0,00:00:00,0,0.000,0.000,0.000,0.000,0.000,0.000,0.000,0.000,0.000,0.000,0.000,0.000,0.000,0.000
337.167,6,0,-0.033,-0.056,47.911,-0.041,-0.073,-4.178,0.061,-0.089,0.012,70.000,0.000,0.0118711,7852.043,7123.854,0.012,-3.218,1007.537,14.737,47.645,47.753,0.030,-0.100,-0.030,-0.002,-0.002,0.002,0.000,0.000,0.000,-0.189,0.702,-0.044,0.686,0.0000000,0.0000000,47.809,0.000,0.000,0.000,0,00:00:00,0,0.000,0.000,0.000,0.000,0.000,0.000,0.000,0.000,0.000,0.000,0.000,0.000,0.000,0.000
337.268,6,0,-0.033,-0.057,47.532,-0.031,-0.066,-4.152,0.079,0.039,-0.073,70.000,0.000,0.0118711,7852.043,7123.854,0.012,-3.213,1007.531,14.739,47.694,47.802,-0.079,-0.004,-0.083,0.014,-0.001,-0.013,0.000,0.000,0.000,-0.189,0.701,-0.045,0.686,0.0000000,0.0000000,47.390,0.000,0.000,0.000,0,00:00:00,0,0.000,0.000,0.000,0.000,0.000,0.000,0.000,0.000,0.000,0.000,0.000,0.000,0.000,0.000
337.369,6,0,-0.033,-0.058,47.121,-0.037,-0.069,-4.150,-0.077,-0.061,-0.037,70.000,0.000,0.0118711,7852.043,7123.854,0.012,-3.181,1007.606,14.741,47.066,47.174,-0.025,-0.039,0.094,0.022,-0.021,0.038,0.000,0.000,0.000,-0.187,0.701,-0.044,0.687,0.0000000,0.0000000,46.971,0.000,0.000,0.000,0,00:00:00,0,0.000,0.000,0.000,0.000,0.000,0.000,0.000,0.000,0.000,0.000,0.000,0.000,0.000,0.000
337.470,6,0,-0.034,-0.058,46.687,-0.036,-0.046,-4.165,-0.014,0.194,-0.039,70.000,0.000,0.0118711,7852.043,7123.854,0.012,-3.029,1007.676,14.746,46.485,46.593,-0.077,0.177,-0.046,0.015,0.031,0.029,0.000,0.000,0.000,-0.185,0.702,-0.044,0.686,0.0000000,0.0000000,46.552,0.000,0.000,0.000,0,00:00:00,0,0.000,0.000,0.000,0.000,0.000,0.000,0.000,0.000,0.000,0.000,0.000,0.000,0.000,0.000
337.571,6,0,-0.034,-0.056,46.270,-0.042,-0.040,-4.159,-0.070,0.033,0.026,70.000,0.000,0.0118711,7852.043,7123.854,0.012,-3.170,1007.712,14.748,46.185,46.293,0.018,0.058,0.055,0.012,-0.024,-0.019,0.000,0.000,0.000,-0.186,0.701,-0.045,0.687,0.0000000,0.0000000,46.133,0.000,0.000,0.000,0,00:00:00,0,0.000,0.000,0.000,0.000,0.000,0.000,0.000,0.000,0.000,0.000,0.000,0.000,0.000,0.000
337.672,6,0,-0.034,-0.055,45.815,-0.030,-0.041,-4.187,0.102,-0.037,-0.007,70.000,0.000,0.0118711,7852.043,7123.854,0.012,-3.016,1007.795,14.747,45.490,45.599,0.002,-0.069,-0.084,-0.027,-0.017,-0.014,0.000,0.000,0.000,-0.187,0.701,-0.044,0.687,0.0000000,0.0000000,45.714,0.000,0.000,0.000,0,00:00:00,0,0.000,0.000,0.000,0.000,0.000,0.000,0.000,0.000,0.000,0.000,0.000,0.000,0.000,0.000
337.773,6,0,-0.033,-0.053,45.365,-0.017,-0.043,-4.203,0.107,-0.046,0.045,70.000,0.000,0.0118711,7852.043,7123.854,0.012,-2.971,1007.843,14.752,45.088,45.196,0.055,-0.069,-0.089,-0.015,-0.010,-0.021,0.000,0.000,0.000,-0.188,0.700,-0.044,0.687,0.0000000,0.0000000,45.295,0.000,0.000,0.000,0,00:00:00,0,0.000,0.000,0.000,0.000,0.000,0.000,0.000,0.000,0.000,0.000,0.000,0.000,0.000,0.000
337.874,6,0,-0.031,-0.052,44.976,-0.005,-0.045,-4.171,0.107,-0.046,0.045,70.000,0.000,0.0118711,7852.043,7123.854,0.012,-2.947,1007.843,14.752,45.088,45.196,0.055,-0.069,-0.089,-0.015,-0.010,-0.021,0.000,0.000,0.000,-0.189,0.700,-0.045,0.687,0.0000000,0.0000000,45.295,0.000,0.000,0.000,0,00:00:00,0,0.000,0.000,0.000,0.000,0.000,0.000,0.000,0.000,0.000,0.000,0.000,0.000,0.000,0.000
337.975,6,0,-0.028,-0.052,44.521,0.005,-0.060,-4.198,0.081,-0.184,-0.020,70.000,0.000,0.0118711,7852.043,7123.854,0.012,-2.922,1007.948,14.759,44.208,44.316,0.019,-0.201,-0.016,0.003,0.003,-0.021,0.000,0.000,0.000,-0.190,0.700,-0.045,0.687,0.0000000,0.0000000,44.458,0.000,0.000,0.000,0,00:00:00,0,0.000,0.000,0.000,0.000,0.000,0.000,0.000,0.000,0.000,0.000,0.000,0.000,0.000,0.000
338.076,6,0,-0.025,-0.053,44.126,0.002,-0.058,-4.157,-0.040,0.001,0.201,70.000,0.000,0.0118711,7852.043,7123.854,0.012,-2.931,1007.951,14.762,44.188,44.296,0.195,0.054,0.028,-0.005,-0.003,0.031,0.000,0.000,0.000,-0.189,0.700,-0.044,0.687,0.0000000,0.0000000,44.039,0.000,0.000,0.000,0,00:00:00,0,0.000,0.000,0.000,0.000,0.000,0.000,0.000,0.000,0.000,0.000,0.000,0.000,0.000,0.000
338.177,6,0,-0.022,-0.053,43.711,0.017,-0.069,-4.149,0.131,-0.143,0.055,70.000,0.000,0.0118711,7852.043,7123.854,0.012,-2.926,1008.018,14.764,43.628,43.736,0.085,-0.164,-0.080,-0.007,-0.022,-0.012,0.000,0.000,0.000,-0.190,0.699,-0.044,0.688,0.0000000,0.0000000,43.620,0.000,0.000,0.000,0,00:00:00,0,0.000,0.000,0.000,0.000,0.000,0.000,0.000,0.000,0.000,0.000,0.000,0.000,0.000,0.000
338.278,6,0,-0.019,-0.055,43.231,-0.003,-0.078,-4.187,-0.206,-0.118,0.071,70.000,0.000,0.0118711,7852.043,7123.854,0.012,-2.822,1008.123,14.768,42.748,42.856,0.090,-0.027,0.229,-0.010,0.034,-0.004,0.000,0.000,0.000,-0.190,0.700,-0.044,0.687,0.0000000,0.0000000,43.201,0.000,0.000,0.000,0,00:00:00,0,0.000,0.000,0.000,0.000,0.000,0.000,0.000,0.000,0.000,0.000,0.000,0.000,0.000,0.000
338.379,6,0,-0.018,-0.057,42.815,-0.003,-0.077,-4.174,-0.004,-0.019,0.079,70.000,0.000,0.0118711,7852.043,7123.854,0.012,-3.024,1008.123,14.769,42.750,42.858,0.081,-0.001,0.006,0.018,-0.013,0.003,0.000,0.000,0.000,-0.190,0.700,-0.045,0.687,0.0000000,0.0000000,42.782,0.000,0.000,0.000,0,00:00:00,0,0.000,0.000,0.000,0.000,0.000,0.000,0.000,0.000,0.000,0.000,0.000,0.000,0.000,0.000
338.480,6,0,-0.015,-0.059,42.379,0.016,-0.080,-4.194,0.181,-0.063,-0.095,70.000,0.000,0.0118711,7852.043,7123.854,0.012,-2.923,1008.191,14.773,42.184,42.292,-0.078,-0.135,-0.146,-0.003,-0.001,0.031,0.000,0.000,0.000,-0.189,0.700,-0.043,0.687,0.0000000,0.0000000,42.363,0.000,0.000,0.000,0,00:00:00,0,0.000,0.000,0.000,0.000,0.000,0.000,0.000,0.000,0.000,0.000,0.000,0.000,0.000,0.000
338.581,6,0,-0.012,-0.061,41.950,0.029,-0.090,-4.206,0.114,-0.127,-0.075,70.000,0.000,0.0118711,7852.043,7123.854,0.012,-2.925,1008.235,14.776,41.810,41.918,-0.045,-0.169,-0.063,0.033,-0.030,0.004,0.000,0.000,0.000,-0.187,0.699,-0.044,0.689,0.0000000,0.0000000,41.944,0.000,0.000,0.000,0,00:00:00,0,0.000,0.000,0.000,0.000,0.000,0.000,0.000,0.000,0.000,0.000,0.000,0.000,0.000,0.000
338.682,6,0,-0.008,-0.063,41.558,0.035,-0.084,-4.190,0.063,0.021,-0.088,70.000,0.000,0.0118711,7852.043,7123.854,0.012,-2.701,1008.254,14.779,41.652,41.760,-0.090,-0.018,-0.062,0.013,-0.028,0.010,0.000,0.000,0.000,-0.187,0.698,-0.044,0.690,0.0000000,0.0000000,41.526,0.000,0.000,0.000,0,00:00:00,0,0.000,0.000,0.000,0.000,0.000,0.000,0.000,0.000,0.000,0.000,0.000,0.000,0.000,0.000
338.783,6,0,-0.004,-0.065,41.147,0.035,-0.084,-4.177,-0.010,-0.036,0.044,70.000,0.000,0.0118711,7852.043,7123.854,0.012,-2.524,1008.319,14.781,41.111,41.219,0.050,-0.021,0.019,0.004,-0.006,-0.034,0.000,0.000,0.000,-0.188,0.697,-0.045,0.690,0.0000000,0.0000000,41.107,0.000,0.000,0.000,0,00:00:00,0,0.000,0.000,0.000,0.000,0.000,0.000,0.000,0.000,0.000,0.000,0.000,0.000,0.000,0.000
338.884,6,0,0.000,-0.067,40.762,0.045,-0.084,-4.155,0.104,-0.031,-0.068,70.000,0.000,0.0118711,7852.043,7123.854,0.012,-2.485,1008.346,14.783,40.885,40.993,-0.059,-0.076,-0.085,-0.016,0.024,-0.018,0.000,0.000,0.000,-0.189,0.698,-0.046,0.689,0.0000000,0.0000000,40.688,0.000,0.000,0.000,0,00:00:00,0,0.000,0.000,0.000,0.000,0.000,0.000,0.000,0.000,0.000,0.000,0.000,0.000,0.000,0.000
338.985,6,0,0.004,-0.068,40.376,0.046,-0.084,-4.127,0.009,-0.041,0.025,70.000,0.000,0.0118711,7852.043,7123.854,0.012,-2.645,1008.395,14.787,40.477,40.585,0.032,-0.035,0.003,-0.028,0.016,0.014,0.000,0.000,0.000,-0.189,0.699,-0.044,0.688,0.0000000,0.0000000,40.269,0.000,0.000,0.000,0,00:00:00,0,0.000,0.000,0.000,0.000,0.000,0.000,0.000,0.000,0.000,0.000,0.000,0.000,0.000,0.000
339.086,6,0,0.008,-0.070,39.913,0.043,-0.095,-4.163,-0.026,-0.141,-0.002,70.000,0.000,0.0118711,7852.043,7123.854,0.012,-2.785,1008.510,14.787,39.518,39.626,0.027,-0.122,0.070,-0.040,0.015,-0.003,0.000,0.000,0.000,-0.191,0.699,-0.043,0.687,0.0000000,0.0000000,39.850,0.000,0.000,0.000,0,00:00:00,0,0.000,0.000,0.000,0.000,0.000,0.000,0.000,0.000,0.000,0.000,0.000,0.000,0.000,0.000
339.187,6,0,0.012,-0.071,39.504,0.056,-0.080,-4.152,0.142,0.109,0.018,70.000,0.000,0.0118711,7852.043,7123.854,0.012,-2.938,1008.516,14.792,39.468,39.576,-0.003,0.058,-0.171,-0.006,0.026,-0.011,0.000,0.000,0.000,-0.191,0.700,-0.044,0.686,0.0000000,0.0000000,39.432,0.000,0.000,0.000,0,00:00:00,0,0.000,0.000,0.000,0.000,0.000,0.000,0.000,0.000,0.000,0.000,0.000,0.000,0.000,0.000
339.288,6,0,0.015,-0.071,39.072,0.044,-0.063,-4.160,-0.110,0.136,0.021,70.000,0.000,0.0118711,7852.043,7123.854,0.012,-3.092,1008.586,14.796,38.881,38.989,-0.010,0.166,0.060,-0.035,-0.001,0.015,0.000,0.000,0.000,-0.192,0.700,-0.042,0.686,0.0000000,0.0000000,39.013,0.000,0.000,0.000,0,00:00:00,0,0.000,0.000,0.000,0.000,0.000,0.000,0.000,0.000,0.000,0.000,0.000,0.000,0.000,0.000
339.389,6,0,0.018,-0.071,38.688,0.046,-0.069,-4.149,0.026,-0.101,-0.165,70.000,0.000,0.0118711,7852.043,7123.854,0.012,-3.153,1008.595,14.797,38.808,38.916,-0.140,-0.135,0.017,0.023,0.007,-0.008,0.000,0.000,0.000,-0.191,0.701,-0.043,0.686,0.0000000,0.0000000,38.594,0.000,0.000,0.000,0,00:00:00,0,0.000,0.000,0.000,0.000,0.000,0.000,0.000,0.000,0.000,0.000,0.000,0.000,0.000,0.000
339.490,6,0,0.021,-0.071,38.277,0.050,-0.077,-4.135,0.053,-0.114,0.074,70.000,0.000,0.0118711,7852.043,7123.854,0.012,-3.150,1008.665,14.801,38.220,38.328,0.097,-0.108,-0.017,-0.010,0.026,-0.031,0.000,0.000,0.000,-0.193,0.701,-0.044,0.685,0.0000000,0.0000000,38.175,0.000,0.000,0.000,0,00:00:00,0,0.000,0.000,0.000,0.000,0.000,0.000,0.000,0.000,0.000,0.000,0.000,0.000,0.000,0.000
339.591,6,0,0.022,-0.071,37.842,0.025,-0.074,-4.141,-0.244,-0.011,0.070,70.000,0.000,0.0118711,7852.043,7123.854,0.012,-3.308,1008.736,14.801,37.626,37.734,0.068,0.084,0.230,0.012,0.008,0.045,0.000,0.000,0.000,-0.191,0.702,-0.043,0.685,0.0000000,0.0000000,37.757,0.000,0.000,0.000,0,00:00:00,0,0.000,0.000,0.000,0.000,0.000,0.000,0.000,0.000,0.000,0.000,0.000,0.000,0.000,0.000
339.692,6,0,0.022,-0.071,37.455,0.020,-0.075,-4.102,-0.031,-0.047,0.163,70.000,0.000,0.0118711,7852.043,7123.854,0.012,-3.329,1008.747,14.806,37.535,37.643,0.169,-0.000,0.036,-0.028,-0.023,0.024,0.000,0.000,0.000,-0.191,0.701,-0.041,0.686,0.0000000,0.0000000,37.338,0.000,0.000,0.000,0,00:00:00,0,0.000,0.000,0.000,0.000,0.000,0.000,0.000,0.000,0.000,0.000,0.000,0.000,0.000,0.000
339.793,6,0,0.022,-0.072,37.021,0.033,-0.089,-4.112,0.137,-0.178,0.045,70.000,0.000,0.0118711,7852.043,7123.854,0.012,-3.257,1008.836,14.809,36.791,36.899,0.084,-0.199,-0.075,-0.013,0.016,-0.003,0.000,0.000,0.000,-0.191,0.702,-0.041,0.685,0.0000000,0.0000000,36.919,0.000,0.000,0.000,0,00:00:00,0,0.000,0.000,0.000,0.000,0.000,0.000,0.000,0.000,0.000,0.000,0.000,0.000,0.000,0.000
339.894,6,0,0.023,-0.074,36.566,0.027,-0.095,-4.151,-0.041,-0.090,-0.086,70.000,0.000,0.0118711,7852.043,7123.854,0.012,-3.366,1008.905,14.810,36.214,36.323,-0.065,-0.088,0.073,-0.015,0.005,0.017,0.000,0.000,0.000,-0.191,0.702,-0.040,0.685,0.0000000,0.0000000,36.500,0.000,0.000,0.000,0,00:00:00,0,0.000,0.000,0.000,0.000,0.000,0.000,0.000,0.000,0.000,0.000,0.000,0.000,0.000,0.000
339.995,6,0,0.024,-0.075,36.173,0.044,-0.092,-4.117,0.175,-0.014,0.148,70.000,0.000,0.0118711,7852.043,7123.854,0.012,-3.420,1008.905,14.814,36.219,36.327,0.150,-0.039,-0.170,0.008,-0.008,0.009,0.000,0.000,0.000,-0.191,0.702,-0.039,0.685,0.0000000,0.0000000,36.082,0.000,0.000,0.000,0,00:00:00,0,0.000,0.000,0.000,0.000,0.000,0.000,0.000,0.000,0.000,0.000,0.000,0.000,0.000,0.000
340.096,6,0,0.026,-0.076,35.753,0.035,-0.084,-4.115,-0.070,0.038,0.048,70.000,0.000,0.0118711,7852.043,7123.854,0.012,-3.363,1008.976,14.816,35.621,35.729,0.037,0.068,0.051,0.004,-0.030,-0.014,0.000,0.000,0.000,-0.191,0.701,-0.040,0.686,0.0000000,0.0000000,35.663,0.000,0.000,0.000,0,00:00:00,0,0.000,0.000,0.000,0.000,0.000,0.000,0.000,0.000,0.000,0.000,0.000,0.000,0.000,0.000
340.197,6,0,0.026,-0.076,35.393,0.027,-0.076,-4.069,-0.070,0.038,0.048,70.000,0.000,0.0118711,7852.043,7123.854,0.012,-3.191,1008.976,14.816,35.621,35.729,0.037,0.068,0.051,0.004,-0.030,-0.014,0.000,0.000,0.000,-0.192,0.700,-0.040,0.687,0.0000000,0.0000000,35.663,0.000,0.000,0.000,0,00:00:00,0,0.000,0.000,0.000,0.000,0.000,0.000,0.000,0.000,0.000,0.000,0.000,0.000,0.000,0.000
340.298,6,0,0.026,-0.076,34.992,0.022,-0.071,-4.074,-0.035,0.010,-0.123,70.000,0.000,0.0118711,7852.043,7123.854,0.012,-3.020,1009.057,14.823,34.950,35.058,-0.123,-0.005,0.036,0.006,0.016,0.003,0.000,0.000,0.000,-0.191,0.700,-0.040,0.687,0.0000000,0.0000000,34.826,0.000,0.000,0.000,0,00:00:00,0,0.000,0.000,0.000,0.000,0.000,0.000,0.000,0.000,0.000,0.000,0.000,0.000,0.000,0.000
340.399,6,0,0.026,-0.076,34.588,0.031,-0.073,-4.076,0.098,-0.059,-0.087,70.000,0.000,0.0118711,7852.043,7123.854,0.012,-3.094,1009.107,14.824,34.531,34.639,-0.071,-0.104,-0.069,0.027,0.013,-0.013,0.000,0.000,0.000,-0.191,0.701,-0.042,0.686,0.0000000,0.0000000,34.407,0.000,0.000,0.000,0,00:00:00,0,0.000,0.000,0.000,0.000,0.000,0.000,0.000,0.000,0.000,0.000,0.000,0.000,0.000,0.000
340.500,6,0,0.026,-0.074,34.175,0.036,-0.060,-4.071,0.067,0.092,0.062,70.000,0.000,0.0118711,7852.043,7123.854,0.012,-3.114,1009.164,14.827,34.055,34.164,0.042,0.076,-0.096,-0.007,-0.002,0.011,0.000,0.000,0.000,-0.191,0.701,-0.041,0.686,0.0000000,0.0000000,33.988,0.000,0.000,0.000,0,00:00:00,0,0.000,0.000,0.000,0.000,0.000,0.000,0.000,0.000,0.000,0.000,0.000,0.000,0.000,0.000
340.601,6,0,0.027,-0.073,33.707,0.039,-0.056,-4.120,0.043,0.002,-0.063,70.000,0.000,0.0118711,7852.043,7123.854,0.012,-3.116,1009.260,14.831,33.253,33.361,-0.061,-0.025,-0.038,0.009,-0.002,0.012,0.000,0.000,0.000,-0.190,0.701,-0.041,0.687,0.0000000,0.0000000,33.570,0.000,0.000,0.000,0,00:00:00,0,0.000,0.000,0.000,0.000,0.000,0.000,0.000,0.000,0.000,0.000,0.000,0.000,0.000,0.000
340.702,6,0,0.028,-0.070,33.323,0.028,-0.043,-4.107,-0.095,0.085,-0.111,70.000,0.000,0.0118711,7852.043,7123.854,0.012,-3.090,1009.241,14.834,33.412,33.521,-0.127,0.087,0.069,0.029,-0.009,0.015,0.000,0.000,0.000,-0.188,0.700,-0.042,0.687,0.0000000,0.0000000,33.151,0.000,0.000,0.000,0,00:00:00,0,0.000,0.000,0.000,0.000,0.000,0.000,0.000,0.000,0.000,0.000,0.000,0.000,0.000,0.000
340.803,6,0,0.027,-0.067,32.993,0.017,-0.031,-4.054,-0.095,0.085,-0.111,70.000,0.000,0.0118711,7852.043,7123.854,0.012,-2.988,1009.241,14.834,33.412,33.521,-0.127,0.087,0.069,0.029,-0.009,0.015,0.000,0.000,0.000,-0.187,0.700,-0.042,0.688,0.0000000,0.0000000,33.151,0.000,0.000,0.000,0,00:00:00,0,0.000,0.000,0.000,0.000,0.000,0.000,0.000,0.000,0.000,0.000,0.000,0.000,0.000,0.000
340.904,6,0,0.026,-0.063,32.715,0.006,-0.019,-3.967,-0.095,0.084,-0.111,70.000,0.000,0.0118711,7852.043,7123.854,0.012,-2.885,1009.241,14.834,33.412,33.521,-0.127,0.087,0.069,0.029,-0.009,0.015,0.000,0.000,0.000,-0.185,0.700,-0.042,0.688,0.0000000,0.0000000,33.151,0.000,0.000,0.000,0,00:00:00,0,0.000,0.000,0.000,0.000,0.000,0.000,0.000,0.000,0.000,0.000,0.000,0.000,0.000,0.000
341.005,6,0,0.024,-0.059,32.302,0.006,-0.011,-3.973,0.013,0.049,0.028,70.000,0.000,0.0118711,7852.043,7123.854,0.012,-2.783,1009.396,14.843,32.120,32.229,0.018,0.047,-0.030,0.027,-0.001,-0.007,0.000,0.000,0.000,-0.185,0.700,-0.044,0.689,0.0000000,0.0000000,31.895,0.000,0.000,0.000,0,00:00:00,0,0.000,0.000,0.000,0.000,0.000,0.000,0.000,0.000,0.000,0.000,0.000,0.000,0.000,0.000
341.106,6,0,0.022,-0.053,31.911,0.002,0.011,-3.960,-0.030,0.194,0.056,70.000,0.000,0.0118711,7852.043,7123.854,0.012,-2.729,1009.426,14.843,31.864,31.972,0.016,0.200,-0.036,-0.016,-0.034,-0.022,0.000,0.000,0.000,-0.186,0.698,-0.044,0.690,0.0000000,0.0000000,31.477,0.000,0.000,0.000,0,00:00:00,0,0.000,0.000,0.000,0.000,0.000,0.000,0.000,0.000,0.000,0.000,0.000,0.000,0.000,0.000
341.207,6,0,0.020,-0.047,31.493,-0.007,0.015,-3.981,-0.071,0.016,-0.076,70.000,0.000,0.0118711,7852.043,7123.854,0.012,-2.574,1009.497,14.846,31.274,31.382,-0.079,0.023,0.066,-0.001,0.004,-0.010,0.000,0.000,0.000,-0.186,0.698,-0.044,0.690,0.0000000,0.0000000,31.058,0.000,0.000,0.000,0,00:00:00,0,0.000,0.000,0.000,0.000,0.000,0.000,0.000,0.000,0.000,0.000,0.000,0.000,0.000,0.000
341.308,6,0,0.017,-0.041,31.131,-0.015,0.019,-3.958,-0.071,0.016,-0.076,70.000,0.000,0.0118711,7852.043,7123.854,0.012,-2.596,1009.497,14.846,31.274,31.382,-0.079,0.023,0.066,-0.001,0.004,-0.010,0.000,0.000,0.000,-0.187,0.699,-0.044,0.689,0.0000000,0.0000000,31.058,0.000,0.000,0.000,0,00:00:00,0,0.000,0.000,0.000,0.000,0.000,0.000,0.000,0.000,0.000,0.000,0.000,0.000,0.000,0.000
341.409,6,0,0.014,-0.036,30.675,-0.009,0.003,-4.008,0.068,-0.176,-0.076,70.000,0.000,0.0118711,7852.043,7123.854,0.012,-2.617,1009.623,14.852,30.224,30.333,-0.038,-0.200,-0.005,-0.023,0.032,0.030,0.000,0.000,0.000,-0.186,0.700,-0.043,0.688,0.0000000,0.0000000,30.221,0.000,0.000,0.000,0,00:00:00,0,0.000,0.000,0.000,0.000,0.000,0.000,0.000,0.000,0.000,0.000,0.000,0.000,0.000,0.000
341.510,6,0,0.012,-0.032,30.247,-0.016,0.014,-4.012,-0.070,0.088,0.133,70.000,0.000,0.0118711,7852.043,7123.854,0.012,-2.834,1009.651,14.852,29.993,30.101,0.111,0.130,0.033,-0.029,-0.002,0.034,0.000,0.000,0.000,-0.186,0.700,-0.041,0.688,0.0000000,0.0000000,29.802,0.000,0.000,0.000,0,00:00:00,0,0.000,0.000,0.000,0.000,0.000,0.000,0.000,0.000,0.000,0.000,0.000,0.000,0.000,0.000
341.611,6,0,0.009,-0.028,29.755,-0.013,0.012,-4.088,0.042,-0.030,-0.113,70.000,0.000,0.0118711,7852.043,7123.854,0.012,-2.878,1009.756,14.857,29.115,29.223,-0.104,-0.063,-0.025,0.030,-0.025,-0.004,0.000,0.000,0.000,-0.185,0.699,-0.041,0.689,0.0000000,0.0000000,29.384,0.000,0.000,0.000,0,00:00:00,0,0.000,0.000,0.000,0.000,0.000,0.000,0.000,0.000,0.000,0.000,0.000,0.000,0.000,0.000
341.712,6,0,0.007,-0.024,29.380,-0.014,0.004,-4.047,-0.014,-0.099,0.129,70.000,0.000,0.0118711,7852.043,7123.854,0.012,-2.691,1009.709,14.861,29.504,29.612,0.146,-0.062,0.038,0.003,-0.019,0.009,0.000,0.000,0.000,-0.185,0.699,-0.041,0.690,0.0000000,0.0000000,28.965,0.000,0.000,0.000,0,00:00:00,0,0.000,0.000,0.000,0.000,0.000,0.000,0.000,0.000,0.000,0.000,0.000,0.000,0.000,0.000
341.813,6,0,0.005,-0.021,28.927,-0.007,0.021,-4.075,0.077,0.164,0.063,70.000,0.000,0.0118711,7852.043,7123.854,0.012,-2.583,1009.825,14.863,28.541,28.649,0.030,0.140,-0.126,0.003,-0.007,0.013,0.000,0.000,0.000,-0.185,0.699,-0.041,0.690,0.0000000,0.0000000,28.546,0.000,0.000,0.000,0,00:00:00,0,0.000,0.000,0.000,0.000,0.000,0.000,0.000,0.000,0.000,0.000,0.000,0.000,0.000,0.000
341.914,6,0,0.004,-0.017,28.494,-0.020,0.021,-4.086,-0.129,-0.016,0.037,70.000,0.000,0.0118711,7852.043,7123.854,0.012,-2.538,1009.859,14.864,28.257,28.365,0.036,0.033,0.126,-0.011,-0.063,0.013,0.000,0.000,0.000,-0.185,0.697,-0.039,0.692,0.0000000,0.0000000,28.128,0.000,0.000,0.000,0,00:00:00,0,0.000,0.000,0.000,0.000,0.000,0.000,0.000,0.000,0.000,0.000,0.000,0.000,0.000,0.000
342.015,6,0,0.001,-0.013,28.015,-0.024,0.036,-4.132,-0.037,0.149,0.041,70.000,0.000,0.0118711,7852.043,7123.854,0.012,-2.217,1009.949,14.868,27.499,27.608,0.009,0.158,-0.013,0.023,0.008,-0.006,0.000,0.000,0.000,-0.184,0.697,-0.040,0.692,0.0000000,0.0000000,27.709,0.000,0.000,0.000,0,00:00:00,0,0.000,0.000,0.000,0.000,0.000,0.000,0.000,0.000,0.000,0.000,0.000,0.000,0.000,0.000
342.116,6,0,-0.002,-0.008,27.579,-0.044,0.046,-4.152,-0.194,0.089,-0.064,70.000,0.000,0.0118711,7852.043,7123.854,0.012,-2.223,1009.966,14.871,27.360,27.469,-0.086,0.130,0.159,-0.005,-0.039,-0.003,0.000,0.000,0.000,-0.184,0.695,-0.040,0.693,0.0000000,0.0000000,27.291,0.000,0.000,0.000,0,00:00:00,0,0.000,0.000,0.000,0.000,0.000,0.000,0.000,0.000,0.000,0.000,0.000,0.000,0.000,0.000
342.217,6,0,-0.006,-0.003,27.180,-0.049,0.048,-4.132,-0.060,0.027,0.047,70.000,0.000,0.0118711,7852.043,7123.854,0.012,-2.019,1009.986,14.875,27.193,27.302,0.039,0.053,0.047,-0.013,-0.018,-0.001,0.000,0.000,0.000,-0.185,0.695,-0.039,0.694,0.0000000,0.0000000,26.872,0.000,0.000,0.000,0,00:00:00,0,0.000,0.000,0.000,0.000,0.000,0.000,0.000,0.000,0.000,0.000,0.000,0.000,0.000,0.000
342.318,6,0,-0.009,0.002,26.686,-0.032,0.043,-4.204,0.168,-0.055,-0.149,70.000,0.000,0.0118711,7852.043,7123.854,0.012,-1.945,1010.115,14.877,26.114,26.223,-0.130,-0.134,-0.138,0.014,-0.019,-0.011,0.000,0.000,0.000,-0.185,0.694,-0.040,0.695,0.0000000,0.0000000,26.454,0.000,0.000,0.000,0,00:00:00,0,0.000,0.000,0.000,0.000,0.000,0.000,0.000,0.000,0.000,0.000,0.000,0.000,0.000,0.000
342.419,6,0,-0.011,0.006,26.276,-0.023,0.055,-4.217,0.084,0.125,-0.240,70.000,0.000,0.0118711,7852.043,7123.854,0.012,-1.813,1010.098,14.880,26.260,26.368,-0.257,0.041,-0.112,-0.022,-0.007,-0.000,0.000,0.000,0.000,-0.186,0.694,-0.039,0.695,0.0000000,0.0000000,26.035,0.000,0.000,0.000,0,00:00:00,0,0.000,0.000,0.000,0.000,0.000,0.000,0.000,0.000,0.000,0.000,0.000,0.000,0.000,0.000
342.520,6,0,-0.011,0.010,25.770,-0.015,0.044,-4.267,0.066,-0.109,0.102,70.000,0.000,0.0118711,7852.043,7123.854,0.012,-1.817,1010.229,14.881,25.166,25.275,0.124,-0.101,-0.032,0.017,-0.015,0.015,0.000,0.000,0.000,-0.185,0.693,-0.039,0.695,0.0000000,0.0000000,25.617,0.000,0.000,0.000,0,00:00:00,0,0.000,0.000,0.000,0.000,0.000,0.000,0.000,0.000,0.000,0.000,0.000,0.000,0.000,0.000
342.621,6,0,-0.012,0.013,25.370,-0.025,0.039,-4.228,-0.100,-0.036,0.162,70.000,0.000,0.0118711,7852.043,7123.854,0.013,-1.702,1010.195,14.884,25.449,25.557,0.163,0.030,0.101,-0.000,0.037,0.006,0.000,0.000,0.000,-0.184,0.695,-0.039,0.694,0.0000000,0.0000000,25.198,0.000,0.000,0.000,0,00:00:00,0,0.000,0.000,0.000,0.000,0.000,0.000,0.000,0.000,0.000,0.000,0.000,0.000,0.000,0.000
342.722,6,0,-0.013,0.015,24.955,-0.020,0.041,-4.221,0.042,0.026,-0.021,70.000,0.000,0.0118711,7852.043,7123.854,0.012,-1.904,1010.258,14.886,24.923,25.031,-0.025,0.007,-0.047,-0.012,0.035,-0.017,0.000,0.000,0.000,-0.185,0.696,-0.040,0.693,0.0000000,0.0000000,24.780,0.000,0.000,0.000,0,00:00:00,0,0.000,0.000,0.000,0.000,0.000,0.000,0.000,0.000,0.000,0.000,0.000,0.000,0.000,0.000
342.823,6,0,-0.015,0.017,24.542,-0.040,0.035,-4.217,-0.203,-0.056,-0.064,70.000,0.000,0.0118711,7852.043,7123.854,0.012,-2.115,1010.307,14.888,24.514,24.622,-0.057,-0.002,0.212,0.022,0.007,0.013,0.000,0.000,0.000,-0.184,0.696,-0.040,0.693,0.0000000,0.0000000,24.361,0.000,0.000,0.000,0,00:00:00,0,0.000,0.000,0.000,0.000,0.000,0.000,0.000,0.000,0.000,0.000,0.000,0.000,0.000,0.000
342.924,6,0,-0.018,0.019,24.124,-0.062,0.033,-4.212,-0.227,-0.007,-0.005,70.000,0.000,0.0118711,7852.043,7123.854,0.012,-2.113,1010.361,14.893,24.068,24.176,-0.010,0.064,0.217,-0.004,-0.029,-0.031,0.000,0.000,0.000,-0.185,0.695,-0.041,0.694,0.0000000,0.0000000,23.943,0.000,0.000,0.000,0,00:00:00,0,0.000,0.000,0.000,0.000,0.000,0.000,0.000,0.000,0.000,0.000,0.000,0.000,0.000,0.000
343.025,6,0,-0.023,0.020,23.688,-0.076,0.039,-4.217,-0.158,0.076,0.032,70.000,0.000,0.0118711,7852.043,7123.854,0.012,-1.962,1010.428,14.896,23.512,23.620,0.010,0.126,0.125,-0.018,-0.030,-0.010,0.000,0.000,0.000,-0.186,0.694,-0.040,0.695,0.0000000,0.0000000,23.524,0.000,0.000,0.000,0,00:00:00,0,0.000,0.000,0.000,0.000,0.000,0.000,0.000,0.000,0.000,0.000,0.000,0.000,0.000,0.000
343.126,6,0,-0.028,0.022,23.312,-0.091,0.046,-4.176,-0.158,0.075,0.032,70.000,0.000,0.0118711,7852.043,7123.854,0.012,-1.829,1010.428,14.896,23.512,23.620,0.010,0.126,0.125,-0.018,-0.030,-0.010,0.000,0.000,0.000,-0.187,0.693,-0.040,0.695,0.0000000,0.0000000,23.524,0.000,0.000,0.000,0,00:00:00,0,0.000,0.000,0.000,0.000,0.000,0.000,0.000,0.000,0.000,0.000,0.000,0.000,0.000,0.000
343.227,6,0,-0.034,0.024,22.881,-0.093,0.040,-4.170,-0.034,-0.049,0.135,70.000,0.000,0.0118711,7852.043,7123.854,0.012,-1.696,1010.524,14.903,22.708,22.816,0.140,-0.008,0.044,0.030,0.016,-0.026,0.000,0.000,0.000,-0.187,0.693,-0.042,0.695,0.0000000,0.0000000,22.688,0.000,0.000,0.000,0,00:00:00,0,0.000,0.000,0.000,0.000,0.000,0.000,0.000,0.000,0.000,0.000,0.000,0.000,0.000,0.000
343.328,6,0,-0.039,0.025,22.423,-0.092,0.026,-4.189,-0.015,-0.125,0.085,70.000,0.000,0.0118711,7852.043,7123.854,0.012,-1.727,1010.598,14.903,22.090,22.199,0.108,-0.094,0.052,-0.004,0.018,-0.002,0.000,0.000,0.000,-0.187,0.693,-0.042,0.694,0.0000000,0.0000000,22.269,0.000,0.000,0.000,0,00:00:00,0,0.000,0.000,0.000,0.000,0.000,0.000,0.000,0.000,0.000,0.000,0.000,0.000,0.000,0.000
343.429,6,0,-0.044,0.024,22.048,-0.088,0.019,-4.149,0.021,-0.057,0.042,70.000,0.000,0.0118711,7852.043,7123.854,0.012,-1.832,1010.581,14.907,22.234,22.342,0.053,-0.051,-0.004,-0.004,0.007,0.041,0.000,0.000,0.000,-0.186,0.694,-0.040,0.694,0.0000000,0.0000000,21.851,0.000,0.000,0.000,0,00:00:00,0,0.000,0.000,0.000,0.000,0.000,0.000,0.000,0.000,0.000,0.000,0.000,0.000,0.000,0.000
343.530,6,0,-0.048,0.024,21.652,-0.086,0.021,-4.118,-0.012,0.038,0.144,70.000,0.000,0.0118711,7852.043,7123.854,0.012,-1.878,1010.647,14.908,21.680,21.788,0.133,0.068,-0.005,0.007,0.002,0.009,0.000,0.000,0.000,-0.186,0.694,-0.040,0.694,0.0000000,0.0000000,21.432,0.000,0.000,0.000,0,00:00:00,0,0.000,0.000,0.000,0.000,0.000,0.000,0.000,0.000,0.000,0.000,0.000,0.000,0.000,0.000
343.631,6,0,-0.051,0.024,21.204,-0.089,0.035,-4.152,-0.056,0.149,-0.107,70.000,0.000,0.0118711,7852.043,7123.854,0.012,-1.874,1010.740,14.911,20.904,21.012,-0.137,0.135,0.010,0.027,-0.016,0.026,0.000,0.000,0.000,-0.184,0.694,-0.040,0.695,0.0000000,0.0000000,21.014,0.000,0.000,0.000,0,00:00:00,0,0.000,0.000,0.000,0.000,0.000,0.000,0.000,0.000,0.000,0.000,0.000,0.000,0.000,0.000
343.732,6,0,-0.054,0.025,20.773,-0.089,0.032,-4.164,-0.029,-0.011,-0.034,70.000,0.000,0.0118711,7852.043,7123.854,0.012,-1.742,1010.777,14.916,20.594,20.702,-0.032,-0.008,0.032,-0.018,0.002,-0.005,0.000,0.000,0.000,-0.185,0.694,-0.040,0.695,0.0000000,0.0000000,20.595,0.000,0.000,0.000,0,00:00:00,0,0.000,0.000,0.000,0.000,0.000,0.000,0.000,0.000,0.000,0.000,0.000,0.000,0.000,0.000
343.833,6,0,-0.057,0.026,20.345,-0.089,0.027,-4.171,-0.028,-0.036,-0.011,70.000,0.000,0.0118711,7852.043,7123.854,0.012,-1.785,1010.826,14.916,20.192,20.300,-0.004,-0.027,0.038,-0.013,-0.030,0.005,0.000,0.000,0.000,-0.185,0.693,-0.039,0.696,0.0000000,0.0000000,20.177,0.000,0.000,0.000,0,00:00:00,0,0.000,0.000,0.000,0.000,0.000,0.000,0.000,0.000,0.000,0.000,0.000,0.000,0.000,0.000
343.934,6,0,-0.060,0.025,19.977,-0.089,0.022,-4.133,-0.028,-0.036,-0.011,70.000,0.000,0.0118711,7852.043,7123.854,0.012,-1.643,1010.826,14.916,20.192,20.300,-0.004,-0.027,0.038,-0.013,-0.030,0.005,0.000,0.000,0.000,-0.185,0.692,-0.038,0.697,0.0000000,0.0000000,20.177,0.000,0.000,0.000,0,00:00:00,0,0.000,0.000,0.000,0.000,0.000,0.000,0.000,0.000,0.000,0.000,0.000,0.000,0.000,0.000
344.035,6,0,-0.062,0.026,19.549,-0.084,0.034,-4.146,0.008,0.123,-0.063,70.000,0.000,0.0118711,7852.043,7123.854,0.012,-1.501,1010.923,14.923,19.384,19.492,-0.086,0.099,-0.044,-0.010,0.015,0.003,0.000,0.000,0.000,-0.185,0.693,-0.038,0.696,0.0000000,0.0000000,19.340,0.000,0.000,0.000,0,00:00:00,0,0.000,0.000,0.000,0.000,0.000,0.000,0.000,0.000,0.000,0.000,0.000,0.000,0.000,0.000
344.136,6,0,-0.065,0.026,19.165,-0.102,0.026,-4.112,-0.208,-0.059,0.089,70.000,0.000,0.0118711,7852.043,7123.854,0.012,-1.599,1010.937,14.926,19.262,19.370,0.091,0.028,0.214,-0.024,-0.001,-0.029,0.000,0.000,0.000,-0.187,0.692,-0.038,0.696,0.0000000,0.0000000,18.922,0.000,0.000,0.000,0,00:00:00,0,0.000,0.000,0.000,0.000,0.000,0.000,0.000,0.000,0.000,0.000,0.000,0.000,0.000,0.000
344.237,6,0,-0.068,0.026,18.754,-0.101,0.023,-4.108,-0.026,-0.020,0.006,70.000,0.000,0.0118711,7852.043,7123.854,0.012,-1.635,1011.008,14.927,18.676,18.784,0.009,-0.009,0.031,0.013,-0.031,0.001,0.000,0.000,0.000,-0.187,0.691,-0.038,0.697,0.0000000,0.0000000,18.504,0.000,0.000,0.000,0,00:00:00,0,0.000,0.000,0.000,0.000,0.000,0.000,0.000,0.000,0.000,0.000,0.000,0.000,0.000,0.000
344.338,6,0,-0.071,0.025,18.369,-0.098,0.018,-4.082,-0.008,-0.036,0.040,70.000,0.000,0.0118711,7852.043,7123.854,0.012,-1.445,1011.036,14.931,18.438,18.546,0.046,-0.023,0.018,-0.005,-0.016,-0.020,0.000,0.000,0.000,-0.188,0.690,-0.038,0.698,0.0000000,0.0000000,18.085,0.000,0.000,0.000,0,00:00:00,0,0.000,0.000,0.000,0.000,0.000,0.000,0.000,0.000,0.000,0.000,0.000,0.000,0.000,0.000
344.439,6,0,-0.074,0.024,17.952,-0.102,0.015,-4.085,-0.079,-0.015,0.007,70.000,0.000,0.0118711,7852.043,7123.854,0.012,-1.366,1011.110,14.935,17.818,17.926,0.007,0.013,0.080,0.000,0.005,-0.018,0.000,0.000,0.000,-0.188,0.690,-0.039,0.697,0.0000000,0.0000000,17.667,0.000,0.000,0.000,0,00:00:00,0,0.000,0.000,0.000,0.000,0.000,0.000,0.000,0.000,0.000,0.000,0.000,0.000,0.000,0.000
344.540,6,0,-0.075,0.023,17.537,-0.086,0.012,-4.092,0.119,-0.017,-0.056,70.000,0.000,0.0118711,7852.043,7123.854,0.012,-1.392,1011.159,14.939,17.414,17.522,-0.046,-0.065,-0.106,0.006,-0.012,-0.013,0.000,0.000,0.000,-0.189,0.690,-0.040,0.698,0.0000000,0.0000000,17.249,0.000,0.000,0.000,0,00:00:00,0,0.000,0.000,0.000,0.000,0.000,0.000,0.000,0.000,0.000,0.000,0.000,0.000,0.000,0.000
344.641,6,0,-0.076,0.023,17.076,-0.092,0.023,-4.125,-0.101,0.125,0.024,70.000,0.000,0.0118711,7852.043,7123.854,0.012,-1.319,1011.247,14.939,16.677,16.785,-0.006,0.152,0.056,-0.003,0.000,0.004,0.000,0.000,0.000,-0.188,0.690,-0.039,0.698,0.0000000,0.0000000,16.830,0.000,0.000,0.000,0,00:00:00,0,0.000,0.000,0.000,0.000,0.000,0.000,0.000,0.000,0.000,0.000,0.000,0.000,0.000,0.000
344.742,6,0,-0.077,0.023,16.659,-0.083,0.022,-4.121,0.049,-0.004,0.051,70.000,0.000,0.0118711,7852.043,7123.854,0.012,-1.327,1011.263,14.941,16.544,16.652,0.053,-0.008,-0.046,0.004,0.002,0.029,0.000,0.000,0.000,-0.187,0.690,-0.038,0.698,0.0000000,0.0000000,16.412,0.000,0.000,0.000,0,00:00:00,0,0.000,0.000,0.000,0.000,0.000,0.000,0.000,0.000,0.000,0.000,0.000,0.000,0.000,0.000
344.843,6,0,-0.077,0.022,16.232,-0.080,0.019,-4.137,-0.010,-0.015,-0.091,70.000,0.000,0.0118711,7852.043,7123.854,0.012,-1.328,1011.321,14.946,16.061,16.169,-0.086,-0.030,0.017,0.000,0.013,0.024,0.000,0.000,0.000,-0.186,0.691,-0.038,0.697,0.0000000,0.0000000,15.994,0.000,0.000,0.000,0,00:00:00,0,0.000,0.000,0.000,0.000,0.000,0.000,0.000,0.000,0.000,0.000,0.000,0.000,0.000,0.000
344.944,6,0,-0.077,0.022,15.801,-0.067,0.018,-4.141,0.094,-0.001,0.064,70.000,0.000,0.0118711,7852.043,7123.854,0.012,-1.399,1011.376,14.947,15.609,15.717,0.067,-0.016,-0.090,-0.025,-0.007,0.024,0.000,0.000,0.000,-0.187,0.691,-0.036,0.697,0.0000000,0.0000000,15.575,0.000,0.000,0.000,0,00:00:00,0,0.000,0.000,0.000,0.000,0.000,0.000,0.000,0.000,0.000,0.000,0.000,0.000,0.000,0.000
345.045,6,0,-0.075,0.022,15.390,-0.056,0.021,-4.145,0.066,0.045,-0.098,70.000,0.000,0.0118711,7852.043,7123.854,0.012,-1.406,1011.408,14.952,15.335,15.443,-0.103,0.001,-0.074,0.003,-0.007,-0.002,0.000,0.000,0.000,-0.187,0.691,-0.036,0.698,0.0000000,0.0000000,15.157,0.000,0.000,0.000,0,00:00:00,0,0.000,0.000,0.000,0.000,0.000,0.000,0.000,0.000,0.000,0.000,0.000,0.000,0.000,0.000
345.146,6,0,-0.074,0.022,14.955,-0.060,0.024,-4.162,-0.076,0.033,-0.047,70.000,0.000,0.0118711,7852.043,7123.854,0.012,-1.362,1011.479,14.953,14.748,14.856,-0.056,0.044,0.063,0.011,0.008,0.027,0.000,0.000,0.000,-0.185,0.691,-0.036,0.698,0.0000000,0.0000000,14.739,0.000,0.000,0.000,0,00:00:00,0,0.000,0.000,0.000,0.000,0.000,0.000,0.000,0.000,0.000,0.000,0.000,0.000,0.000,0.000
345.247,6,0,-0.072,0.022,14.536,-0.055,0.023,-4.146,0.008,0.008,0.155,70.000,0.000,0.0118711,7852.043,7123.854,0.012,-1.386,1011.517,14.957,14.426,14.534,0.150,0.038,-0.014,-0.033,0.002,0.022,0.000,0.000,0.000,-0.186,0.692,-0.034,0.697,0.0000000,0.0000000,14.321,0.000,0.000,0.000,0,00:00:00,0,0.000,0.000,0.000,0.000,0.000,0.000,0.000,0.000,0.000,0.000,0.000,0.000,0.000,0.000
345.348,6,0,-0.070,0.022,14.051,-0.048,0.017,-4.195,0.031,-0.049,0.007,70.000,0.000,0.0118711,7852.043,7123.854,0.012,-1.456,1011.624,14.959,13.538,13.646,0.018,-0.053,-0.014,0.032,0.006,-0.022,0.000,0.000,0.000,-0.185,0.691,-0.036,0.697,0.0000000,0.0000000,13.902,0.000,0.000,0.000,0,00:00:00,0,0.000,0.000,0.000,0.000,0.000,0.000,0.000,0.000,0.000,0.000,0.000,0.000,0.000,0.000
345.449,6,0,-0.068,0.022,13.617,-0.047,0.033,-4.196,-0.024,0.171,0.068,70.000,0.000,0.0118711,7852.043,7123.854,0.012,-1.430,1011.635,14.961,13.446,13.554,0.031,0.181,-0.031,0.038,-0.028,0.002,0.000,0.000,0.000,-0.184,0.690,-0.037,0.699,0.0000000,0.0000000,13.484,0.000,0.000,0.000,0,00:00:00,0,0.000,0.000,0.000,0.000,0.000,0.000,0.000,0.000,0.000,0.000,0.000,0.000,0.000,0.000
345.550,6,0,-0.065,0.023,13.192,-0.033,0.041,-4.199,0.108,0.089,-0.029,70.000,0.000,0.0118711,7852.043,7123.854,0.012,-1.210,1011.679,14.965,13.077,13.185,-0.042,0.043,-0.130,-0.018,0.024,-0.007,0.000,0.000,0.000,-0.185,0.691,-0.036,0.698,0.0000000,0.0000000,13.066,0.000,0.000,0.000,0,00:00:00,0,0.000,0.000,0.000,0.000,0.000,0.000,0.000,0.000,0.000,0.000,0.000,0.000,0.000,0.000
345.651,6,0,-0.061,0.025,12.826,-0.019,0.049,-4.159,0.108,0.089,-0.029,70.000,0.000,0.0118711,7852.043,7123.854,0.012,-1.372,1011.679,14.965,13.077,13.185,-0.042,0.043,-0.130,-0.018,0.024,-0.007,0.000,0.000,0.000,-0.186,0.692,-0.036,0.697,0.0000000,0.0000000,13.066,0.000,0.000,0.000,0,00:00:00,0,0.000,0.000,0.000,0.000,0.000,0.000,0.000,0.000,0.000,0.000,0.000,0.000,0.000,0.000
345.752,6,0,-0.057,0.027,12.412,-0.006,0.037,-4.146,0.093,-0.105,0.082,70.000,0.000,0.0118711,7852.043,7123.854,0.012,-1.533,1011.768,14.968,12.337,12.445,0.105,-0.109,-0.058,0.015,-0.015,-0.001,0.000,0.000,0.000,-0.185,0.691,-0.037,0.697,0.0000000,0.0000000,12.229,0.000,0.000,0.000,0,00:00:00,0,0.000,0.000,0.000,0.000,0.000,0.000,0.000,0.000,0.000,0.000,0.000,0.000,0.000,0.000
345.853,6,0,-0.052,0.027,11.970,-0.002,0.014,-4.156,0.015,-0.210,0.076,70.000,0.000,0.0118711,7852.043,7123.854,0.012,-1.422,1011.843,14.972,11.716,11.825,0.118,-0.184,0.048,-0.000,-0.018,0.024,0.000,0.000,0.000,-0.184,0.691,-0.036,0.698,0.0000000,0.0000000,11.811,0.000,0.000,0.000,0,00:00:00,0,0.000,0.000,0.000,0.000,0.000,0.000,0.000,0.000,0.000,0.000,0.000,0.000,0.000,0.000
345.954,6,0,-0.047,0.025,11.576,-0.005,-0.002,-4.127,-0.056,-0.149,0.104,70.000,0.000,0.0118711,7852.043,7123.854,0.012,-1.323,1011.854,14.976,11.620,11.728,0.130,-0.100,0.097,0.017,0.036,-0.040,0.000,0.000,0.000,-0.185,0.692,-0.038,0.697,0.0000000,0.0000000,11.393,0.000,0.000,0.000,0,00:00:00,0,0.000,0.000,0.000,0.000,0.000,0.000,0.000,0.000,0.000,0.000,0.000,0.000,0.000,0.000
346.055,6,0,-0.043,0.022,11.186,0.007,-0.001,-4.108,0.092,0.021,-0.007,70.000,0.000,0.0118711,7852.043,7123.854,0.012,-1.488,1011.899,14.978,11.245,11.353,-0.008,-0.010,-0.094,0.010,-0.024,0.032,0.000,0.000,0.000,-0.184,0.691,-0.037,0.698,0.0000000,0.0000000,10.975,0.000,0.000,0.000,0,00:00:00,0,0.000,0.000,0.000,0.000,0.000,0.000,0.000,0.000,0.000,0.000,0.000,0.000,0.000,0.000
346.156,6,0,-0.038,0.020,10.761,0.017,-0.001,-4.113,0.083,0.016,0.019,70.000,0.000,0.0118711,7852.043,7123.854,0.012,-1.338,1011.977,14.980,10.594,10.702,0.019,-0.007,-0.084,0.006,-0.031,-0.011,0.000,0.000,0.000,-0.184,0.690,-0.037,0.699,0.0000000,0.0000000,10.556,0.000,0.000,0.000,0,00:00:00,0,0.000,0.000,0.000,0.000,0.000,0.000,0.000,0.000,0.000,0.000,0.000,0.000,0.000,0.000
346.257,6,0,-0.033,0.018,10.389,0.015,-0.008,-4.100,-0.040,-0.057,-0.196,70.000,0.000,0.0118711,7852.043,7123.854,0.012,-1.156,1011.983,14.983,10.549,10.657,-0.182,-0.081,0.060,0.006,0.031,-0.043,0.000,0.000,0.000,-0.185,0.691,-0.039,0.698,0.0000000,0.0000000,10.138,0.000,0.000,0.000,0,00:00:00,0,0.000,0.000,0.000,0.000,0.000,0.000,0.000,0.000,0.000,0.000,0.000,0.000,0.000,0.000
346.358,6,0,-0.028,0.016,9.939,0.010,0.002,-4.120,-0.065,0.108,0.070,70.000,0.000,0.0118711,7852.043,7123.854,0.012,-1.313,1012.095,14.983,9.611,9.719,0.044,0.135,0.026,-0.011,0.011,-0.017,0.000,0.000,0.000,-0.186,0.691,-0.040,0.697,0.0000000,0.0000000,9.720,0.000,0.000,0.000,0,00:00:00,0,0.000,0.000,0.000,0.000,0.000,0.000,0.000,0.000,0.000,0.000,0.000,0.000,0.000,0.000
346.459,6,0,-0.025,0.015,9.551,0.004,0.013,-4.092,-0.065,0.108,0.070,70.000,0.000,0.0118711,7852.043,7123.854,0.012,-1.394,1012.095,14.983,9.611,9.719,0.044,0.135,0.026,-0.011,0.011,-0.017,0.000,0.000,0.000,-0.187,0.691,-0.040,0.697,0.0000000,0.0000000,9.720,0.000,0.000,0.000,0,00:00:00,0,0.000,0.000,0.000,0.000,0.000,0.000,0.000,0.000,0.000,0.000,0.000,0.000,0.000,0.000
346.560,6,0,-0.023,0.015,9.142,-0.003,0.015,-4.078,-0.089,0.034,0.109,70.000,0.000,0.0118711,7852.043,7123.854,0.012,-1.474,1012.162,14.991,9.059,9.167,0.096,0.081,0.071,0.017,-0.023,-0.001,0.000,0.000,0.000,-0.186,0.690,-0.040,0.698,0.0000000,0.0000000,8.884,0.000,0.000,0.000,0,00:00:00,0,0.000,0.000,0.000,0.000,0.000,0.000,0.000,0.000,0.000,0.000,0.000,0.000,0.000,0.000
346.661,6,0,-0.022,0.015,8.690,-0.023,0.027,-4.106,-0.207,0.128,0.021,70.000,0.000,0.0118711,7852.043,7123.854,0.012,-1.319,1012.249,14.994,8.335,8.443,-0.014,0.188,0.155,0.019,-0.002,0.006,0.000,0.000,0.000,-0.186,0.690,-0.041,0.698,0.0000000,0.0000000,8.466,0.000,0.000,0.000,0,00:00:00,0,0.000,0.000,0.000,0.000,0.000,0.000,0.000,0.000,0.000,0.000,0.000,0.000,0.000,0.000
346.762,6,0,-0.022,0.017,8.238,-0.030,0.036,-4.143,-0.081,0.099,-0.092,70.000,0.000,0.0118711,7852.043,7123.854,0.012,-1.276,1012.300,14.997,7.905,8.013,-0.114,0.099,0.048,-0.024,0.005,-0.035,0.000,0.000,0.000,-0.188,0.690,-0.041,0.698,0.0000000,0.0000000,8.047,0.000,0.000,0.000,0,00:00:00,0,0.000,0.000,0.000,0.000,0.000,0.000,0.000,0.000,0.000,0.000,0.000,0.000,0.000,0.000
346.863,6,0,-0.023,0.019,7.766,-0.023,0.042,-4.155,0.058,0.068,0.289,70.000,0.000,0.0118711,7852.043,7123.854,0.012,-1.346,1012.370,14.999,7.321,7.429,0.271,0.104,-0.084,-0.009,0.023,0.006,0.000,0.000,0.000,-0.188,0.691,-0.041,0.697,0.0000000,0.0000000,7.629,0.000,0.000,0.000,0,00:00:00,0,0.000,0.000,0.000,0.000,0.000,0.000,0.000,0.000,0.000,0.000,0.000,0.000,0.000,0.000
346.964,6,0,-0.023,0.021,7.364,-0.025,0.034,-4.156,-0.028,-0.069,-0.144,70.000,0.000,0.0118711,7852.043,7123.854,0.012,-1.487,1012.365,15.004,7.365,7.473,-0.128,-0.084,0.052,0.005,0.026,-0.035,0.000,0.000,0.000,-0.189,0.692,-0.043,0.696,0.0000000,0.0000000,7.211,0.000,0.000,0.000,0,00:00:00,0,0.000,0.000,0.000,0.000,0.000,0.000,0.000,0.000,0.000,0.000,0.000,0.000,0.000,0.000
347.065,6,0,-0.023,0.023,6.959,-0.038,0.054,-4.159,-0.148,0.205,-0.142,70.000,0.000,0.0118711,7852.043,7123.854,0.012,-1.617,1012.416,15.008,6.946,7.054,-0.187,0.208,0.079,-0.013,-0.025,0.019,0.000,0.000,0.000,-0.189,0.691,-0.041,0.697,0.0000000,0.0000000,6.793,0.000,0.000,0.000,0,00:00:00,0,0.000,0.000,0.000,0.000,0.000,0.000,0.000,0.000,0.000,0.000,0.000,0.000,0.000,0.000
347.166,6,0,-0.025,0.026,6.575,-0.036,0.059,-4.138,0.011,0.064,-0.068,70.000,0.000,0.0118711,7852.043,7123.854,0.012,-1.506,1012.446,15.007,6.693,6.801,-0.079,0.042,-0.029,-0.009,-0.021,-0.021,0.000,0.000,0.000,-0.190,0.690,-0.041,0.697,0.0000000,0.0000000,6.375,0.000,0.000,0.000,0,00:00:00,0,0.000,0.000,0.000,0.000,0.000,0.000,0.000,0.000,0.000,0.000,0.000,0.000,0.000,0.000
347.267,6,0,-0.026,0.028,6.155,-0.038,0.044,-4.147,-0.032,-0.134,-0.076,70.000,0.000,0.0118711,7852.043,7123.854,0.012,-1.407,1012.525,15.011,6.038,6.146,-0.048,-0.130,0.075,-0.036,-0.023,0.026,0.000,0.000,0.000,-0.190,0.690,-0.039,0.698,0.0000000,0.0000000,5.957,0.000,0.000,0.000,0,00:00:00,0,0.000,0.000,0.000,0.000,0.000,0.000,0.000,0.000,0.000,0.000,0.000,0.000,0.000,0.000
347.368,6,0,-0.026,0.029,5.723,-0.026,0.038,-4.166,0.110,-0.041,-0.086,70.000,0.000,0.0118711,7852.043,7123.854,0.012,-1.345,1012.585,15.013,5.533,5.641,-0.071,-0.091,-0.088,0.012,0.039,-0.032,0.000,0.000,0.000,-0.191,0.691,-0.041,0.696,0.0000000,0.0000000,5.539,0.000,0.000,0.000,0,00:00:00,0,0.000,0.000,0.000,0.000,0.000,0.000,0.000,0.000,0.000,0.000,0.000,0.000,0.000,0.000
347.469,6,0,-0.026,0.030,5.226,-0.029,0.040,-4.212,-0.044,0.034,0.106,70.000,0.000,0.0118711,7852.043,7123.854,0.012,-1.537,1012.692,15.017,4.648,4.756,0.095,0.068,0.028,0.020,0.020,0.013,0.000,0.000,0.000,-0.190,0.691,-0.041,0.696,0.0000000,0.0000000,5.121,0.000,0.000,0.000,0,00:00:00,0,0.000,0.000,0.000,0.000,0.000,0.000,0.000,0.000,0.000,0.000,0.000,0.000,0.000,0.000
347.570,6,0,-0.026,0.031,4.768,-0.031,0.044,-4.242,-0.037,0.054,-0.051,70.000,0.000,0.0118711,7852.043,7123.854,0.012,-1.612,1012.714,15.021,4.460,4.568,-0.063,0.051,0.019,-0.027,-0.002,-0.016,0.000,0.000,0.000,-0.191,0.691,-0.041,0.696,0.0000000,0.0000000,4.703,0.000,0.000,0.000,0,00:00:00,0,0.000,0.000,0.000,0.000,0.000,0.000,0.000,0.000,0.000,0.000,0.000,0.000,0.000,0.000
347.671,6,0,-0.026,0.032,4.336,-0.024,0.047,-4.240,0.056,0.045,0.041,70.000,0.000,0.0118711,7852.043,7123.854,0.012,-1.650,1012.744,15.021,4.208,4.316,0.033,0.032,-0.069,-0.011,0.031,0.029,0.000,0.000,0.000,-0.190,0.693,-0.040,0.695,0.0000000,0.0000000,4.285,0.000,0.000,0.000,0,00:00:00,0,0.000,0.000,0.000,0.000,0.000,0.000,0.000,0.000,0.000,0.000,0.000,0.000,0.000,0.000
347.772,6,0,-0.026,0.032,3.892,-0.011,0.024,-4.252,0.111,-0.206,-0.001,70.000,0.000,0.0118711,7852.043,7123.854,0.012,-1.841,1012.807,15.026,3.689,3.797,0.046,-0.226,-0.039,0.013,0.031,-0.037,0.000,0.000,0.000,-0.191,0.693,-0.042,0.693,0.0000000,0.0000000,3.867,0.000,0.000,0.000,0,00:00:00,0,0.000,0.000,0.000,0.000,0.000,0.000,0.000,0.000,0.000,0.000,0.000,0.000,0.000,0.000
347.873,6,0,-0.024,0.031,3.479,-0.002,0.018,-4.250,0.080,-0.048,-0.108,70.000,0.000,0.0118711,7852.043,7123.854,0.013,-1.984,1012.832,15.027,3.475,3.584,-0.093,-0.093,-0.057,0.016,-0.045,0.022,0.000,0.000,0.000,-0.190,0.692,-0.041,0.695,0.0000000,0.0000000,3.448,0.000,0.000,0.000,0,00:00:00,0,0.000,0.000,0.000,0.000,0.000,0.000,0.000,0.000,0.000,0.000,0.000,0.000,0.000,0.000
347.974,6,0,-0.022,0.029,3.065,-0.002,0.004,-4.244,-0.015,-0.119,-0.050,70.000,0.000,0.0118711,7852.043,7123.854,0.013,-1.712,1012.884,15.032,3.049,3.157,-0.024,-0.115,0.054,-0.060,0.028,-0.029,0.000,0.000,0.000,-0.193,0.693,-0.040,0.694,0.0000000,0.0000000,3.030,0.000,0.000,0.000,0,00:00:00,0,0.000,0.000,0.000,0.000,0.000,0.000,0.000,0.000,0.000,0.000,0.000,0.000,0.000,0.000
348.075,6,0,-0.019,0.027,2.679,0.012,0.013,-4.211,0.131,0.100,0.006,70.000,0.000,0.0118711,7852.043,7123.854,0.012,-1.978,1012.910,15.033,2.831,2.939,-0.010,0.052,-0.157,0.031,-0.032,0.020,0.000,0.000,0.000,-0.191,0.692,-0.041,0.695,0.0000000,0.0000000,2.612,0.000,0.000,0.000,0,00:00:00,0,0.000,0.000,0.000,0.000,0.000,0.000,0.000,0.000,0.000,0.000,0.000,0.000,0.000,0.000
348.176,6,0,-0.016,0.026,2.245,0.028,0.003,-4.200,0.154,-0.082,0.185,70.000,0.000,0.0118711,7852.043,7123.854,0.012,-1.749,1013.000,15.036,2.076,2.185,0.203,-0.086,-0.126,0.006,0.023,0.046,0.000,0.000,0.000,-0.189,0.693,-0.039,0.694,0.0000000,0.0000000,2.194,0.000,0.000,0.000,0,00:00:00,0,0.000,0.000,0.000,0.000,0.000,0.000,0.000,0.000,0.000,0.000,0.000,0.000,0.000,0.000
348.277,6,0,-0.012,0.023,1.860,0.028,0.001,-4.155,-0.013,-0.010,0.166,70.000,0.000,0.0118711,7852.043,7123.854,0.012,-1.866,1013.011,15.039,1.987,2.096,0.164,0.029,0.010,0.002,0.014,0.028,0.000,0.000,0.000,-0.188,0.694,-0.039,0.694,0.0000000,0.0000000,1.776,0.000,0.000,0.000,0,00:00:00,0,0.000,0.000,0.000,0.000,0.000,0.000,0.000,0.000,0.000,0.000,0.000,0.000,0.000,0.000
348.378,6,0,-0.008,0.021,1.418,0.036,-0.004,-4.162,0.076,-0.034,0.089,70.000,0.000,0.0118711,7852.043,7123.854,0.012,-1.936,1013.109,15.040,1.172,1.280,0.097,-0.037,-0.065,-0.005,-0.013,-0.001,0.000,0.000,0.000,-0.189,0.693,-0.038,0.694,0.0000000,0.0000000,1.358,0.000,0.000,0.000,0,00:00:00,0,0.000,0.000,0.000,0.000,0.000,0.000,0.000,0.000,0.000,0.000,0.000,0.000,0.000,0.000
348.479,6,0,-0.004,0.018,1.035,0.026,-0.018,-4.140,-0.098,-0.137,-0.053,70.000,0.000,0.0118711,7852.043,7123.854,0.012,-1.877,1013.111,15.043,1.154,1.263,-0.027,-0.106,0.138,0.019,0.033,-0.031,0.000,0.000,0.000,-0.189,0.694,-0.040,0.693,0.0000000,0.0000000,0.940,0.000,0.000,0.000,0,00:00:00,0,0.000,0.000,0.000,0.000,0.000,0.000,0.000,0.000,0.000,0.000,0.000,0.000,0.000,0.000
348.580,6,0,-0.001,0.014,0.591,0.030,-0.024,-4.158,0.042,-0.049,0.007,70.000,0.000,0.0118711,7852.043,7123.854,0.012,-2.019,1013.210,15.046,0.330,0.438,0.018,-0.057,-0.024,0.032,0.002,0.031,0.000,0.000,0.000,-0.187,0.695,-0.040,0.694,0.0000000,0.0000000,0.522,0.000,0.000,0.000,0,00:00:00,0,0.000,0.000,0.000,0.000,0.000,0.000,0.000,0.000,0.000,0.000,0.000,0.000,0.000,0.000
348.681,6,0,0.001,0.012,0.190,0.015,-0.009,-4.139,-0.154,0.154,0.057,70.000,0.000,0.0118711,7852.043,7123.854,0.012,-1.974,1013.227,15.047,0.194,0.302,0.020,0.203,0.095,0.030,-0.004,-0.034,0.000,0.000,0.000,-0.187,0.694,-0.043,0.694,0.0000000,0.0000000,0.104,0.000,0.000,0.000,0,00:00:00,0,0.000,0.000,0.000,0.000,0.000,0.000,0.000,0.000,0.000,0.000,0.000,0.000,0.000,0.000
348.782,6,0,0.002,0.010,-0.217,0.011,-0.007,-4.126,-0.040,0.027,0.044,70.000,0.000,0.0118711,7852.043,7123.854,0.012,-1.896,1013.281,15.051,-0.262,-0.153,0.036,0.047,0.027,0.006,0.017,-0.004,0.000,0.000,0.000,-0.187,0.695,-0.043,0.693,0.0000000,0.0000000,-0.314,0.000,0.000,0.000,0,00:00:00,0,0.000,0.000,0.000,0.000,0.000,0.000,0.000,0.000,0.000,0.000,0.000,0.000,0.000,0.000
348.883,6,0,0.003,0.008,-0.566,0.007,-0.005,-4.072,-0.040,0.027,0.043,70.000,0.000,0.0118711,7852.043,7123.854,0.012,-1.978,1013.281,15.051,-0.262,-0.153,0.036,0.047,0.027,0.006,0.017,-0.004,0.000,0.000,0.000,-0.187,0.695,-0.044,0.693,0.0000000,0.0000000,-0.314,0.000,0.000,0.000,0,00:00:00,0,0.000,0.000,0.000,0.000,0.000,0.000,0.000,0.000,0.000,0.000,0.000,0.000,0.000,0.000
348.984,6,0,0.003,0.007,-0.862,0.002,-0.002,-3.981,-0.040,0.027,0.043,70.000,0.000,0.0118711,7852.043,7123.854,0.012,-2.060,1013.281,15.051,-0.262,-0.153,0.036,0.047,0.027,0.006,0.017,-0.004,0.000,0.000,0.000,-0.187,0.696,-0.044,0.692,0.0000000,0.0000000,-0.314,0.000,0.000,0.000,0,00:00:00,0,0.000,0.000,0.000,0.000,0.000,0.000,0.000,0.000,0.000,0.000,0.000,0.000,0.000,0.000
349.085,6,0,0.002,0.007,-1.286,-0.006,0.004,-3.986,-0.081,0.064,0.112,70.000,0.000,0.0118711,7852.043,7123.854,0.012,-2.141,1013.434,15.060,-1.530,-1.421,0.095,0.107,0.052,0.005,0.014,-0.004,0.000,0.000,0.000,-0.186,0.696,-0.045,0.692,0.0000000,0.0000000,-1.568,0.000,0.000,0.000,0,00:00:00,0,0.000,0.000,0.000,0.000,0.000,0.000,0.000,0.000,0.000,0.000,0.000,0.000,0.000,0.000
349.186,6,0,0.003,0.007,-1.698,0.014,0.014,-3.998,0.200,0.106,-0.049,70.000,0.000,0.0118711,7852.043,7123.854,0.012,-2.205,1013.474,15.063,-1.866,-1.758,-0.064,0.024,-0.222,-0.028,-0.003,0.008,0.000,0.000,0.000,-0.187,0.696,-0.043,0.692,0.0000000,0.0000000,-1.985,0.000,0.000,0.000,0,00:00:00,0,0.000,0.000,0.000,0.000,0.000,0.000,0.000,0.000,0.000,0.000,0.000,0.000,0.000,0.000
349.287,6,0,0.003,0.008,-2.126,0.011,0.026,-4.010,-0.033,0.122,0.063,70.000,0.000,0.0118711,7852.043,7123.854,0.012,-2.238,1013.537,15.065,-2.386,-2.277,0.037,0.136,-0.010,-0.012,0.003,-0.018,0.000,0.000,0.000,-0.188,0.696,-0.043,0.692,0.0000000,0.0000000,-2.403,0.000,0.000,0.000,0,00:00:00,0,0.000,0.000,0.000,0.000,0.000,0.000,0.000,0.000,0.000,0.000,0.000,0.000,0.000,0.000
349.388,6,0,0.004,0.010,-2.554,-0.002,0.028,-4.029,-0.123,0.023,-0.018,70.000,0.000,0.0118711,7852.043,7123.854,0.012,-2.279,1013.587,15.071,-2.801,-2.693,-0.025,0.057,0.110,0.009,-0.008,0.026,0.000,0.000,0.000,-0.187,0.696,-0.043,0.692,0.0000000,0.0000000,-2.821,0.000,0.000,0.000,0,00:00:00,0,0.000,0.000,0.000,0.000,0.000,0.000,0.000,0.000,0.000,0.000,0.000,0.000,0.000,0.000
349.489,6,0,0.003,0.012,-2.981,-0.006,0.031,-4.036,-0.034,0.039,0.086,70.000,0.000,0.0118711,7852.043,7123.854,0.012,-2.219,1013.636,15.070,-3.215,-3.107,0.076,0.064,0.017,-0.001,-0.034,-0.012,0.000,0.000,0.000,-0.188,0.695,-0.043,0.693,0.0000000,0.0000000,-3.239,0.000,0.000,0.000,0,00:00:00,0,0.000,0.000,0.000,0.000,0.000,0.000,0.000,0.000,0.000,0.000,0.000,0.000,0.000,0.000
349.590,6,0,0.002,0.013,-3.437,-0.001,0.015,-4.064,0.045,-0.151,0.076,70.000,0.000,0.0118711,7852.043,7123.854,0.012,-2.039,1013.712,15.073,-3.842,-3.734,0.106,-0.139,0.003,-0.004,0.041,-0.019,0.000,0.000,0.000,-0.188,0.696,-0.044,0.692,0.0000000,0.0000000,-3.657,0.000,0.000,0.000,0,00:00:00,0,0.000,0.000,0.000,0.000,0.000,0.000,0.000,0.000,0.000,0.000,0.000,0.000,0.000,0.000
349.691,6,0,0.002,0.013,-3.853,0.009,0.014,-4.065,0.104,-0.004,0.036,70.000,0.000,0.0118711,7852.043,7123.854,0.012,-2.268,1013.731,15.076,-3.999,-3.891,0.039,-0.030,-0.098,0.004,-0.002,0.010,0.000,0.000,0.000,-0.188,0.696,-0.044,0.692,0.0000000,0.0000000,-4.075,0.000,0.000,0.000,0,00:00:00,0,0.000,0.000,0.000,0.000,0.000,0.000,0.000,0.000,0.000,0.000,0.000,0.000,0.000,0.000
349.792,6,0,0.004,0.013,-4.211,0.019,0.013,-4.022,0.104,-0.004,0.036,70.000,0.000,0.0118711,7852.043,7123.854,0.012,-2.251,1013.731,15.076,-3.999,-3.891,0.039,-0.030,-0.098,0.004,-0.002,0.010,0.000,0.000,0.000,-0.187,0.696,-0.043,0.692,0.0000000,0.0000000,-4.075,0.000,0.000,0.000,0,00:00:00,0,0.000,0.000,0.000,0.000,0.000,0.000,0.000,0.000,0.000,0.000,0.000,0.000,0.000,0.000
349.893,6,0,0.005,0.013,-4.582,0.011,0.013,-4.003,-0.078,0.006,-0.075,70.000,0.000,0.0118711,7852.043,7123.854,0.012,-2.235,1013.787,15.083,-4.469,-4.361,-0.076,0.016,0.075,0.008,0.014,-0.005,0.000,0.000,0.000,-0.187,0.696,-0.044,0.691,0.0000000,0.0000000,-4.911,0.000,0.000,0.000,0,00:00:00,0,0.000,0.000,0.000,0.000,0.000,0.000,0.000,0.000,0.000,0.000,0.000,0.000,0.000,0.000
349.994,6,0,0.006,0.013,-4.994,0.024,0.021,-4.010,0.133,0.082,-0.014,70.000,0.000,0.0118711,7852.043,7123.854,0.012,-2.294,1013.869,15.084,-5.151,-5.043,-0.026,0.031,-0.152,-0.001,0.007,0.012,0.000,0.000,0.000,-0.187,0.697,-0.044,0.691,0.0000000,0.0000000,-5.329,0.000,0.000,0.000,0,00:00:00,0,0.000,0.000,0.000,0.000,0.000,0.000,0.000,0.000,0.000,0.000,0.000,0.000,0.000,0.000
350.095,6,0,0.008,0.014,-5.435,0.025,0.019,-4.040,0.013,-0.009,-0.025,70.000,0.000,0.0118711,7852.043,7123.854,0.012,-2.335,1013.943,15.088,-5.762,-5.653,-0.022,-0.017,-0.008,-0.024,0.016,0.015,0.000,0.000,0.000,-0.187,0.698,-0.042,0.690,0.0000000,0.0000000,-5.747,0.000,0.000,0.000,0,00:00:00,0,0.000,0.000,0.000,0.000,0.000,0.000,0.000,0.000,0.000,0.000,0.000,0.000,0.000,0.000
350.196,6,0,0.009,0.015,-5.862,0.030,0.027,-4.053,0.050,0.088,0.003,70.000,0.000,0.0118711,7852.043,7123.854,0.012,-2.465,1013.981,15.090,-6.084,-5.976,-0.014,0.066,-0.076,0.016,-0.011,-0.020,0.000,0.000,0.000,-0.187,0.697,-0.043,0.691,0.0000000,0.0000000,-6.164,0.000,0.000,0.000,0,00:00:00,0,0.000,0.000,0.000,0.000,0.000,0.000,0.000,0.000,0.000,0.000,0.000,0.000,0.000,0.000
350.297,6,0,0.011,0.016,-6.307,0.023,0.028,-4.076,-0.067,0.015,0.043,70.000,0.000,0.0118711,7852.043,7123.854,0.012,-2.373,1014.048,15.094,-6.636,-6.528,0.037,0.044,0.057,-0.012,0.014,0.019,0.000,0.000,0.000,-0.187,0.698,-0.042,0.690,0.0000000,0.0000000,-6.582,0.000,0.000,0.000,0,00:00:00,0,0.000,0.000,0.000,0.000,0.000,0.000,0.000,0.000,0.000,0.000,0.000,0.000,0.000,0.000
350.398,6,0,0.012,0.016,-6.737,0.014,0.012,-4.081,-0.078,-0.146,0.088,70.000,0.000,0.0118711,7852.043,7123.854,0.012,-2.469,1014.087,15.096,-6.963,-6.855,0.114,-0.092,0.117,-0.003,0.031,-0.047,0.000,0.000,0.000,-0.189,0.698,-0.044,0.689,0.0000000,0.0000000,-7.000,0.000,0.000,0.000,0,00:00:00,0,0.000,0.000,0.000,0.000,0.000,0.000,0.000,0.000,0.000,0.000,0.000,0.000,0.000,0.000
350.499,6,0,0.012,0.015,-7.245,0.024,0.000,-4.176,0.104,-0.113,-0.235,70.000,0.000,0.0118711,7852.043,7123.854,0.012,-2.643,1014.204,15.098,-7.933,-7.825,-0.204,-0.185,-0.051,-0.005,-0.008,0.004,0.000,0.000,0.000,-0.189,0.698,-0.044,0.689,0.0000000,0.0000000,-7.418,0.000,0.000,0.000,0,00:00:00,0,0.000,0.000,0.000,0.000,0.000,0.000,0.000,0.000,0.000,0.000,0.000,0.000,0.000,0.000
