State - Time (s),State - Stage,State - Stage,State - PX (m),State - PY (m),State - PZ (m),State - VX (m/s),State - VY (m/s),State - VZ (m/s),State - AX (m/s/s),State - AY (m/s/s),State - AZ (m/s/s),State - Actuation Angle (deg),State - Acutal Angle (deg),State - CdA,State - Est Apo (m),State - Target Apogee (m),State - Mach Number,State - Tilt [deg],MockBarometer - Pres (hPa),MockBarometer - Temp (C),MockBarometer - Alt ASL (m),MockBarometer - Alt AGL (m),MockIMU - AccX (m/s^2),MockIMU - AccY (m/s^2),MockIMU - AccZ (m/s^2),MockIMU - GyroX (rad/s),MockIMU - GyroY (rad/s),MockIMU - GyroZ (rad/s),MockIMU - MagX (uT),MockIMU - MagY (uT),MockIMU - MagZ (uT),MockIMU - OriX,MockIMU - OriY,MockIMU - OriZ,MockIMU - OriW,MockGPS - Lat,MockGPS - Lon,MockGPS - Alt (m),MockGPS - Disp X (m),MockGPS - Disp Y (m),MockGPS - Disp Z (m),MockGPS - Fix Quality,MockGPS - Time of Day,E5 - Rel Steps,BR - Battery Voltage (V),BR - ALT (m),BR - PRES (Pa),BR - TEMP (C),BR - VEL (m/s),BR - ANG (deg),BR - ACCX (m/s^2),BR - ACCY (m/s^2),BR - ACCZ (m/s^2),BR - GYROX (rad/s),BR - GYROY (rad/s),BR - GYROZ (rad/s),BR - ROLL (deg),BR - TILT (deg)
9.863,0,0,0.000,0.000,0.000,0.000,0.000,0.000,0.000,0.000,0.000,0.000,0.000,0.0103675,0.000,9144.000,0.000,0.000,0.000,0.000,44307.690,0.000,0.000,0.000,0.000,0.000,0.000,0.000,0.000,0.000,0.000,0.000,0.000,0.000,1.000,0.0000000,0.0000000,0.000,0.000,0.000,0.000,0,00:00:00,0,0.000,0.000,0.000,0.000,0.000,0.000,0.000,0.000,0.000,0.000,0.000,0.000,0.000,0.000
9.964,0,0,-0.000,0.000,-5473.157,-0.741,0.004,-1110.503,-7.414,0.045,-6.671,0.000,0.000,0.0103675,0.000,9144.000,0.000,90.000,1013.296,15.051,-0.380,-5475.008,-9.968,0.075,0.350,-0.001,-0.002,-0.011,0.000,0.000,0.000,0.003,0.375,-0.001,0.927,0.0000000,0.0000000,0.000,0.000,0.000,0.000,0,00:00:00,0,0.000,0.000,0.000,0.000,0.000,0.000,0.000,0.000,0.000,0.000,0.000,0.000,0.000,0.000
10.065,0,0,-0.048,0.000,-4414.580,-1.173,0.006,-878.047,-4.376,0.017,-8.963,0.000,0.000,0.0103675,0.000,9144.000,3.269,46.010,1013.296,15.051,-0.380,-3289.975,-9.968,0.075,0.350,-0.001,-0.002,-0.011,0.000,0.000,0.000,0.004,0.545,-0.001,0.839,0.0000000,0.0000000,0.000,0.000,0.000,0.000,0,00:00:00,0,0.000,0.000,0.000,0.000,0.000,0.000,0.000,0.000,0.000,0.000,0.000,0.000,0.000,0.000
10.166,0,0,-0.117,0.000,-3759.876,-1.417,0.001,-731.124,-2.529,-0.049,-9.502,0.000,0.000,0.0103675,0.000,9144.000,2.585,24.015,1013.193,15.050,0.471,-2359.707,-9.827,0.063,0.341,0.039,0.030,-0.019,0.000,0.000,0.000,0.006,0.623,-0.003,0.782,0.0000000,0.0000000,0.000,0.000,0.000,0.000,0,00:00:00,0,0.000,0.000,0.000,0.000,0.000,0.000,0.000,0.000,0.000,0.000,0.000,0.000,0.000,0.000
10.267,0,0,-0.197,0.000,-3305.267,-1.559,0.001,-624.561,-1.547,-0.003,-9.684,0.000,0.000,0.0103675,0.000,9144.000,2.152,12.915,1013.265,15.050,-0.127,-1841.979,-9.802,0.076,0.304,-0.045,0.017,-0.031,0.000,0.000,0.000,0.005,0.661,-0.001,0.751,0.0000000,0.0000000,0.000,0.000,0.000,0.000,0,00:00:00,0,0.000,0.000,0.000,0.000,0.000,0.000,0.000,0.000,0.000,0.000,0.000,0.000,0.000,0.000
10.368,0,0,-0.282,0.000,-2965.657,-1.653,0.001,-539.125,-1.076,0.007,-9.705,0.000,0.000,0.0103675,0.000,9144.000,1.839,7.300,1013.210,15.054,0.335,-1510.452,-9.759,0.065,0.307,-0.026,0.010,-0.020,0.000,0.000,0.000,0.004,0.679,-0.001,0.734,0.0000000,0.0000000,0.000,0.000,0.000,0.000,0,00:00:00,0,0.000,0.000,0.000,0.000,0.000,0.000,0.000,0.000,0.000,0.000,0.000,0.000,0.000,0.000
10.469,0,0,-0.370,0.000,-2698.598,-1.720,-0.002,-465.079,-0.828,-0.038,-9.712,0.000,0.000,0.0103675,0.000,9144.000,1.587,4.525,1013.232,15.050,0.153,-1280.634,-9.743,0.005,0.301,-0.020,0.017,-0.023,0.000,0.000,0.000,0.002,0.688,-0.001,0.726,0.0000000,0.0000000,0.000,0.000,0.000,0.000,0,00:00:00,0,0.000,0.000,0.000,0.000,0.000,0.000,0.000,0.000,0.000,0.000,0.000,0.000,0.000,0.000
10.570,0,0,-0.460,-0.000,-2479.781,-1.775,-0.004,-396.841,-0.707,-0.020,-9.722,0.000,0.000,0.0103675,0.000,9144.000,1.369,3.099,1013.232,15.050,0.153,-1111.505,-9.743,0.005,0.301,-0.020,0.017,-0.023,0.000,0.000,0.000,0.001,0.692,-0.001,0.722,0.0000000,0.0000000,0.000,0.000,0.000,0.000,0,00:00:00,0,0.000,0.000,0.000,0.000,0.000,0.000,0.000,0.000,0.000,0.000,0.000,0.000,0.000,0.000
10.671,0,0,-0.550,-0.001,-2294.167,-1.808,-0.017,-331.048,-0.517,-0.120,-9.615,0.000,0.000,0.0103675,0.000,9144.000,1.168,2.386,1013.277,15.049,-0.226,-982.215,-9.627,-0.049,0.228,0.048,0.050,0.007,0.000,0.000,0.000,0.002,0.696,-0.003,0.718,0.0000000,0.0000000,0.000,0.000,0.000,0.000,0,00:00:00,0,0.000,0.000,0.000,0.000,0.000,0.000,0.000,0.000,0.000,0.000,0.000,0.000,0.000,0.000
10.772,0,0,-0.639,-0.004,-2131.617,-1.831,-0.046,-265.658,-0.418,-0.294,-9.986,0.000,0.000,0.0103675,0.000,9144.000,0.975,1.727,1013.201,15.050,0.404,-879.094,-9.995,-0.236,0.178,-0.016,-0.008,0.037,0.000,0.000,0.000,-0.002,0.698,-0.006,0.716,0.0000000,0.0000000,0.000,0.000,0.000,0.000,0,00:00:00,0,0.000,0.000,0.000,0.000,0.000,0.000,0.000,0.000,0.000,0.000,0.000,0.000,0.000,0.000
10.873,0,0,-0.728,-0.007,-1995.893,-1.843,-0.050,-203.571,-0.334,-0.039,-9.600,0.000,0.000,0.0103675,0.000,9144.000,0.782,1.395,1013.232,15.051,0.146,-879.352,-9.604,0.022,0.152,0.007,0.021,-0.008,0.000,0.000,0.000,0.000,0.700,-0.004,0.714,0.0000000,0.0000000,0.000,0.000,0.000,0.000,0,00:00:00,0,0.000,0.000,0.000,0.000,0.000,0.000,0.000,0.000,0.000,0.000,0.000,0.000,0.000,0.000
10.974,0,0,-0.814,-0.011,-1878.417,-1.866,-0.053,-143.686,-0.463,-0.034,-9.845,0.000,0.000,0.0103675,0.000,9144.000,0.599,1.089,1013.237,15.053,0.105,-879.393,-9.853,0.016,0.247,-0.013,0.001,-0.003,0.000,0.000,0.000,0.001,0.699,-0.002,0.715,0.0000000,0.0000000,0.000,0.000,0.000,0.000,0,00:00:00,0,0.000,0.000,0.000,0.000,0.000,0.000,0.000,0.000,0.000,0.000,0.000,0.000,0.000,0.000
11.075,0,0,-0.902,-0.015,-1773.676,-1.913,-0.056,-85.575,-0.720,-0.040,-9.901,0.000,0.000,0.0103675,0.000,9144.000,0.423,1.258,1013.305,15.051,-0.461,-879.958,-9.919,0.010,0.404,0.000,-0.013,0.006,0.000,0.000,0.000,0.002,0.696,-0.002,0.718,0.0000000,0.0000000,0.000,0.000,0.000,0.000,0,00:00:00,0,0.000,0.000,0.000,0.000,0.000,0.000,0.000,0.000,0.000,0.000,0.000,0.000,0.000,0.000
11.176,0,0,-0.990,-0.019,-1677.860,-1.962,-0.057,-29.180,-0.760,-0.015,-9.654,0.000,0.000,0.0103675,0.000,9144.000,0.252,1.830,1013.238,15.049,0.096,-879.402,-9.676,0.011,0.393,-0.023,-0.034,0.005,0.000,0.000,0.000,0.001,0.694,-0.001,0.720,0.0000000,0.0000000,0.000,0.000,0.000,0.000,0,00:00:00,0,0.000,0.000,0.000,0.000,0.000,0.000,0.000,0.000,0.000,0.000,0.000,0.000,0.000,0.000
11.277,0,0,-1.080,-0.022,-1588.661,-2.011,-0.056,25.069,-0.789,0.008,-9.652,0.000,0.000,0.0103675,0.000,9144.000,0.086,2.175,1013.238,15.049,0.096,-879.402,-9.676,0.011,0.393,-0.023,-0.034,0.005,0.000,0.000,0.000,0.001,0.692,0.000,0.721,0.0000000,0.0000000,0.000,0.000,0.000,0.000,0,00:00:00,0,0.000,0.000,0.000,0.000,0.000,0.000,0.000,0.000,0.000,0.000,0.000,0.000,0.000,0.000
11.378,0,0,-1.170,-0.025,-1504.639,-2.059,-0.041,76.583,-0.825,0.141,-9.709,0.000,0.000,0.0103675,0.000,9144.000,0.074,2.348,1013.255,15.050,-0.045,-879.542,-9.735,0.084,0.418,-0.061,0.002,-0.035,0.000,0.000,0.000,-0.001,0.692,0.003,0.722,0.0000000,0.0000000,0.000,0.000,0.000,0.000,0,00:00:00,0,0.000,0.000,0.000,0.000,0.000,0.000,0.000,0.000,0.000,0.000,0.000,0.000,0.000,0.000
11.479,0,0,-1.260,-0.026,-1424.961,-2.100,-0.031,124.716,-0.775,0.092,-9.697,0.000,0.000,0.0103675,0.000,9144.000,0.226,2.399,1013.234,15.050,0.133,-879.365,-9.721,0.059,0.379,0.025,-0.010,0.025,0.000,0.000,0.000,0.001,0.692,0.003,0.721,0.0000000,0.0000000,0.000,0.000,0.000,0.000,0,00:00:00,0,0.000,0.000,0.000,0.000,0.000,0.000,0.000,0.000,0.000,0.000,0.000,0.000,0.000,0.000
11.580,0,0,-1.350,-0.026,-1349.361,-2.160,-0.028,168.743,-1.014,0.022,-9.675,0.000,0.000,0.0103675,0.000,9144.000,0.367,2.344,1013.273,15.050,-0.192,-879.690,-9.713,-0.012,0.541,-0.000,-0.009,0.013,0.000,0.000,0.000,-0.000,0.690,0.002,0.724,0.0000000,0.0000000,0.000,0.000,0.000,0.000,0,00:00:00,0,0.000,0.000,0.000,0.000,0.000,0.000,0.000,0.000,0.000,0.000,0.000,0.000,0.000,0.000
11.681,0,0,-1.438,-0.026,-1277.785,-2.165,-0.018,208.084,-0.514,0.085,-9.604,0.000,0.000,0.0103675,0.000,9144.000,0.497,2.792,1013.265,15.052,-0.124,-879.622,-9.616,0.093,0.179,0.042,-0.026,-0.011,0.000,0.000,0.000,0.002,0.695,0.002,0.719,0.0000000,0.0000000,0.000,0.000,0.000,0.000,0,00:00:00,0,0.000,0.000,0.000,0.000,0.000,0.000,0.000,0.000,0.000,0.000,0.000,0.000,0.000,0.000
11.782,0,0,-1.522,-0.027,-1210.424,-2.189,-0.035,242.226,-0.750,-0.169,-9.743,0.000,0.000,0.0103675,0.000,9144.000,0.613,2.002,1013.263,15.049,-0.112,-879.609,-9.765,-0.149,0.385,0.009,-0.005,-0.003,0.000,0.000,0.000,-0.001,0.694,-0.002,0.720,0.0000000,0.0000000,0.000,0.000,0.000,0.000,0,00:00:00,0,0.000,0.000,0.000,0.000,0.000,0.000,0.000,0.000,0.000,0.000,0.000,0.000,0.000,0.000
11.883,0,0,-1.601,-0.027,-1037.188,-2.169,-0.013,355.857,-0.360,0.206,-9.872,0.000,0.000,0.0103675,0.000,9144.000,0.713,2.145,1013.284,15.052,-0.286,-0.341,-9.878,0.189,0.124,-0.034,0.019,0.027,0.000,0.000,0.000,0.002,0.699,0.004,0.716,0.0000000,0.0000000,0.000,0.000,0.000,0.000,0,00:00:00,0,0.000,0.000,0.000,0.000,0.000,0.000,0.000,0.000,0.000,0.000,0.000,0.000,0.000,0.000
11.984,0,0,-1.673,-0.026,-873.138,-2.152,-0.023,454.667,-0.445,-0.107,-9.852,0.000,0.000,0.0103675,0.000,9144.000,1.048,1.378,1013.248,15.052,0.013,-0.091,-9.860,-0.093,0.220,0.029,0.008,-0.016,0.000,0.000,0.000,0.000,0.699,-0.001,0.715,0.0000000,0.0000000,0.000,0.000,0.000,0.000,0,00:00:00,0,0.000,0.000,0.000,0.000,0.000,0.000,0.000,0.000,0.000,0.000,0.000,0.000,0.000,0.000
12.085,0,0,-1.737,-0.027,-719.434,-2.130,-0.035,538.168,-0.438,-0.137,-9.852,0.000,0.000,0.0103675,0.000,9144.000,1.338,1.305,1013.248,15.052,0.013,-0.083,-9.860,-0.093,0.220,0.029,0.008,-0.016,0.000,0.000,0.000,-0.001,0.699,-0.004,0.715,0.0000000,0.0000000,0.000,0.000,0.000,0.000,0,00:00:00,0,0.000,0.000,0.000,0.000,0.000,0.000,0.000,0.000,0.000,0.000,0.000,0.000,0.000,0.000
12.186,0,0,-1.795,-0.028,-576.987,-2.130,-0.034,606.426,-0.700,0.001,-9.711,0.000,0.000,0.0103675,0.000,9144.000,1.584,1.270,1013.245,15.050,0.040,-0.018,-9.728,0.071,0.393,0.029,-0.006,-0.012,0.000,0.000,0.000,0.003,0.696,-0.003,0.718,0.0000000,0.0000000,0.000,0.000,0.000,0.000,0,00:00:00,0,0.000,0.000,0.000,0.000,0.000,0.000,0.000,0.000,0.000,0.000,0.000,0.000,0.000,0.000
12.287,0,0,-1.847,-0.029,-446.436,-2.119,-0.040,659.916,-0.641,-0.070,-9.634,0.000,0.000,0.0103675,0.000,9144.000,1.785,1.809,1013.234,15.050,0.136,0.056,-9.650,-0.006,0.321,-0.006,-0.015,0.009,0.000,0.000,0.000,0.002,0.695,-0.002,0.719,0.0000000,0.0000000,0.000,0.000,0.000,0.000,0,00:00:00,0,0.000,0.000,0.000,0.000,0.000,0.000,0.000,0.000,0.000,0.000,0.000,0.000,0.000,0.000
12.388,0,0,-1.894,-0.030,-328.118,-2.144,-0.034,699.457,-1.051,0.043,-9.734,0.000,0.000,0.0103675,0.000,9144.000,1.943,1.901,1013.227,15.052,0.195,0.153,-9.772,0.111,0.590,0.006,-0.011,-0.022,0.000,0.000,0.000,0.004,0.690,-0.001,0.724,0.0000000,0.0000000,0.000,0.000,0.000,0.000,0,00:00:00,0,0.000,0.000,0.000,0.000,0.000,0.000,0.000,0.000,0.000,0.000,0.000,0.000,0.000,0.000
12.489,0,0,-1.937,-0.031,-222.144,-2.126,-0.039,726.096,-0.657,-0.055,-9.761,0.000,0.000,0.0103675,0.000,9144.000,2.059,2.709,1013.270,15.051,-0.164,-0.204,-9.779,0.015,0.278,0.001,-0.018,0.018,0.000,0.000,0.000,0.004,0.693,-0.001,0.721,0.0000000,0.0000000,0.000,0.000,0.000,0.000,0,00:00:00,0,0.000,0.000,0.000,0.000,0.000,0.000,0.000,0.000,0.000,0.000,0.000,0.000,0.000,0.000
12.590,0,0,-1.973,-0.032,-128.242,-2.108,-0.048,741.131,-0.714,-0.105,-9.830,0.000,0.000,0.0103675,0.000,9144.000,2.137,2.220,1013.267,15.050,-0.143,-0.148,-9.850,-0.052,0.353,-0.017,0.013,0.032,0.000,0.000,0.000,0.002,0.694,-0.002,0.720,0.0000000,0.0000000,0.000,0.000,0.000,0.000,0,00:00:00,0,0.000,0.000,0.000,0.000,0.000,0.000,0.000,0.000,0.000,0.000,0.000,0.000,0.000,0.000
12.691,0,0,-2.004,-0.035,-46.031,-2.127,-0.058,745.883,-1.102,-0.115,-9.689,0.000,0.000,0.0103675,0.000,9144.000,2.182,2.100,1013.291,15.049,-0.338,-0.354,-9.733,0.002,0.613,0.066,-0.010,-0.015,0.000,0.000,0.000,0.004,0.689,-0.004,0.725,0.0000000,0.0000000,0.000,0.000,0.000,0.000,0,00:00:00,0,0.000,0.000,0.000,0.000,0.000,0.000,0.000,0.000,0.000,0.000,0.000,0.000,0.000,0.000
12.792,0,0,-2.032,-0.038,25.172,-2.131,-0.072,741.754,-1.003,-0.154,-9.760,0.000,0.000,0.0103675,0.000,9144.000,2.196,2.882,1013.237,15.050,0.110,0.145,-9.799,-0.069,0.507,-0.037,0.003,-0.028,0.000,0.000,0.000,0.001,0.689,-0.005,0.725,0.0000000,0.0000000,0.000,0.000,0.000,0.000,0,00:00:00,0,0.000,0.000,0.000,0.000,0.000,0.000,0.000,0.000,0.000,0.000,0.000,0.000,0.000,0.000
12.893,0,0,-2.055,-0.042,85.950,-2.127,-0.086,729.983,-0.943,-0.164,-9.651,0.000,0.000,0.0103675,0.000,9144.000,2.184,2.912,1013.270,15.052,-0.167,-0.088,-9.687,-0.053,0.465,0.027,-0.003,-0.002,0.000,0.000,0.000,0.002,0.689,-0.006,0.724,0.0000000,0.0000000,0.000,0.000,0.000,0.000,0,00:00:00,0,0.000,0.000,0.000,0.000,0.000,0.000,0.000,0.000,0.000,0.000,0.000,0.000,0.000,0.000
12.994,0,0,-2.073,-0.046,137.151,-2.105,-0.076,711.843,-0.798,0.076,-9.840,0.000,0.000,0.0103675,0.000,9144.000,2.149,2.838,1013.226,15.052,0.199,0.287,-9.864,0.178,0.372,-0.006,0.008,0.007,0.000,0.000,0.000,0.006,0.692,-0.002,0.722,0.0000000,0.0000000,0.000,0.000,0.000,0.000,0,00:00:00,0,0.000,0.000,0.000,0.000,0.000,0.000,0.000,0.000,0.000,0.000,0.000,0.000,0.000,0.000
13.095,0,0,-2.086,-0.049,179.472,-2.086,-0.089,688.426,-0.862,-0.155,-9.774,0.000,0.000,0.0103675,0.000,9144.000,2.096,2.476,1013.254,15.052,-0.031,0.010,-9.804,-0.059,0.435,-0.006,0.004,0.039,0.000,0.000,0.000,0.004,0.692,-0.003,0.722,0.0000000,0.0000000,0.000,0.000,0.000,0.000,0,00:00:00,0,0.000,0.000,0.000,0.000,0.000,0.000,0.000,0.000,0.000,0.000,0.000,0.000,0.000,0.000
13.196,0,0,-2.092,-0.053,213.717,-2.033,-0.080,660.769,-0.536,0.065,-9.782,0.000,0.000,0.0103675,0.000,9144.000,2.027,2.497,1013.287,15.049,-0.308,-0.261,-9.794,0.124,0.224,-0.035,0.026,0.033,0.000,0.000,0.000,0.005,0.696,0.001,0.718,0.0000000,0.0000000,0.000,0.000,0.000,0.000,0,00:00:00,0,0.000,0.000,0.000,0.000,0.000,0.000,0.000,0.000,0.000,0.000,0.000,0.000,0.000,0.000
13.297,0,0,-2.092,-0.056,240.803,-1.997,-0.087,629.910,-0.718,-0.100,-9.745,0.000,0.000,0.0103675,0.000,9144.000,1.945,1.830,1013.209,15.050,0.337,0.380,-9.765,-0.027,0.365,0.015,-0.031,0.010,0.000,0.000,0.000,0.004,0.694,-0.001,0.720,0.0000000,0.0000000,0.000,0.000,0.000,0.000,0,00:00:00,0,0.000,0.000,0.000,0.000,0.000,0.000,0.000,0.000,0.000,0.000,0.000,0.000,0.000,0.000
13.398,0,0,-2.086,-0.058,261.353,-1.941,-0.074,596.556,-0.522,0.105,-9.798,0.000,0.000,0.0103675,0.000,9144.000,1.854,2.074,1013.239,15.051,0.088,0.106,-9.808,0.217,0.236,0.040,0.016,0.008,0.000,0.000,0.000,0.009,0.697,0.000,0.717,0.0000000,0.0000000,0.000,0.000,0.000,0.000,0,00:00:00,0,0.000,0.000,0.000,0.000,0.000,0.000,0.000,0.000,0.000,0.000,0.000,0.000,0.000,0.000
13.499,0,0,-2.074,-0.060,276.154,-1.909,-0.071,561.480,-0.775,-0.000,-9.910,0.000,0.000,0.0103675,0.000,9144.000,1.756,1.680,1013.220,15.050,0.246,0.294,-9.930,0.125,0.425,0.016,0.018,0.008,0.000,0.000,0.000,0.009,0.694,-0.000,0.719,0.0000000,0.0000000,0.000,0.000,0.000,0.000,0,00:00:00,0,0.000,0.000,0.000,0.000,0.000,0.000,0.000,0.000,0.000,0.000,0.000,0.000,0.000,0.000
13.600,0,0,-2.058,-0.062,285.791,-1.842,-0.094,525.263,-0.422,-0.266,-9.822,0.000,0.000,0.0103675,0.000,9144.000,1.653,2.015,1013.274,15.050,-0.202,-0.158,-9.832,-0.152,0.161,-0.016,-0.016,0.015,0.000,0.000,0.000,0.004,0.698,-0.004,0.716,0.0000000,0.0000000,0.000,0.000,0.000,0.000,0,00:00:00,0,0.000,0.000,0.000,0.000,0.000,0.000,0.000,0.000,0.000,0.000,0.000,0.000,0.000,0.000
13.701,0,0,-2.036,-0.066,290.968,-1.771,-0.116,488.499,-0.378,-0.251,-9.824,0.000,0.000,0.0103675,0.000,9144.000,1.546,1.523,1013.274,15.050,-0.202,-0.137,-9.832,-0.152,0.161,-0.016,-0.016,0.015,0.000,0.000,0.000,0.001,0.699,-0.006,0.715,0.0000000,0.0000000,0.000,0.000,0.000,0.000,0,00:00:00,0,0.000,0.000,0.000,0.000,0.000,0.000,0.000,0.000,0.000,0.000,0.000,0.000,0.000,0.000
13.802,0,0,-2.008,-0.071,292.308,-1.722,-0.123,451.688,-0.582,-0.107,-9.779,0.000,0.000,0.0103675,0.000,9144.000,1.438,1.276,1013.238,15.049,0.100,0.142,-9.792,-0.019,0.323,-0.011,0.023,0.007,0.000,0.000,0.000,0.002,0.698,-0.005,0.716,0.0000000,0.0000000,0.000,0.000,0.000,0.000,0,00:00:00,0,0.000,0.000,0.000,0.000,0.000,0.000,0.000,0.000,0.000,0.000,0.000,0.000,0.000,0.000
13.903,0,0,-1.978,-0.076,290.302,-1.672,-0.131,415.196,-0.568,-0.119,-9.672,0.000,0.000,0.0103675,0.000,9144.000,1.330,1.516,1013.242,15.048,0.064,0.095,-9.684,-0.065,0.305,-0.035,0.035,-0.006,0.000,0.000,0.000,-0.000,0.697,-0.004,0.717,0.0000000,0.0000000,0.000,0.000,0.000,0.000,0,00:00:00,0,0.000,0.000,0.000,0.000,0.000,0.000,0.000,0.000,0.000,0.000,0.000,0.000,0.000,0.000
14.004,0,0,-1.946,-0.080,285.391,-1.632,-0.126,379.298,-0.646,0.002,-9.777,0.000,0.000,0.0103675,0.000,9144.000,1.222,1.562,1013.292,15.050,-0.350,-0.338,-9.792,0.036,0.342,-0.019,-0.000,0.013,0.000,0.000,0.000,0.001,0.696,-0.001,0.718,0.0000000,0.0000000,0.000,0.000,0.000,0.000,0,00:00:00,0,0.000,0.000,0.000,0.000,0.000,0.000,0.000,0.000,0.000,0.000,0.000,0.000,0.000,0.000
14.105,0,0,-1.912,-0.085,278.128,-1.581,-0.133,344.371,-0.528,-0.114,-9.695,0.000,0.000,0.0103675,0.000,9144.000,1.117,1.780,1013.262,15.050,-0.100,-0.084,-9.707,-0.052,0.254,0.028,0.006,-0.010,0.000,0.000,0.000,0.001,0.697,-0.003,0.717,0.0000000,0.0000000,0.000,0.000,0.000,0.000,0,00:00:00,0,0.000,0.000,0.000,0.000,0.000,0.000,0.000,0.000,0.000,0.000,0.000,0.000,0.000,0.000
14.206,0,0,-1.876,-0.088,268.904,-1.538,-0.118,310.619,-0.577,0.102,-9.701,0.000,0.000,0.0103675,0.000,9144.000,1.014,1.620,1013.252,15.049,-0.013,0.038,-9.713,0.166,0.288,0.005,-0.017,-0.001,0.000,0.000,0.000,0.005,0.696,-0.000,0.718,0.0000000,0.0000000,0.000,0.000,0.000,0.000,0,00:00:00,0,0.000,0.000,0.000,0.000,0.000,0.000,0.000,0.000,0.000,0.000,0.000,0.000,0.000,0.000
14.307,0,0,-1.840,-0.091,258.069,-1.529,-0.128,278.199,-0.901,-0.143,-9.804,0.000,0.000,0.0103675,0.000,9144.000,0.914,1.708,1013.252,15.051,-0.018,0.013,-9.833,-0.056,0.519,0.022,0.047,0.004,0.000,0.000,0.000,0.003,0.693,-0.003,0.721,0.0000000,0.0000000,0.000,0.000,0.000,0.000,0,00:00:00,0,0.000,0.000,0.000,0.000,0.000,0.000,0.000,0.000,0.000,0.000,0.000,0.000,0.000,0.000
14.408,0,0,-1.805,-0.095,245.954,-1.481,-0.134,247.271,-0.503,-0.114,-9.755,0.000,0.000,0.0103675,0.000,9144.000,0.819,2.229,1013.262,15.053,-0.099,-0.057,-9.767,-0.040,0.203,-0.013,-0.017,0.007,0.000,0.000,0.000,0.002,0.696,-0.003,0.718,0.0000000,0.0000000,0.000,0.000,0.000,0.000,0,00:00:00,0,0.000,0.000,0.000,0.000,0.000,0.000,0.000,0.000,0.000,0.000,0.000,0.000,0.000,0.000
14.509,0,0,-1.770,-0.098,232.891,-1.469,-0.140,217.974,-0.834,-0.110,-9.620,0.000,0.000,0.0103675,0.000,9144.000,0.728,1.761,1013.241,15.050,0.076,0.076,-9.646,-0.044,0.460,-0.010,0.005,-0.009,0.000,0.000,0.000,0.001,0.693,-0.004,0.721,0.0000000,0.0000000,0.000,0.000,0.000,0.000,0,00:00:00,0,0.000,0.000,0.000,0.000,0.000,0.000,0.000,0.000,0.000,0.000,0.000,0.000,0.000,0.000
14.610,0,0,-1.737,-0.102,219.142,-1.457,-0.133,190.352,-0.814,0.008,-9.780,0.000,0.000,0.0103675,0.000,9144.000,0.642,2.231,1013.232,15.048,0.151,0.157,-9.805,0.065,0.410,-0.007,-0.020,0.020,0.000,0.000,0.000,0.003,0.692,-0.001,0.722,0.0000000,0.0000000,0.000,0.000,0.000,0.000,0,00:00:00,0,0.000,0.000,0.000,0.000,0.000,0.000,0.000,0.000,0.000,0.000,0.000,0.000,0.000,0.000
14.711,0,0,-1.706,-0.104,204.894,-1.447,-0.133,164.439,-0.812,-0.049,-9.739,0.000,0.000,0.0103675,0.000,9144.000,0.560,2.368,1013.262,15.052,-0.103,-0.110,-9.765,0.024,0.399,0.016,-0.025,-0.005,0.000,0.000,0.000,0.003,0.692,-0.002,0.722,0.0000000,0.0000000,0.000,0.000,0.000,0.000,0,00:00:00,0,0.000,0.000,0.000,0.000,0.000,0.000,0.000,0.000,0.000,0.000,0.000,0.000,0.000,0.000
14.812,0,0,-1.676,-0.106,190.401,-1.438,-0.133,140.290,-0.817,-0.064,-9.739,0.000,0.000,0.0103675,0.000,9144.000,0.484,2.427,1013.262,15.052,-0.103,-0.109,-9.765,0.024,0.399,0.016,-0.025,-0.005,0.000,0.000,0.000,0.004,0.692,-0.003,0.722,0.0000000,0.0000000,0.000,0.000,0.000,0.000,0,00:00:00,0,0.000,0.000,0.000,0.000,0.000,0.000,0.000,0.000,0.000,0.000,0.000,0.000,0.000,0.000
14.913,0,0,-1.649,-0.109,175.829,-1.424,-0.135,117.891,-0.736,-0.077,-9.790,0.000,0.000,0.0103675,0.000,9144.000,0.413,2.456,1013.275,15.048,-0.211,-0.240,-9.812,0.042,0.339,0.032,-0.035,0.008,0.000,0.000,0.000,0.006,0.693,-0.003,0.721,0.0000000,0.0000000,0.000,0.000,0.000,0.000,0,00:00:00,0,0.000,0.000,0.000,0.000,0.000,0.000,0.000,0.000,0.000,0.000,0.000,0.000,0.000,0.000
15.014,0,0,-1.622,-0.111,161.395,-1.395,-0.143,97.291,-0.588,-0.133,-9.678,0.000,0.000,0.0103675,0.000,9144.000,0.347,2.318,1013.249,15.050,0.007,0.032,-9.693,0.013,0.262,0.027,0.004,-0.009,0.000,0.000,0.000,0.006,0.695,-0.005,0.719,0.0000000,0.0000000,0.000,0.000,0.000,0.000,0,00:00:00,0,0.000,0.000,0.000,0.000,0.000,0.000,0.000,0.000,0.000,0.000,0.000,0.000,0.000,0.000
15.115,0,0,-1.595,-0.114,147.198,-1.365,-0.153,78.417,-0.554,-0.160,-9.680,0.000,0.000,0.0103675,0.000,9144.000,0.286,1.922,1013.249,15.050,0.007,0.039,-9.693,0.013,0.262,0.027,0.004,-0.009,0.000,0.000,0.000,0.007,0.696,-0.006,0.718,0.0000000,0.0000000,0.000,0.000,0.000,0.000,0,00:00:00,0,0.000,0.000,0.000,0.000,0.000,0.000,0.000,0.000,0.000,0.000,0.000,0.000,0.000,0.000
15.216,0,0,-1.568,-0.117,133.296,-1.352,-0.155,61.160,-0.703,-0.089,-9.920,0.000,0.000,0.0103675,0.000,9144.000,0.231,1.724,1013.292,15.049,-0.345,-0.342,-9.938,0.108,0.363,0.021,-0.016,-0.007,0.000,0.000,0.000,0.009,0.695,-0.005,0.719,0.0000000,0.0000000,0.000,0.000,0.000,0.000,0,00:00:00,0,0.000,0.000,0.000,0.000,0.000,0.000,0.000,0.000,0.000,0.000,0.000,0.000,0.000,0.000
15.317,0,0,-1.542,-0.122,119.877,-1.324,-0.176,45.592,-0.543,-0.271,-9.616,0.000,0.000,0.0103675,0.000,9144.000,0.180,1.954,1013.269,15.051,-0.157,-0.119,-9.632,-0.075,0.257,0.003,0.014,0.018,0.000,0.000,0.000,0.007,0.696,-0.007,0.717,0.0000000,0.0000000,0.000,0.000,0.000,0.000,0,00:00:00,0,0.000,0.000,0.000,0.000,0.000,0.000,0.000,0.000,0.000,0.000,0.000,0.000,0.000,0.000
15.418,0,0,-1.517,-0.126,106.997,-1.298,-0.171,31.584,-0.554,-0.019,-9.774,0.000,0.000,0.0103675,0.000,9144.000,0.134,1.702,1013.260,15.050,-0.083,-0.025,-9.784,0.172,0.274,-0.005,0.006,-0.003,0.000,0.000,0.000,0.010,0.697,-0.004,0.717,0.0000000,0.0000000,0.000,0.000,0.000,0.000,0,00:00:00,0,0.000,0.000,0.000,0.000,0.000,0.000,0.000,0.000,0.000,0.000,0.000,0.000,0.000,0.000
15.519,0,0,-1.491,-0.130,94.700,-1.273,-0.181,19.044,-0.540,-0.166,-9.994,0.000,0.000,0.0103675,0.000,9144.000,0.093,1.636,1013.265,15.048,-0.127,-0.053,-10.006,0.032,0.270,0.000,0.019,-0.011,0.000,0.000,0.000,0.009,0.697,-0.005,0.717,0.0000000,0.0000000,0.000,0.000,0.000,0.000,0,00:00:00,0,0.000,0.000,0.000,0.000,0.000,0.000,0.000,0.000,0.000,0.000,0.000,0.000,0.000,0.000
15.620,0,0,-1.467,-0.134,83.020,-1.277,-0.182,7.936,-0.823,-0.081,-9.742,0.000,0.000,0.0103675,0.000,9144.000,0.056,1.538,1013.275,15.049,-0.211,-0.172,-9.766,0.117,0.457,0.008,-0.014,-0.008,0.000,0.000,0.000,0.010,0.694,-0.005,0.720,0.0000000,0.0000000,0.000,0.000,0.000,0.000,0,00:00:00,0,0.000,0.000,0.000,0.000,0.000,0.000,0.000,0.000,0.000,0.000,0.000,0.000,0.000,0.000
15.721,0,0,-1.444,-0.139,72.029,-1.244,-0.186,-1.814,-0.438,-0.114,-9.670,0.000,0.000,0.0103675,0.000,9144.000,0.024,2.148,1013.260,15.050,-0.079,-0.050,-9.679,0.069,0.174,-0.017,0.012,-0.010,0.000,0.000,0.000,0.009,0.697,-0.004,0.717,0.0000000,0.0000000,0.000,0.000,0.000,0.000,0,00:00:00,0,0.000,0.000,0.000,0.000,0.000,0.000,0.000,0.000,0.000,0.000,0.000,0.000,0.000,0.000
15.822,0,0,-1.420,-0.142,61.767,-1.206,-0.183,-10.279,-0.375,-0.047,-9.622,0.000,0.000,0.0103675,0.000,9144.000,0.006,1.555,1013.231,15.051,0.158,0.207,-9.627,0.117,0.167,-0.020,0.013,-0.033,0.000,0.000,0.000,0.009,0.699,-0.003,0.715,0.0000000,0.0000000,0.000,0.000,0.000,0.000,0,00:00:00,0,0.000,0.000,0.000,0.000,0.000,0.000,0.000,0.000,0.000,0.000,0.000,0.000,0.000,0.000
15.923,0,0,-1.396,-0.146,52.205,-1.199,-0.193,-17.606,-0.662,-0.168,-9.866,0.000,0.000,0.0103675,0.000,9144.000,0.030,1.237,1013.235,15.049,0.125,0.202,-9.883,-0.021,0.372,-0.023,0.004,-0.031,0.000,0.000,0.000,0.006,0.697,-0.005,0.717,0.0000000,0.0000000,0.000,0.000,0.000,0.000,0,00:00:00,0,0.000,0.000,0.000,0.000,0.000,0.000,0.000,0.000,0.000,0.000,0.000,0.000,0.000,0.000
16.024,0,0,-1.374,-0.150,43.342,-1.196,-0.200,-23.859,-0.700,-0.147,-9.864,0.000,0.000,0.0103675,0.000,9144.000,0.052,1.684,1013.235,15.049,0.125,0.167,-9.883,-0.021,0.372,-0.023,0.004,-0.031,0.000,0.000,0.000,0.004,0.695,-0.005,0.719,0.0000000,0.0000000,0.000,0.000,0.000,0.000,0,00:00:00,0,0.000,0.000,0.000,0.000,0.000,0.000,0.000,0.000,0.000,0.000,0.000,0.000,0.000,0.000
16.125,0,0,-1.353,-0.154,35.204,-1.168,-0.198,-29.103,-0.431,-0.066,-9.926,0.000,0.000,0.0103675,0.000,9144.000,0.070,1.907,1013.210,15.051,0.334,0.365,-9.934,0.093,0.178,0.033,0.002,-0.011,0.000,0.000,0.000,0.007,0.698,-0.005,0.716,0.0000000,0.0000000,0.000,0.000,0.000,0.000,0,00:00:00,0,0.000,0.000,0.000,0.000,0.000,0.000,0.000,0.000,0.000,0.000,0.000,0.000,0.000,0.000
16.226,0,0,-1.333,-0.159,27.688,-1.179,-0.221,-33.480,-0.811,-0.308,-9.839,0.000,0.000,0.0103675,0.000,9144.000,0.086,1.462,1013.269,15.049,-0.155,-0.091,-9.866,-0.138,0.461,0.010,0.007,0.016,0.000,0.000,0.000,0.004,0.694,-0.008,0.720,0.0000000,0.0000000,0.000,0.000,0.000,0.000,0,00:00:00,0,0.000,0.000,0.000,0.000,0.000,0.000,0.000,0.000,0.000,0.000,0.000,0.000,0.000,0.000
16.327,0,0,-1.315,-0.164,20.904,-1.175,-0.226,-36.977,-0.651,-0.143,-9.830,0.000,0.000,0.0103675,0.000,9144.000,0.099,2.046,1013.219,15.051,0.257,0.335,-9.847,0.003,0.322,-0.020,0.016,0.027,0.000,0.000,0.000,0.005,0.695,-0.006,0.719,0.0000000,0.0000000,0.000,0.000,0.000,0.000,0,00:00:00,0,0.000,0.000,0.000,0.000,0.000,0.000,0.000,0.000,0.000,0.000,0.000,0.000,0.000,0.000
16.428,0,0,-1.300,-0.169,14.709,-1.194,-0.210,-39.770,-0.877,0.070,-9.821,0.000,0.000,0.0103675,0.000,9144.000,0.109,1.914,1013.269,15.052,-0.154,-0.078,-9.846,0.219,0.485,0.010,0.026,0.001,0.000,0.000,0.000,0.009,0.693,-0.002,0.721,0.0000000,0.0000000,0.000,0.000,0.000,0.000,0,00:00:00,0,0.000,0.000,0.000,0.000,0.000,0.000,0.000,0.000,0.000,0.000,0.000,0.000,0.000,0.000
16.529,0,0,-1.287,-0.173,9.164,-1.201,-0.229,-41.849,-0.746,-0.277,-9.645,0.000,0.000,0.0103675,0.000,9144.000,0.117,2.290,1013.251,15.050,-0.007,0.089,-9.670,-0.142,0.367,-0.017,-0.005,0.027,0.000,0.000,0.000,0.005,0.693,-0.005,0.721,0.0000000,0.0000000,0.000,0.000,0.000,0.000,0,00:00:00,0,0.000,0.000,0.000,0.000,0.000,0.000,0.000,0.000,0.000,0.000,0.000,0.000,0.000,0.000
16.630,0,0,-1.276,-0.179,4.221,-1.208,-0.246,-43.322,-0.741,-0.261,-9.646,0.000,0.000,0.0103675,0.000,9144.000,0.123,2.248,1013.251,15.050,-0.007,0.126,-9.670,-0.142,0.367,-0.017,-0.005,0.027,0.000,0.000,0.000,0.002,0.693,-0.007,0.721,0.0000000,0.0000000,0.000,0.000,0.000,0.000,0,00:00:00,0,0.000,0.000,0.000,0.000,0.000,0.000,0.000,0.000,0.000,0.000,0.000,0.000,0.000,0.000
16.731,0,0,-1.267,-0.185,-0.158,-1.215,-0.261,-44.262,-0.739,-0.245,-9.647,0.000,0.000,0.0103675,0.000,9144.000,0.128,2.226,1013.251,15.050,-0.007,0.123,-9.670,-0.142,0.367,-0.017,-0.005,0.027,0.000,0.000,0.000,0.000,0.693,-0.007,0.721,0.0000000,0.0000000,0.000,0.000,0.000,0.000,0,00:00:00,0,0.000,0.000,0.000,0.000,0.000,0.000,0.000,0.000,0.000,0.000,0.000,0.000,0.000,0.000
16.832,0,0,-1.261,-0.192,-4.052,-1.246,-0.266,-44.798,-0.968,-0.150,-9.941,0.000,0.000,0.0103675,0.000,9144.000,0.130,2.215,1013.287,15.051,-0.312,-0.208,-9.976,-0.021,0.521,0.025,0.010,0.017,0.000,0.000,0.000,0.003,0.691,-0.006,0.723,0.0000000,0.0000000,0.000,0.000,0.000,0.000,0,00:00:00,0,0.000,0.000,0.000,0.000,0.000,0.000,0.000,0.000,0.000,0.000,0.000,0.000,0.000,0.000
16.933,0,0,-1.258,-0.198,-7.452,-1.280,-0.273,-44.923,-1.000,-0.173,-9.938,0.000,0.000,0.0103675,0.000,9144.000,0.132,2.575,1013.287,15.051,-0.312,-0.241,-9.976,-0.021,0.521,0.025,0.010,0.017,0.000,0.000,0.000,0.004,0.690,-0.006,0.724,0.0000000,0.0000000,0.000,0.000,0.000,0.000,0,00:00:00,0,0.000,0.000,0.000,0.000,0.000,0.000,0.000,0.000,0.000,0.000,0.000,0.000,0.000,0.000
17.034,0,0,-1.258,-0.205,-10.342,-1.298,-0.281,-44.634,-0.834,-0.195,-9.688,0.000,0.000,0.0103675,0.000,9144.000,0.132,2.755,1013.249,15.051,0.010,0.069,-9.717,-0.056,0.400,-0.010,-0.003,0.007,0.000,0.000,0.000,0.004,0.691,-0.006,0.723,0.0000000,0.0000000,0.000,0.000,0.000,0.000,0,00:00:00,0,0.000,0.000,0.000,0.000,0.000,0.000,0.000,0.000,0.000,0.000,0.000,0.000,0.000,0.000
17.135,0,0,-1.259,-0.212,-12.840,-1.315,-0.301,-44.076,-0.829,-0.307,-9.713,0.000,0.000,0.0103675,0.000,9144.000,0.131,2.565,1013.277,15.048,-0.226,-0.200,-9.744,-0.143,0.405,0.022,-0.015,-0.034,0.000,0.000,0.000,0.002,0.691,-0.010,0.722,0.0000000,0.0000000,0.000,0.000,0.000,0.000,0,00:00:00,0,0.000,0.000,0.000,0.000,0.000,0.000,0.000,0.000,0.000,0.000,0.000,0.000,0.000,0.000
17.236,0,0,-1.262,-0.221,-14.938,-1.339,-0.314,-43.266,-0.902,-0.245,-9.763,0.000,0.000,0.0103675,0.000,9144.000,0.130,2.516,1013.274,15.051,-0.201,-0.194,-9.797,-0.069,0.452,0.012,-0.025,-0.007,0.000,0.000,0.000,0.003,0.691,-0.010,0.723,0.0000000,0.0000000,0.000,0.000,0.000,0.000,0,00:00:00,0,0.000,0.000,0.000,0.000,0.000,0.000,0.000,0.000,0.000,0.000,0.000,0.000,0.000,0.000
17.337,0,0,-1.266,-0.229,-16.613,-1.326,-0.318,-42.185,-0.540,-0.158,-9.591,0.000,0.000,0.0103675,0.000,9144.000,0.127,2.651,1013.219,15.050,0.258,0.223,-9.606,-0.009,0.200,-0.022,-0.041,-0.024,0.000,0.000,0.000,0.003,0.694,-0.008,0.720,0.0000000,0.0000000,0.000,0.000,0.000,0.000,0,00:00:00,0,0.000,0.000,0.000,0.000,0.000,0.000,0.000,0.000,0.000,0.000,0.000,0.000,0.000,0.000
17.438,0,0,-1.268,-0.237,-17.940,-1.313,-0.325,-40.942,-0.537,-0.191,-9.763,0.000,0.000,0.0103675,0.000,9144.000,0.124,2.038,1013.203,15.051,0.389,0.362,-9.776,-0.065,0.249,-0.026,0.019,0.020,0.000,0.000,0.000,0.002,0.697,-0.007,0.717,0.0000000,0.0000000,0.000,0.000,0.000,0.000,0,00:00:00,0,0.000,0.000,0.000,0.000,0.000,0.000,0.000,0.000,0.000,0.000,0.000,0.000,0.000,0.000
17.539,0,0,-1.268,-0.244,-19.028,-1.288,-0.313,-39.624,-0.416,-0.013,-9.860,0.000,0.000,0.0103675,0.000,9144.000,0.121,1.694,1013.248,15.049,0.014,-0.025,-9.867,0.110,0.172,-0.003,-0.025,0.010,0.000,0.000,0.000,0.006,0.698,-0.003,0.716,0.0000000,0.0000000,0.000,0.000,0.000,0.000,0,00:00:00,0,0.000,0.000,0.000,0.000,0.000,0.000,0.000,0.000,0.000,0.000,0.000,0.000,0.000,0.000
17.640,0,0,-1.267,-0.250,-19.827,-1.288,-0.322,-38.172,-0.661,-0.217,-9.693,0.000,0.000,0.0103675,0.000,9144.000,0.117,1.417,1013.228,15.051,0.187,0.127,-9.711,-0.078,0.361,0.018,-0.001,0.001,0.000,0.000,0.000,0.004,0.696,-0.006,0.718,0.0000000,0.0000000,0.000,0.000,0.000,0.000,0,00:00:00,0,0.000,0.000,0.000,0.000,0.000,0.000,0.000,0.000,0.000,0.000,0.000,0.000,0.000,0.000
17.741,0,0,-1.266,-0.256,-20.398,-1.302,-0.316,-36.661,-0.809,-0.074,-9.699,0.000,0.000,0.0103675,0.000,9144.000,0.112,1.775,1013.235,15.052,0.124,0.057,-9.723,0.074,0.444,0.011,0.013,0.011,0.000,0.000,0.000,0.006,0.694,-0.004,0.720,0.0000000,0.0000000,0.000,0.000,0.000,0.000,0,00:00:00,0,0.000,0.000,0.000,0.000,0.000,0.000,0.000,0.000,0.000,0.000,0.000,0.000,0.000,0.000
17.842,0,0,-1.266,-0.261,-20.772,-1.287,-0.320,-35.105,-0.519,-0.176,-9.570,0.000,0.000,0.0103675,0.000,9144.000,0.108,2.156,1013.254,15.049,-0.033,-0.053,-9.583,-0.013,0.223,0.016,-0.010,-0.015,0.000,0.000,0.000,0.006,0.696,-0.006,0.718,0.0000000,0.0000000,0.000,0.000,0.000,0.000,0,00:00:00,0,0.000,0.000,0.000,0.000,0.000,0.000,0.000,0.000,0.000,0.000,0.000,0.000,0.000,0.000
17.943,0,0,-1.267,-0.266,-20.919,-1.326,-0.318,-33.525,-1.046,-0.123,-9.873,0.000,0.000,0.0103675,0.000,9144.000,0.103,1.773,1013.224,15.048,0.217,0.241,-9.912,0.050,0.588,0.006,-0.024,-0.013,0.000,0.000,0.000,0.007,0.691,-0.006,0.723,0.0000000,0.0000000,0.000,0.000,0.000,0.000,0,00:00:00,0,0.000,0.000,0.000,0.000,0.000,0.000,0.000,0.000,0.000,0.000,0.000,0.000,0.000,0.000
18.044,0,0,-1.271,-0.270,-20.927,-1.355,-0.321,-31.945,-0.958,-0.170,-9.719,0.000,0.000,0.0103675,0.000,9144.000,0.099,2.652,1013.242,15.051,0.070,0.105,-9.755,-0.005,0.485,-0.008,-0.012,-0.009,0.000,0.000,0.000,0.006,0.690,-0.006,0.724,0.0000000,0.0000000,0.000,0.000,0.000,0.000,0,00:00:00,0,0.000,0.000,0.000,0.000,0.000,0.000,0.000,0.000,0.000,0.000,0.000,0.000,0.000,0.000
18.145,0,0,-1.277,-0.274,-20.817,-1.380,-0.319,-30.397,-0.918,-0.124,-9.718,0.000,0.000,0.0103675,0.000,9144.000,0.094,2.783,1013.267,15.050,-0.138,-0.046,-9.752,0.077,0.440,0.037,-0.046,-0.022,0.000,0.000,0.000,0.008,0.689,-0.006,0.724,0.0000000,0.0000000,0.000,0.000,0.000,0.000,0,00:00:00,0,0.000,0.000,0.000,0.000,0.000,0.000,0.000,0.000,0.000,0.000,0.000,0.000,0.000,0.000
18.246,0,0,-1.283,-0.277,-20.594,-1.373,-0.321,-28.874,-0.601,-0.165,-9.645,0.000,0.000,0.0103675,0.000,9144.000,0.090,2.813,1013.272,15.050,-0.183,-0.087,-9.662,0.011,0.245,-0.025,0.008,0.012,0.000,0.000,0.000,0.007,0.694,-0.006,0.720,0.0000000,0.0000000,0.000,0.000,0.000,0.000,0,00:00:00,0,0.000,0.000,0.000,0.000,0.000,0.000,0.000,0.000,0.000,0.000,0.000,0.000,0.000,0.000
18.347,0,0,-1.288,-0.280,-20.259,-1.380,-0.308,-27.381,-0.748,-0.022,-9.630,0.000,0.000,0.0103675,0.000,9144.000,0.085,2.110,1013.263,15.049,-0.108,-0.012,-9.650,0.156,0.388,0.005,0.021,-0.009,0.000,0.000,0.000,0.010,0.694,-0.004,0.720,0.0000000,0.0000000,0.000,0.000,0.000,0.000,0,00:00:00,0,0.000,0.000,0.000,0.000,0.000,0.000,0.000,0.000,0.000,0.000,0.000,0.000,0.000,0.000
18.448,0,0,-1.295,-0.283,-19.869,-1.403,-0.319,-25.974,-0.907,-0.259,-9.779,0.000,0.000,0.0103675,0.000,9144.000,0.081,2.144,1013.279,15.049,-0.242,-0.201,-9.812,-0.066,0.493,0.008,0.029,-0.025,0.000,0.000,0.000,0.007,0.692,-0.007,0.722,0.0000000,0.0000000,0.000,0.000,0.000,0.000,0,00:00:00,0,0.000,0.000,0.000,0.000,0.000,0.000,0.000,0.000,0.000,0.000,0.000,0.000,0.000,0.000
18.549,0,0,-1.303,-0.285,-19.403,-1.439,-0.321,-24.610,-1.046,-0.166,-9.722,0.000,0.000,0.0103675,0.000,9144.000,0.077,2.426,1013.272,15.049,-0.181,-0.141,-9.763,0.037,0.568,0.010,0.023,-0.027,0.000,0.000,0.000,0.007,0.690,-0.007,0.724,0.0000000,0.0000000,0.000,0.000,0.000,0.000,0,00:00:00,0,0.000,0.000,0.000,0.000,0.000,0.000,0.000,0.000,0.000,0.000,0.000,0.000,0.000,0.000
18.650,0,0,-1.313,-0.289,-18.841,-1.431,-0.338,-23.283,-0.608,-0.323,-9.764,0.000,0.000,0.0103675,0.000,9144.000,0.073,2.811,1013.234,15.048,0.137,0.157,-9.784,-0.099,0.263,0.016,0.049,-0.050,0.000,0.000,0.000,0.005,0.694,-0.011,0.719,0.0000000,0.0000000,0.000,0.000,0.000,0.000,0,00:00:00,0,0.000,0.000,0.000,0.000,0.000,0.000,0.000,0.000,0.000,0.000,0.000,0.000,0.000,0.000
18.751,0,0,-1.320,-0.293,-18.246,-1.416,-0.357,-22.030,-0.541,-0.341,-9.767,0.000,0.000,0.0103675,0.000,9144.000,0.069,2.037,1013.234,15.048,0.137,0.143,-9.784,-0.099,0.263,0.016,0.049,-0.050,0.000,0.000,0.000,0.004,0.697,-0.013,0.717,0.0000000,0.0000000,0.000,0.000,0.000,0.000,0,00:00:00,0,0.000,0.000,0.000,0.000,0.000,0.000,0.000,0.000,0.000,0.000,0.000,0.000,0.000,0.000
18.852,0,0,-1.325,-0.300,-17.628,-1.397,-0.377,-20.856,-0.507,-0.359,-9.769,0.000,0.000,0.0103675,0.000,9144.000,0.065,1.650,1013.234,15.048,0.137,0.116,-9.784,-0.099,0.263,0.016,0.049,-0.050,0.000,0.000,0.000,0.004,0.698,-0.014,0.716,0.0000000,0.0000000,0.000,0.000,0.000,0.000,0,00:00:00,0,0.000,0.000,0.000,0.000,0.000,0.000,0.000,0.000,0.000,0.000,0.000,0.000,0.000,0.000
18.953,0,0,-1.327,-0.307,-17.003,-1.376,-0.399,-19.764,-0.490,-0.377,-9.769,0.000,0.000,0.0103675,0.000,9144.000,0.062,1.457,1013.234,15.048,0.137,0.063,-9.784,-0.099,0.263,0.016,0.049,-0.050,0.000,0.000,0.000,0.005,0.699,-0.015,0.715,0.0000000,0.0000000,0.000,0.000,0.000,0.000,0,00:00:00,0,0.000,0.000,0.000,0.000,0.000,0.000,0.000,0.000,0.000,0.000,0.000,0.000,0.000,0.000
19.054,0,0,-1.329,-0.315,-16.380,-1.384,-0.406,-18.756,-0.780,-0.239,-9.764,0.000,0.000,0.0103675,0.000,9144.000,0.058,1.360,1013.241,15.052,0.077,-0.003,-9.788,0.013,0.447,-0.028,0.010,-0.006,0.000,0.000,0.000,0.006,0.695,-0.011,0.719,0.0000000,0.0000000,0.000,0.000,0.000,0.000,0,00:00:00,0,0.000,0.000,0.000,0.000,0.000,0.000,0.000,0.000,0.000,0.000,0.000,0.000,0.000,0.000
19.155,0,0,-1.330,-0.324,-15.771,-1.376,-0.427,-17.850,-0.628,-0.378,-9.924,0.000,0.000,0.0103675,0.000,9144.000,0.055,1.959,1013.252,15.051,-0.013,-0.102,-9.945,-0.124,0.312,-0.001,0.012,-0.004,0.000,0.000,0.000,0.005,0.696,-0.012,0.718,0.0000000,0.0000000,0.000,0.000,0.000,0.000,0,00:00:00,0,0.000,0.000,0.000,0.000,0.000,0.000,0.000,0.000,0.000,0.000,0.000,0.000,0.000,0.000
19.256,0,0,-1.332,-0.333,-15.193,-1.386,-0.445,-17.035,-0.790,-0.345,-9.910,0.000,0.000,0.0103675,0.000,9144.000,0.053,1.842,1013.272,15.050,-0.186,-0.277,-9.939,-0.069,0.418,0.021,-0.014,0.008,0.000,0.000,0.000,0.007,0.694,-0.013,0.720,0.0000000,0.0000000,0.000,0.000,0.000,0.000,0,00:00:00,0,0.000,0.000,0.000,0.000,0.000,0.000,0.000,0.000,0.000,0.000,0.000,0.000,0.000,0.000
19.357,0,0,-1.335,-0.342,-14.585,-1.404,-0.440,-16.246,-0.882,-0.133,-9.789,0.000,0.000,0.0103675,0.000,9144.000,0.050,2.166,1013.243,15.049,0.061,0.007,-9.817,0.127,0.466,-0.009,0.005,-0.008,0.000,0.000,0.000,0.010,0.692,-0.009,0.722,0.0000000,0.0000000,0.000,0.000,0.000,0.000,0,00:00:00,0,0.000,0.000,0.000,0.000,0.000,0.000,0.000,0.000,0.000,0.000,0.000,0.000,0.000,0.000
19.458,0,0,-1.339,-0.351,-13.965,-1.419,-0.441,-15.492,-0.857,-0.198,-9.613,0.000,0.000,0.0103675,0.000,9144.000,0.048,2.428,1013.227,15.051,0.196,0.205,-9.643,0.074,0.423,0.018,-0.036,-0.017,0.000,0.000,0.000,0.011,0.691,-0.009,0.723,0.0000000,0.0000000,0.000,0.000,0.000,0.000,0,00:00:00,0,0.000,0.000,0.000,0.000,0.000,0.000,0.000,0.000,0.000,0.000,0.000,0.000,0.000,0.000
19.559,0,0,-1.342,-0.359,-13.379,-1.400,-0.454,-14.823,-0.517,-0.316,-9.658,0.000,0.000,0.0103675,0.000,9144.000,0.046,2.574,1013.239,15.050,0.093,0.122,-9.674,-0.093,0.193,-0.054,-0.024,-0.003,0.000,0.000,0.000,0.007,0.695,-0.009,0.719,0.0000000,0.0000000,0.000,0.000,0.000,0.000,0,00:00:00,0,0.000,0.000,0.000,0.000,0.000,0.000,0.000,0.000,0.000,0.000,0.000,0.000,0.000,0.000
19.660,0,0,-1.344,-0.367,-12.829,-1.406,-0.468,-14.248,-0.767,-0.332,-9.822,0.000,0.000,0.0103675,0.000,9144.000,0.044,1.926,1013.250,15.051,0.004,0.038,-9.848,-0.118,0.408,-0.016,0.014,0.005,0.000,0.000,0.000,0.005,0.694,-0.010,0.720,0.0000000,0.0000000,0.000,0.000,0.000,0.000,0,00:00:00,0,0.000,0.000,0.000,0.000,0.000,0.000,0.000,0.000,0.000,0.000,0.000,0.000,0.000,0.000
19.761,0,0,-1.347,-0.376,-12.309,-1.419,-0.471,-13.735,-0.838,-0.222,-9.776,0.000,0.000,0.0103675,0.000,9144.000,0.042,2.108,1013.252,15.051,-0.017,0.015,-9.804,-0.001,0.440,0.010,0.001,0.015,0.000,0.000,0.000,0.007,0.693,-0.009,0.721,0.0000000,0.0000000,0.000,0.000,0.000,0.000,0,00:00:00,0,0.000,0.000,0.000,0.000,0.000,0.000,0.000,0.000,0.000,0.000,0.000,0.000,0.000,0.000
19.862,0,0,-1.350,-0.384,-11.831,-1.392,-0.476,-13.288,-0.437,-0.253,-9.745,0.000,0.000,0.0103675,0.000,9144.000,0.041,2.335,1013.262,15.048,-0.096,-0.081,-9.757,-0.015,0.159,0.020,-0.002,-0.016,0.000,0.000,0.000,0.007,0.697,-0.010,0.717,0.0000000,0.0000000,0.000,0.000,0.000,0.000,0,00:00:00,0,0.000,0.000,0.000,0.000,0.000,0.000,0.000,0.000,0.000,0.000,0.000,0.000,0.000,0.000
