State - Time (s),State - Stage,State - Stage,State - PX (m),State - PY (m),State - PZ (m),State - VX (m/s),State - VY (m/s),State - VZ (m/s),State - AX (m/s/s),State - AY (m/s/s),State - AZ (m/s/s),State - Actuation Angle (deg),State - Acutal Angle (deg),State - CdA,State - Est Apo (m),State - Target Apogee (m),State - Mach Number,State - Tilt [deg],MockBarometer - Pres (hPa),MockBarometer - Temp (C),MockBarometer - Alt ASL (m),MockBarometer - Alt AGL (m),MockIMU - AccX (m/s^2),MockIMU - AccY (m/s^2),MockIMU - AccZ (m/s^2),MockIMU - GyroX (rad/s),MockIMU - GyroY (rad/s),MockIMU - GyroZ (rad/s),MockIMU - MagX (uT),MockIMU - MagY (uT),MockIMU - MagZ (uT),MockIMU - OriX,MockIMU - OriY,MockIMU - OriZ,MockIMU - OriW,MockGPS - Lat,MockGPS - Lon,MockGPS - Alt (m),MockGPS - Disp X (m),MockGPS - Disp Y (m),MockGPS - Disp Z (m),MockGPS - Fix Quality,MockGPS - Time of Day,E5 - Rel Steps,BR - Battery Voltage (V),BR - ALT (m),BR - PRES (Pa),BR - TEMP (C),BR - VEL (m/s),BR - ANG (deg),BR - ACCX (m/s^2),BR - ACCY (m/s^2),BR - ACCZ (m/s^2),BR - GYROX (rad/s),BR - GYROY (rad/s),BR - GYROZ (rad/s),BR - ROLL (deg),BR - TILT (deg)
15.885,0,0,0.000,0.000,0.000,0.000,0.000,0.000,0.000,0.000,0.000,0.000,0.000,0.0103675,0.000,9144.000,0.000,0.000,0.000,0.000,44307.690,0.000,0.000,0.000,0.000,0.000,0.000,0.000,0.000,0.000,0.000,0.000,0.000,0.000,1.000,0.0000000,0.0000000,0.000,0.000,0.000,0.000,0,00:00:00,0,0.000,0.000,0.000,0.000,0.000,0.000,0.000,0.000,0.000,0.000,0.000,0.000,0.000,0.000
15.986,0,0,-0.000,0.000,-5474.711,-0.750,0.011,-689.946,-7.477,0.108,-6.504,0.000,0.000,0.0103675,0.000,9144.000,0.000,90.000,1013.275,15.050,-0.207,-5474.986,-9.899,0.093,0.467,-0.020,0.024,0.025,0.000,0.000,0.000,0.002,0.372,0.002,0.928,0.0000000,0.0000000,0.000,0.000,0.000,0.000,0,00:00:00,0,0.000,0.000,0.000,0.000,0.000,0.000,0.000,0.000,0.000,0.000,0.000,0.000,0.000,0.000
16.087,0,0,-0.048,0.000,-4402.889,-1.171,-0.006,-548.221,-4.228,-0.165,-9.006,0.000,0.000,0.0103675,0.000,9144.000,2.031,46.283,1013.239,15.050,0.088,-3289.804,-9.946,-0.182,0.226,-0.009,-0.021,-0.013,0.000,0.000,0.000,-0.004,0.546,-0.001,0.838,0.0000000,0.0000000,0.000,0.000,0.000,0.000,0,00:00:00,0,0.000,0.000,0.000,0.000,0.000,0.000,0.000,0.000,0.000,0.000,0.000,0.000,0.000,0.000
16.188,0,0,-0.118,-0.000,-3741.141,-1.428,-0.005,-458.078,-2.621,0.005,-9.577,0.000,0.000,0.0103675,0.000,9144.000,1.614,23.854,1013.246,15.050,0.037,-2360.206,-9.921,-0.045,0.398,-0.028,0.023,-0.020,0.000,0.000,0.000,-0.005,0.622,-0.000,0.783,0.0000000,0.0000000,0.000,0.000,0.000,0.000,0,00:00:00,0,0.000,0.000,0.000,0.000,0.000,0.000,0.000,0.000,0.000,0.000,0.000,0.000,0.000,0.000
16.289,0,0,-0.200,-0.000,-3282.047,-1.563,-0.002,-391.186,-1.414,0.032,-9.849,0.000,0.000,0.0103675,0.000,9144.000,1.348,13.009,1013.237,15.049,0.112,-1841.846,-9.948,-0.024,0.207,0.000,0.044,-0.014,0.000,0.000,0.000,-0.004,0.663,0.000,0.749,0.0000000,0.0000000,0.000,0.000,0.000,0.000,0,00:00:00,0,0.000,0.000,0.000,0.000,0.000,0.000,0.000,0.000,0.000,0.000,0.000,0.000,0.000,0.000
16.390,0,0,-0.286,-0.000,-2939.682,-1.643,0.001,-335.419,-0.894,0.033,-9.910,0.000,0.000,0.0103675,0.000,9144.000,1.152,6.975,1013.237,15.049,0.112,-1510.718,-9.948,-0.024,0.207,0.000,0.044,-0.014,0.000,0.000,0.000,-0.004,0.682,0.000,0.731,0.0000000,0.0000000,0.000,0.000,0.000,0.000,0,00:00:00,0,0.000,0.000,0.000,0.000,0.000,0.000,0.000,0.000,0.000,0.000,0.000,0.000,0.000,0.000
16.491,0,0,-0.375,0.000,-2670.832,-1.700,0.007,-284.503,-0.662,0.059,-9.870,0.000,0.000,0.0103675,0.000,9144.000,0.987,3.959,1013.240,15.049,0.080,-1280.731,-9.890,0.040,0.222,0.043,0.024,0.041,0.000,0.000,0.000,-0.000,0.691,0.001,0.723,0.0000000,0.0000000,0.000,0.000,0.000,0.000,0,00:00:00,0,0.000,0.000,0.000,0.000,0.000,0.000,0.000,0.000,0.000,0.000,0.000,0.000,0.000,0.000
16.592,0,0,-0.465,0.001,-2450.865,-1.767,0.006,-234.812,-0.777,-0.011,-9.685,0.000,0.000,0.0103675,0.000,9144.000,0.838,2.553,1013.244,15.052,0.048,-1111.616,-9.709,-0.027,0.366,0.001,-0.024,-0.019,0.000,0.000,0.000,-0.001,0.692,0.000,0.722,0.0000000,0.0000000,0.000,0.000,0.000,0.000,0,00:00:00,0,0.000,0.000,0.000,0.000,0.000,0.000,0.000,0.000,0.000,0.000,0.000,0.000,0.000,0.000
16.693,0,0,-0.561,0.001,-2264.414,-1.864,0.006,-184.172,-1.092,-0.000,-9.641,0.000,0.000,0.0103675,0.000,9144.000,0.691,2.427,1013.223,15.049,0.226,-981.823,-9.685,-0.008,0.584,0.007,-0.025,-0.011,0.000,0.000,0.000,-0.001,0.688,-0.000,0.725,0.0000000,0.0000000,0.000,0.000,0.000,0.000,0,00:00:00,0,0.000,0.000,0.000,0.000,0.000,0.000,0.000,0.000,0.000,0.000,0.000,0.000,0.000,0.000
16.794,0,0,-0.659,0.002,-2101.318,-1.916,0.017,-131.327,-0.650,0.110,-9.836,0.000,0.000,0.0103675,0.000,9144.000,0.542,3.011,1013.223,15.050,0.226,-879.307,-9.854,0.088,0.270,-0.012,0.025,0.005,0.000,0.000,0.000,0.001,0.693,0.002,0.721,0.0000000,0.0000000,0.000,0.000,0.000,0.000,0,00:00:00,0,0.000,0.000,0.000,0.000,0.000,0.000,0.000,0.000,0.000,0.000,0.000,0.000,0.000,0.000
16.895,0,0,-0.759,0.004,-1964.584,-1.959,0.030,-79.194,-0.582,0.123,-9.840,0.000,0.000,0.0103675,0.000,9144.000,0.387,2.218,1013.223,15.050,0.226,-879.307,-9.854,0.088,0.270,-0.012,0.025,0.005,0.000,0.000,0.000,0.001,0.696,0.004,0.718,0.0000000,0.0000000,0.000,0.000,0.000,0.000,0,00:00:00,0,0.000,0.000,0.000,0.000,0.000,0.000,0.000,0.000,0.000,0.000,0.000,0.000,0.000,0.000
16.996,0,0,-0.860,0.006,-1845.762,-2.024,0.026,-27.332,-0.826,-0.034,-9.643,0.000,0.000,0.0103675,0.000,9144.000,0.233,1.821,1013.245,15.049,0.044,-879.489,-9.668,-0.068,0.447,-0.003,-0.006,-0.014,0.000,0.000,0.000,-0.002,0.693,0.001,0.721,0.0000000,0.0000000,0.000,0.000,0.000,0.000,0,00:00:00,0,0.000,0.000,0.000,0.000,0.000,0.000,0.000,0.000,0.000,0.000,0.000,0.000,0.000,0.000
17.097,0,0,-0.964,0.008,-1739.299,-2.085,0.040,24.173,-0.815,0.136,-9.665,0.000,0.000,0.0103675,0.000,9144.000,0.081,2.250,1013.231,15.051,0.162,-879.371,-9.690,0.106,0.430,0.006,0.039,-0.027,0.000,0.000,0.000,0.000,0.693,0.002,0.721,0.0000000,0.0000000,0.000,0.000,0.000,0.000,0,00:00:00,0,0.000,0.000,0.000,0.000,0.000,0.000,0.000,0.000,0.000,0.000,0.000,0.000,0.000,0.000
17.198,0,0,-1.068,0.011,-1641.638,-2.127,0.038,74.859,-0.658,-0.012,-9.638,0.000,0.000,0.0103675,0.000,9144.000,0.071,2.282,1013.267,15.049,-0.140,-879.673,-9.655,-0.061,0.318,-0.024,0.023,-0.028,0.000,0.000,0.000,-0.003,0.695,0.001,0.719,0.0000000,0.0000000,0.000,0.000,0.000,0.000,0,00:00:00,0,0.000,0.000,0.000,0.000,0.000,0.000,0.000,0.000,0.000,0.000,0.000,0.000,0.000,0.000
17.299,0,0,-1.173,0.014,-1550.441,-2.174,0.047,124.041,-0.731,0.088,-9.812,0.000,0.000,0.0103675,0.000,9144.000,0.220,2.017,1013.254,15.052,-0.033,-879.566,-9.833,0.020,0.371,-0.019,-0.003,-0.017,0.000,0.000,0.000,-0.003,0.694,0.002,0.720,0.0000000,0.0000000,0.000,0.000,0.000,0.000,0,00:00:00,0,0.000,0.000,0.000,0.000,0.000,0.000,0.000,0.000,0.000,0.000,0.000,0.000,0.000,0.000
17.400,0,0,-1.277,0.018,-1464.364,-2.216,0.057,170.889,-0.738,0.106,-9.812,0.000,0.000,0.0103675,0.000,9144.000,0.365,2.098,1013.254,15.052,-0.033,-879.566,-9.833,0.020,0.371,-0.019,-0.003,-0.017,0.000,0.000,0.000,-0.003,0.694,0.003,0.720,0.0000000,0.0000000,0.000,0.000,0.000,0.000,0,00:00:00,0,0.000,0.000,0.000,0.000,0.000,0.000,0.000,0.000,0.000,0.000,0.000,0.000,0.000,0.000
17.501,0,0,-1.379,0.022,-1382.723,-2.254,0.064,214.514,-0.730,0.076,-9.770,0.000,0.000,0.0103675,0.000,9144.000,0.503,2.138,1013.250,15.049,0.002,-879.531,-9.791,0.006,0.359,0.015,-0.019,-0.029,0.000,0.000,0.000,-0.003,0.694,0.002,0.720,0.0000000,0.0000000,0.000,0.000,0.000,0.000,0,00:00:00,0,0.000,0.000,0.000,0.000,0.000,0.000,0.000,0.000,0.000,0.000,0.000,0.000,0.000,0.000
17.602,0,0,-1.479,0.026,-1305.325,-2.259,0.066,254.044,-0.459,0.026,-9.779,0.000,0.000,0.0103675,0.000,9144.000,0.632,2.174,1013.258,15.052,-0.070,-879.602,-9.789,-0.028,0.179,0.016,-0.009,0.002,0.000,0.000,0.000,-0.003,0.697,0.001,0.717,0.0000000,0.0000000,0.000,0.000,0.000,0.000,0,00:00:00,0,0.000,0.000,0.000,0.000,0.000,0.000,0.000,0.000,0.000,0.000,0.000,0.000,0.000,0.000
17.703,0,0,-1.574,0.031,-1232.233,-2.277,0.080,288.766,-0.634,0.148,-9.899,0.000,0.000,0.0103675,0.000,9144.000,0.748,1.636,1013.221,15.052,0.242,-879.291,-9.915,0.057,0.325,-0.036,-0.011,-0.006,0.000,0.000,0.000,-0.003,0.696,0.004,0.718,0.0000000,0.0000000,0.000,0.000,0.000,0.000,0,00:00:00,0,0.000,0.000,0.000,0.000,0.000,0.000,0.000,0.000,0.000,0.000,0.000,0.000,0.000,0.000
17.804,0,0,-1.666,0.037,-1163.801,-2.305,0.108,318.079,-0.796,0.289,-9.879,0.000,0.000,0.0103675,0.000,9144.000,0.850,1.787,1013.256,15.049,-0.050,-879.583,-9.904,0.185,0.427,-0.009,-0.011,0.007,0.000,0.000,0.000,0.000,0.694,0.007,0.720,0.0000000,0.0000000,0.000,0.000,0.000,0.000,0,00:00:00,0,0.000,0.000,0.000,0.000,0.000,0.000,0.000,0.000,0.000,0.000,0.000,0.000,0.000,0.000
17.905,0,0,-1.754,0.046,-990.845,-2.331,0.137,427.446,-0.827,0.300,-9.876,0.000,0.000,0.0103675,0.000,9144.000,0.936,2.159,1013.256,15.049,-0.050,-0.145,-9.904,0.185,0.427,-0.009,-0.011,0.007,0.000,0.000,0.000,0.002,0.692,0.009,0.721,0.0000000,0.0000000,0.000,0.000,0.000,0.000,0,00:00:00,0,0.000,0.000,0.000,0.000,0.000,0.000,0.000,0.000,0.000,0.000,0.000,0.000,0.000,0.000
18.006,0,0,-1.838,0.055,-826.992,-2.358,0.141,521.925,-0.903,0.059,-9.846,0.000,0.000,0.0103675,0.000,9144.000,1.258,2.345,1013.228,15.049,0.182,0.062,-9.877,-0.028,0.469,0.024,0.002,-0.006,0.000,0.000,0.000,-0.001,0.691,0.005,0.723,0.0000000,0.0000000,0.000,0.000,0.000,0.000,0,00:00:00,0,0.000,0.000,0.000,0.000,0.000,0.000,0.000,0.000,0.000,0.000,0.000,0.000,0.000,0.000
18.107,0,0,-1.917,0.064,-673.614,-2.380,0.132,600.927,-0.914,-0.066,-9.792,0.000,0.000,0.0103675,0.000,9144.000,1.536,2.526,1013.238,15.051,0.104,-0.024,-9.822,-0.131,0.474,0.016,0.023,-0.009,0.000,0.000,0.000,-0.004,0.691,0.001,0.723,0.0000000,0.0000000,0.000,0.000,0.000,0.000,0,00:00:00,0,0.000,0.000,0.000,0.000,0.000,0.000,0.000,0.000,0.000,0.000,0.000,0.000,0.000,0.000
18.208,0,0,-1.991,0.071,-531.754,-2.395,0.120,664.479,-0.904,-0.098,-9.818,0.000,0.000,0.0103675,0.000,9144.000,1.769,2.576,1013.235,15.050,0.126,0.016,-9.848,-0.179,0.457,-0.019,0.001,-0.014,0.000,0.000,0.000,-0.007,0.691,-0.001,0.723,0.0000000,0.0000000,0.000,0.000,0.000,0.000,0,00:00:00,0,0.000,0.000,0.000,0.000,0.000,0.000,0.000,0.000,0.000,0.000,0.000,0.000,0.000,0.000
18.309,0,0,-2.059,0.076,-402.154,-2.401,0.107,713.076,-0.882,-0.096,-9.862,0.000,0.000,0.0103675,0.000,9144.000,1.956,2.612,1013.254,15.052,-0.031,-0.127,-9.891,-0.187,0.434,-0.010,-0.017,0.015,0.000,0.000,0.000,-0.009,0.691,-0.001,0.723,0.0000000,0.0000000,0.000,0.000,0.000,0.000,0,00:00:00,0,0.000,0.000,0.000,0.000,0.000,0.000,0.000,0.000,0.000,0.000,0.000,0.000,0.000,0.000
18.410,0,0,-2.119,0.081,-285.142,-2.385,0.129,747.658,-0.722,0.250,-9.864,0.000,0.000,0.0103675,0.000,9144.000,2.099,2.610,1013.242,15.049,0.070,-0.010,-9.887,0.144,0.327,-0.007,-0.014,0.015,0.000,0.000,0.000,-0.003,0.693,0.004,0.721,0.0000000,0.0000000,0.000,0.000,0.000,0.000,0,00:00:00,0,0.000,0.000,0.000,0.000,0.000,0.000,0.000,0.000,0.000,0.000,0.000,0.000,0.000,0.000
18.511,0,0,-2.171,0.087,-180.764,-2.360,0.151,769.384,-0.692,0.260,-9.866,0.000,0.000,0.0103675,0.000,9144.000,2.201,2.292,1013.242,15.049,0.070,-0.003,-9.887,0.144,0.327,-0.007,-0.014,0.015,0.000,0.000,0.000,-0.001,0.694,0.007,0.720,0.0000000,0.0000000,0.000,0.000,0.000,0.000,0,00:00:00,0,0.000,0.000,0.000,0.000,0.000,0.000,0.000,0.000,0.000,0.000,0.000,0.000,0.000,0.000
18.612,0,0,-2.212,0.095,-88.813,-2.317,0.179,779.555,-0.559,0.316,-9.870,0.000,0.000,0.0103675,0.000,9144.000,2.265,2.134,1013.284,15.051,-0.286,-0.347,-9.885,0.192,0.261,-0.009,0.026,-0.011,0.000,0.000,0.000,0.001,0.696,0.009,0.718,0.0000000,0.0000000,0.000,0.000,0.000,0.000,0,00:00:00,0,0.000,0.000,0.000,0.000,0.000,0.000,0.000,0.000,0.000,0.000,0.000,0.000,0.000,0.000
18.713,0,0,-2.243,0.104,-8.713,-2.263,0.180,779.662,-0.504,0.057,-9.821,0.000,0.000,0.0103675,0.000,9144.000,2.295,1.749,1013.246,15.051,0.037,-0.025,-9.831,-0.046,0.241,0.017,0.016,-0.017,0.000,0.000,0.000,-0.002,0.698,0.005,0.716,0.0000000,0.0000000,0.000,0.000,0.000,0.000,0,00:00:00,0,0.000,0.000,0.000,0.000,0.000,0.000,0.000,0.000,0.000,0.000,0.000,0.000,0.000,0.000
18.814,0,0,-2.264,0.112,60.140,-2.230,0.178,771.084,-0.745,0.032,-9.684,0.000,0.000,0.0103675,0.000,9144.000,2.295,1.530,1013.243,15.048,0.057,0.022,-9.704,-0.072,0.416,-0.003,0.017,0.022,0.000,0.000,0.000,-0.004,0.695,0.004,0.719,0.0000000,0.0000000,0.000,0.000,0.000,0.000,0,00:00:00,0,0.000,0.000,0.000,0.000,0.000,0.000,0.000,0.000,0.000,0.000,0.000,0.000,0.000,0.000
18.915,0,0,-2.277,0.119,118.425,-2.167,0.176,755.081,-0.484,0.039,-9.898,0.000,0.000,0.0103675,0.000,9144.000,2.270,1.943,1013.306,15.047,-0.465,-0.472,-9.907,-0.105,0.214,-0.040,0.011,-0.031,0.000,0.000,0.000,-0.008,0.697,0.003,0.717,0.0000000,0.0000000,0.000,0.000,0.000,0.000,0,00:00:00,0,0.000,0.000,0.000,0.000,0.000,0.000,0.000,0.000,0.000,0.000,0.000,0.000,0.000,0.000
19.016,0,0,-2.280,0.125,167.087,-2.118,0.182,733.051,-0.644,0.127,-9.812,0.000,0.000,0.0103675,0.000,9144.000,2.223,1.560,1013.258,15.052,-0.071,-0.092,-9.828,0.008,0.327,0.024,-0.039,-0.006,0.000,0.000,0.000,-0.006,0.696,0.003,0.718,0.0000000,0.0000000,0.000,0.000,0.000,0.000,0,00:00:00,0,0.000,0.000,0.000,0.000,0.000,0.000,0.000,0.000,0.000,0.000,0.000,0.000,0.000,0.000
19.117,0,0,-2.278,0.132,206.905,-2.109,0.190,706.090,-1.067,0.148,-9.789,0.000,0.000,0.0103675,0.000,9144.000,2.158,1.846,1013.266,15.049,-0.137,-0.152,-9.830,0.068,0.600,0.044,-0.019,0.030,0.000,0.000,0.000,-0.002,0.690,0.004,0.724,0.0000000,0.0000000,0.000,0.000,0.000,0.000,0,00:00:00,0,0.000,0.000,0.000,0.000,0.000,0.000,0.000,0.000,0.000,0.000,0.000,0.000,0.000,0.000
19.218,0,0,-2.271,0.138,238.761,-2.079,0.202,675.275,-0.864,0.186,-9.759,0.000,0.000,0.0103675,0.000,9144.000,2.079,2.727,1013.235,15.050,0.127,0.085,-9.789,0.136,0.420,0.030,-0.005,-0.029,0.000,0.000,0.000,0.001,0.691,0.004,0.723,0.0000000,0.0000000,0.000,0.000,0.000,0.000,0,00:00:00,0,0.000,0.000,0.000,0.000,0.000,0.000,0.000,0.000,0.000,0.000,0.000,0.000,0.000,0.000
19.319,0,0,-2.260,0.144,263.439,-2.054,0.183,641.516,-0.935,-0.109,-9.606,0.000,0.000,0.0103675,0.000,9144.000,1.988,2.606,1013.233,15.052,0.145,0.103,-9.639,-0.152,0.486,0.003,0.026,0.027,0.000,0.000,0.000,-0.003,0.690,0.001,0.723,0.0000000,0.0000000,0.000,0.000,0.000,0.000,0,00:00:00,0,0.000,0.000,0.000,0.000,0.000,0.000,0.000,0.000,0.000,0.000,0.000,0.000,0.000,0.000
19.420,0,0,-2.246,0.148,281.769,-2.031,0.185,605.634,-0.954,0.089,-9.732,0.000,0.000,0.0103675,0.000,9144.000,1.888,2.671,1013.189,15.052,0.511,0.459,-9.767,0.020,0.480,-0.023,-0.015,0.028,0.000,0.000,0.000,-0.002,0.690,0.003,0.724,0.0000000,0.0000000,0.000,0.000,0.000,0.000,0,00:00:00,0,0.000,0.000,0.000,0.000,0.000,0.000,0.000,0.000,0.000,0.000,0.000,0.000,0.000,0.000
19.521,0,0,-2.227,0.151,294.333,-1.988,0.187,568.221,-0.752,0.105,-9.854,0.000,0.000,0.0103675,0.000,9144.000,1.783,2.784,1013.271,15.048,-0.176,-0.235,-9.877,0.029,0.339,-0.006,-0.009,0.014,0.000,0.000,0.000,-0.002,0.692,0.004,0.722,0.0000000,0.0000000,0.000,0.000,0.000,0.000,0,00:00:00,0,0.000,0.000,0.000,0.000,0.000,0.000,0.000,0.000,0.000,0.000,0.000,0.000,0.000,0.000
19.622,0,0,-2.204,0.155,301.982,-1.927,0.186,530.019,-0.580,0.069,-9.965,0.000,0.000,0.0103675,0.000,9144.000,1.673,2.401,1013.224,15.052,0.219,0.182,-9.979,-0.001,0.254,0.005,0.019,-0.024,0.000,0.000,0.000,-0.002,0.695,0.003,0.719,0.0000000,0.0000000,0.000,0.000,0.000,0.000,0,00:00:00,0,0.000,0.000,0.000,0.000,0.000,0.000,0.000,0.000,0.000,0.000,0.000,0.000,0.000,0.000
19.723,0,0,-2.177,0.157,305.224,-1.899,0.177,491.491,-0.893,-0.006,-9.683,0.000,0.000,0.0103675,0.000,9144.000,1.560,1.876,1013.285,15.050,-0.292,-0.309,-9.712,-0.074,0.482,-0.001,-0.023,-0.001,0.000,0.000,0.000,-0.004,0.692,0.001,0.722,0.0000000,0.0000000,0.000,0.000,0.000,0.000,0,00:00:00,0,0.000,0.000,0.000,0.000,0.000,0.000,0.000,0.000,0.000,0.000,0.000,0.000,0.000,0.000
19.824,0,0,-2.148,0.159,304.785,-1.845,0.189,453.151,-0.623,0.212,-9.825,0.000,0.000,0.0103675,0.000,9144.000,1.447,2.425,1013.229,15.053,0.176,0.148,-9.842,0.159,0.271,0.020,-0.020,0.001,0.000,0.000,0.000,0.000,0.694,0.004,0.720,0.0000000,0.0000000,0.000,0.000,0.000,0.000,0,00:00:00,0,0.000,0.000,0.000,0.000,0.000,0.000,0.000,0.000,0.000,0.000,0.000,0.000,0.000,0.000
19.925,0,0,-2.115,0.161,301.104,-1.792,0.175,415.313,-0.627,-0.055,-9.809,0.000,0.000,0.0103675,0.000,9144.000,1.334,2.059,1013.261,15.050,-0.092,-0.078,-9.824,-0.086,0.296,0.021,-0.015,0.016,0.000,0.000,0.000,-0.001,0.695,0.001,0.719,0.0000000,0.0000000,0.000,0.000,0.000,0.000,0,00:00:00,0,0.000,0.000,0.000,0.000,0.000,0.000,0.000,0.000,0.000,0.000,0.000,0.000,0.000,0.000
20.026,0,0,-2.080,0.162,294.691,-1.743,0.160,378.311,-0.644,-0.060,-9.776,0.000,0.000,0.0103675,0.000,9144.000,1.223,1.935,1013.277,15.051,-0.225,-0.187,-9.791,-0.137,0.321,-0.049,0.003,0.005,0.000,0.000,0.000,-0.005,0.695,0.000,0.719,0.0000000,0.0000000,0.000,0.000,0.000,0.000,0,00:00:00,0,0.000,0.000,0.000,0.000,0.000,0.000,0.000,0.000,0.000,0.000,0.000,0.000,0.000,0.000
20.127,0,0,-2.043,0.161,286.064,-1.704,0.161,342.441,-0.723,0.097,-9.925,0.000,0.000,0.0103675,0.000,9144.000,1.114,1.897,1013.237,15.048,0.107,0.170,-9.945,-0.016,0.377,-0.035,0.013,0.007,0.000,0.000,0.000,-0.005,0.695,0.003,0.719,0.0000000,0.0000000,0.000,0.000,0.000,0.000,0,00:00:00,0,0.000,0.000,0.000,0.000,0.000,0.000,0.000,0.000,0.000,0.000,0.000,0.000,0.000,0.000
20.228,0,0,-2.007,0.160,275.588,-1.703,0.153,307.924,-1.074,0.013,-9.646,0.000,0.000,0.0103675,0.000,9144.000,1.008,1.995,1013.226,15.051,0.203,0.265,-9.686,-0.103,0.610,-0.012,0.018,-0.015,0.000,0.000,0.000,-0.007,0.690,0.002,0.724,0.0000000,0.0000000,0.000,0.000,0.000,0.000,0,00:00:00,0,0.000,0.000,0.000,0.000,0.000,0.000,0.000,0.000,0.000,0.000,0.000,0.000,0.000,0.000
20.329,0,0,-1.971,0.158,263.551,-1.647,0.128,274.844,-0.522,-0.163,-9.633,0.000,0.000,0.0103675,0.000,9144.000,0.906,2.746,1013.282,15.051,-0.264,-0.218,-9.642,-0.283,0.204,0.000,0.027,0.020,0.000,0.000,0.000,-0.011,0.695,-0.002,0.719,0.0000000,0.0000000,0.000,0.000,0.000,0.000,0,00:00:00,0,0.000,0.000,0.000,0.000,0.000,0.000,0.000,0.000,0.000,0.000,0.000,0.000,0.000,0.000
20.430,0,0,-1.934,0.155,250.410,-1.607,0.120,243.415,-0.647,-0.002,-9.760,0.000,0.000,0.0103675,0.000,9144.000,0.809,1.902,1013.230,15.051,0.165,0.166,-9.775,-0.152,0.319,-0.030,-0.014,-0.007,0.000,0.000,0.000,-0.012,0.695,-0.000,0.719,0.0000000,0.0000000,0.000,0.000,0.000,0.000,0,00:00:00,0,0.000,0.000,0.000,0.000,0.000,0.000,0.000,0.000,0.000,0.000,0.000,0.000,0.000,0.000
20.531,0,0,-1.896,0.151,236.407,-1.568,0.114,213.705,-0.649,0.027,-9.760,0.000,0.000,0.0103675,0.000,9144.000,0.717,1.922,1013.230,15.051,0.165,0.190,-9.775,-0.152,0.319,-0.030,-0.014,-0.007,0.000,0.000,0.000,-0.013,0.695,0.001,0.719,0.0000000,0.0000000,0.000,0.000,0.000,0.000,0,00:00:00,0,0.000,0.000,0.000,0.000,0.000,0.000,0.000,0.000,0.000,0.000,0.000,0.000,0.000,0.000
20.632,0,0,-1.858,0.147,221.749,-1.527,0.127,185.724,-0.593,0.212,-9.887,0.000,0.000,0.0103675,0.000,9144.000,0.629,1.933,1013.270,15.050,-0.169,-0.194,-9.903,0.020,0.279,-0.008,-0.013,-0.031,0.000,0.000,0.000,-0.010,0.696,0.004,0.718,0.0000000,0.0000000,0.000,0.000,0.000,0.000,0,00:00:00,0,0.000,0.000,0.000,0.000,0.000,0.000,0.000,0.000,0.000,0.000,0.000,0.000,0.000,0.000
20.733,0,0,-1.821,0.145,206.768,-1.513,0.126,159.609,-0.849,0.059,-9.822,0.000,0.000,0.0103675,0.000,9144.000,0.547,1.810,1013.240,15.051,0.084,0.092,-9.847,-0.144,0.460,-0.018,-0.007,-0.004,0.000,0.000,0.000,-0.012,0.693,0.004,0.721,0.0000000,0.0000000,0.000,0.000,0.000,0.000,0,00:00:00,0,0.000,0.000,0.000,0.000,0.000,0.000,0.000,0.000,0.000,0.000,0.000,0.000,0.000,0.000
20.834,0,0,-1.784,0.143,191.550,-1.456,0.134,135.279,-0.388,0.165,-9.814,0.000,0.000,0.0103675,0.000,9144.000,0.470,2.261,1013.304,15.051,-0.446,-0.450,-9.822,-0.050,0.129,-0.006,0.000,0.001,0.000,0.000,0.000,-0.011,0.698,0.005,0.716,0.0000000,0.0000000,0.000,0.000,0.000,0.000,0,00:00:00,0,0.000,0.000,0.000,0.000,0.000,0.000,0.000,0.000,0.000,0.000,0.000,0.000,0.000,0.000
20.935,0,0,-1.747,0.142,176.368,-1.425,0.134,112.808,-0.638,0.069,-9.766,0.000,0.000,0.0103675,0.000,9144.000,0.398,1.505,1013.290,15.050,-0.330,-0.371,-9.780,-0.146,0.346,-0.005,0.020,0.003,0.000,0.000,0.000,-0.012,0.696,0.004,0.718,0.0000000,0.0000000,0.000,0.000,0.000,0.000,0,00:00:00,0,0.000,0.000,0.000,0.000,0.000,0.000,0.000,0.000,0.000,0.000,0.000,0.000,0.000,0.000
21.036,0,0,-1.710,0.141,161.429,-1.398,0.137,92.190,-0.651,0.109,-9.944,0.000,0.000,0.0103675,0.000,9144.000,0.332,1.708,1013.235,15.047,0.127,0.102,-9.959,-0.126,0.341,-0.016,0.020,0.020,0.000,0.000,0.000,-0.012,0.696,0.005,0.718,0.0000000,0.0000000,0.000,0.000,0.000,0.000,0,00:00:00,0,0.000,0.000,0.000,0.000,0.000,0.000,0.000,0.000,0.000,0.000,0.000,0.000,0.000,0.000
21.137,0,0,-1.675,0.140,146.739,-1.363,0.137,73.298,-0.546,0.073,-10.039,0.000,0.000,0.0103675,0.000,9144.000,0.271,1.776,1013.279,15.048,-0.243,-0.293,-10.050,-0.153,0.270,0.011,0.031,-0.000,0.000,0.000,0.000,-0.013,0.697,0.004,0.717,0.0000000,0.0000000,0.000,0.000,0.000,0.000,0,00:00:00,0,0.000,0.000,0.000,0.000,0.000,0.000,0.000,0.000,0.000,0.000,0.000,0.000,0.000,0.000
21.238,0,0,-1.639,0.140,132.456,-1.335,0.158,56.181,-0.595,0.281,-9.534,0.000,0.000,0.0103675,0.000,9144.000,0.216,1.568,1013.289,15.049,-0.322,-0.380,-9.552,0.091,0.300,0.029,-0.028,-0.010,0.000,0.000,0.000,-0.008,0.696,0.006,0.718,0.0000000,0.0000000,0.000,0.000,0.000,0.000,0,00:00:00,0,0.000,0.000,0.000,0.000,0.000,0.000,0.000,0.000,0.000,0.000,0.000,0.000,0.000,0.000
21.339,0,0,-1.605,0.143,118.758,-1.316,0.196,40.766,-0.675,0.451,-9.753,0.000,0.000,0.0103675,0.000,9144.000,0.165,1.766,1013.233,15.051,0.145,0.128,-9.777,0.258,0.363,0.008,0.029,0.016,0.000,0.000,0.000,-0.002,0.696,0.011,0.718,0.0000000,0.0000000,0.000,0.000,0.000,0.000,0,00:00:00,0,0.000,0.000,0.000,0.000,0.000,0.000,0.000,0.000,0.000,0.000,0.000,0.000,0.000,0.000
21.440,0,0,-1.574,0.149,105.669,-1.311,0.231,26.974,-0.785,0.428,-9.689,0.000,0.000,0.0103675,0.000,9144.000,0.120,1.864,1013.211,15.052,0.321,0.339,-9.719,0.222,0.416,-0.010,-0.027,0.031,0.000,0.000,0.000,-0.000,0.693,0.014,0.721,0.0000000,0.0000000,0.000,0.000,0.000,0.000,0,00:00:00,0,0.000,0.000,0.000,0.000,0.000,0.000,0.000,0.000,0.000,0.000,0.000,0.000,0.000,0.000
21.541,0,0,-1.544,0.157,93.170,-1.298,0.245,14.648,-0.694,0.222,-9.819,0.000,0.000,0.0103675,0.000,9144.000,0.080,2.232,1013.246,15.050,0.037,0.021,-9.840,-0.000,0.340,-0.019,0.010,0.016,0.000,0.000,0.000,-0.004,0.694,0.012,0.720,0.0000000,0.0000000,0.000,0.000,0.000,0.000,0,00:00:00,0,0.000,0.000,0.000,0.000,0.000,0.000,0.000,0.000,0.000,0.000,0.000,0.000,0.000,0.000
21.642,0,0,-1.515,0.164,81.400,-1.266,0.242,3.799,-0.480,0.062,-9.794,0.000,0.000,0.0103675,0.000,9144.000,0.043,2.077,1013.207,15.049,0.354,0.377,-9.803,-0.139,0.200,0.016,-0.005,-0.018,0.000,0.000,0.000,-0.008,0.697,0.006,0.717,0.0000000,0.0000000,0.000,0.000,0.000,0.000,0,00:00:00,0,0.000,0.000,0.000,0.000,0.000,0.000,0.000,0.000,0.000,0.000,0.000,0.000,0.000,0.000
21.743,0,0,-1.488,0.171,70.268,-1.263,0.254,-5.763,-0.763,0.207,-9.864,0.000,0.000,0.0103675,0.000,9144.000,0.012,1.636,1013.261,15.049,-0.095,-0.110,-9.886,-0.011,0.422,-0.013,0.022,0.039,0.000,0.000,0.000,-0.008,0.695,0.008,0.719,0.0000000,0.0000000,0.000,0.000,0.000,0.000,0,00:00:00,0,0.000,0.000,0.000,0.000,0.000,0.000,0.000,0.000,0.000,0.000,0.000,0.000,0.000,0.000
21.844,0,0,-1.462,0.179,59.909,-1.239,0.262,-14.034,-0.531,0.171,-9.948,0.000,0.000,0.0103675,0.000,9144.000,0.017,1.978,1013.230,15.051,0.165,0.212,-9.961,-0.044,0.238,0.005,-0.004,0.030,0.000,0.000,0.000,-0.008,0.697,0.008,0.717,0.0000000,0.0000000,0.000,0.000,0.000,0.000,0,00:00:00,0,0.000,0.000,0.000,0.000,0.000,0.000,0.000,0.000,0.000,0.000,0.000,0.000,0.000,0.000
21.945,0,0,-1.437,0.187,50.204,-1.234,0.287,-21.184,-0.712,0.347,-9.851,0.000,0.000,0.0103675,0.000,9144.000,0.041,1.684,1013.301,15.050,-0.426,-0.354,-9.875,0.124,0.379,-0.006,-0.003,0.015,0.000,0.000,0.000,-0.005,0.695,0.010,0.719,0.0000000,0.0000000,0.000,0.000,0.000,0.000,0,00:00:00,0,0.000,0.000,0.000,0.000,0.000,0.000,0.000,0.000,0.000,0.000,0.000,0.000,0.000,0.000
22.046,0,0,-1.414,0.196,41.344,-1.230,0.287,-27.162,-0.706,0.107,-9.835,0.000,0.000,0.0103675,0.000,9144.000,0.062,1.949,1013.205,15.050,0.372,0.408,-9.853,-0.122,0.364,-0.010,0.015,0.010,0.000,0.000,0.000,-0.009,0.695,0.008,0.719,0.0000000,0.0000000,0.000,0.000,0.000,0.000,0,00:00:00,0,0.000,0.000,0.000,0.000,0.000,0.000,0.000,0.000,0.000,0.000,0.000,0.000,0.000,0.000
22.147,0,0,-1.394,0.204,33.202,-1.231,0.303,-32.146,-0.743,0.262,-9.782,0.000,0.000,0.0103675,0.000,9144.000,0.080,1.988,1013.213,15.049,0.308,0.379,-9.807,0.025,0.380,-0.011,-0.007,-0.038,0.000,0.000,0.000,-0.009,0.694,0.008,0.720,0.0000000,0.0000000,0.000,0.000,0.000,0.000,0,00:00:00,0,0.000,0.000,0.000,0.000,0.000,0.000,0.000,0.000,0.000,0.000,0.000,0.000,0.000,0.000
22.248,0,0,-1.374,0.212,25.738,-1.210,0.289,-36.234,-0.516,-0.021,-9.636,0.000,0.000,0.0103675,0.000,9144.000,0.095,2.121,1013.245,15.050,0.038,0.161,-9.644,-0.252,0.231,-0.000,0.017,0.007,0.000,0.000,0.000,-0.013,0.696,0.004,0.717,0.0000000,0.0000000,0.000,0.000,0.000,0.000,0,00:00:00,0,0.000,0.000,0.000,0.000,0.000,0.000,0.000,0.000,0.000,0.000,0.000,0.000,0.000,0.000
22.349,0,0,-1.354,0.219,18.978,-1.184,0.302,-39.513,-0.458,0.239,-9.909,0.000,0.000,0.0103675,0.000,9144.000,0.107,1.697,1013.228,15.049,0.182,0.265,-9.920,0.005,0.220,0.007,0.040,0.032,0.000,0.000,0.000,-0.010,0.699,0.007,0.715,0.0000000,0.0000000,0.000,0.000,0.000,0.000,0,00:00:00,0,0.000,0.000,0.000,0.000,0.000,0.000,0.000,0.000,0.000,0.000,0.000,0.000,0.000,0.000
22.450,0,0,-1.335,0.227,12.868,-1.189,0.313,-42.038,-0.752,0.230,-9.677,0.000,0.000,0.0103675,0.000,9144.000,0.116,1.369,1013.238,15.053,0.096,0.163,-9.700,-0.015,0.426,-0.018,0.006,-0.005,0.000,0.000,0.000,-0.010,0.695,0.008,0.719,0.0000000,0.0000000,0.000,0.000,0.000,0.000,0,00:00:00,0,0.000,0.000,0.000,0.000,0.000,0.000,0.000,0.000,0.000,0.000,0.000,0.000,0.000,0.000
22.551,0,0,-1.319,0.235,7.426,-1.196,0.327,-43.880,-0.762,0.258,-9.759,0.000,0.000,0.0103675,0.000,9144.000,0.124,1.923,1013.213,15.051,0.311,0.391,-9.784,0.036,0.407,0.026,0.025,-0.023,0.000,0.000,0.000,-0.008,0.694,0.008,0.720,0.0000000,0.0000000,0.000,0.000,0.000,0.000,0,00:00:00,0,0.000,0.000,0.000,0.000,0.000,0.000,0.000,0.000,0.000,0.000,0.000,0.000,0.000,0.000
22.652,0,0,-1.305,0.244,2.560,-1.199,0.353,-45.149,-0.716,0.388,-9.725,0.000,0.000,0.0103675,0.000,9144.000,0.129,2.082,1013.229,15.050,0.178,0.205,-9.751,0.168,0.360,0.007,-0.006,0.058,0.000,0.000,0.000,-0.004,0.694,0.012,0.720,0.0000000,0.0000000,0.000,0.000,0.000,0.000,0,00:00:00,0,0.000,0.000,0.000,0.000,0.000,0.000,0.000,0.000,0.000,0.000,0.000,0.000,0.000,0.000
22.753,0,0,-1.292,0.253,-1.751,-1.196,0.356,-45.909,-0.649,0.159,-9.728,0.000,0.000,0.0103675,0.000,9144.000,0.133,2.116,1013.246,15.050,0.035,0.080,-9.746,-0.071,0.312,-0.012,-0.002,0.025,0.000,0.000,0.000,-0.007,0.695,0.010,0.719,0.0000000,0.0000000,0.000,0.000,0.000,0.000,0,00:00:00,0,0.000,0.000,0.000,0.000,0.000,0.000,0.000,0.000,0.000,0.000,0.000,0.000,0.000,0.000
22.854,0,0,-1.280,0.262,-5.562,-1.213,0.354,-46.229,-0.840,0.121,-9.648,0.000,0.000,0.0103675,0.000,9144.000,0.135,1.983,1013.271,15.049,-0.175,-0.191,-9.675,-0.081,0.454,0.024,0.016,0.005,0.000,0.000,0.000,-0.008,0.693,0.007,0.721,0.0000000,0.0000000,0.000,0.000,0.000,0.000,0,00:00:00,0,0.000,0.000,0.000,0.000,0.000,0.000,0.000,0.000,0.000,0.000,0.000,0.000,0.000,0.000
22.955,0,0,-1.271,0.270,-8.856,-1.203,0.362,-46.153,-0.567,0.217,-9.791,0.000,0.000,0.0103675,0.000,9144.000,0.136,2.288,1013.263,15.051,-0.107,-0.113,-9.807,0.034,0.238,0.026,-0.031,0.022,0.000,0.000,0.000,-0.006,0.695,0.007,0.719,0.0000000,0.0000000,0.000,0.000,0.000,0.000,0,00:00:00,0,0.000,0.000,0.000,0.000,0.000,0.000,0.000,0.000,0.000,0.000,0.000,0.000,0.000,0.000
23.056,0,0,-1.262,0.278,-11.736,-1.216,0.363,-45.751,-0.797,0.165,-9.551,0.000,0.000,0.0103675,0.000,9144.000,0.136,1.929,1013.308,15.049,-0.480,-0.511,-9.576,0.001,0.425,0.014,0.002,-0.013,0.000,0.000,0.000,-0.006,0.693,0.006,0.721,0.0000000,0.0000000,0.000,0.000,0.000,0.000,0,00:00:00,0,0.000,0.000,0.000,0.000,0.000,0.000,0.000,0.000,0.000,0.000,0.000,0.000,0.000,0.000
23.157,0,0,-1.255,0.285,-14.085,-1.227,0.353,-45.001,-0.761,0.043,-9.756,0.000,0.000,0.0103675,0.000,9144.000,0.135,2.228,1013.220,15.049,0.248,0.162,-9.777,-0.112,0.388,0.010,0.020,-0.004,0.000,0.000,0.000,-0.008,0.693,0.004,0.720,0.0000000,0.0000000,0.000,0.000,0.000,0.000,0,00:00:00,0,0.000,0.000,0.000,0.000,0.000,0.000,0.000,0.000,0.000,0.000,0.000,0.000,0.000,0.000
23.258,0,0,-1.250,0.290,-16.044,-1.237,0.341,-44.017,-0.758,0.032,-9.756,0.000,0.000,0.0103675,0.000,9144.000,0.133,2.190,1013.220,15.049,0.248,0.126,-9.777,-0.112,0.388,0.010,0.020,-0.004,0.000,0.000,0.000,-0.008,0.694,0.002,0.720,0.0000000,0.0000000,0.000,0.000,0.000,0.000,0,00:00:00,0,0.000,0.000,0.000,0.000,0.000,0.000,0.000,0.000,0.000,0.000,0.000,0.000,0.000,0.000
23.359,0,0,-1.247,0.293,-17.677,-1.265,0.336,-42.871,-0.931,0.111,-9.829,0.000,0.000,0.0103675,0.000,9144.000,0.130,2.172,1013.249,15.049,0.012,-0.114,-9.862,-0.045,0.489,-0.013,-0.023,-0.025,0.000,0.000,0.000,-0.008,0.691,0.003,0.723,0.0000000,0.0000000,0.000,0.000,0.000,0.000,0,00:00:00,0,0.000,0.000,0.000,0.000,0.000,0.000,0.000,0.000,0.000,0.000,0.000,0.000,0.000,0.000
23.460,0,0,-1.247,0.297,-18.920,-1.272,0.340,-41.512,-0.722,0.189,-9.744,0.000,0.000,0.0103675,0.000,9144.000,0.126,2.571,1013.198,15.048,0.430,0.326,-9.766,0.059,0.340,0.030,0.013,0.003,0.000,0.000,0.000,-0.005,0.693,0.005,0.721,0.0000000,0.0000000,0.000,0.000,0.000,0.000,0,00:00:00,0,0.000,0.000,0.000,0.000,0.000,0.000,0.000,0.000,0.000,0.000,0.000,0.000,0.000,0.000
23.561,0,0,-1.245,0.300,-19.921,-1.246,0.344,-40.074,-0.403,0.201,-9.741,0.000,0.000,0.0103675,0.000,9144.000,0.122,2.245,1013.239,15.050,0.093,-0.037,-9.750,0.049,0.139,-0.023,-0.009,0.010,0.000,0.000,0.000,-0.005,0.697,0.006,0.717,0.0000000,0.0000000,0.000,0.000,0.000,0.000,0,00:00:00,0,0.000,0.000,0.000,0.000,0.000,0.000,0.000,0.000,0.000,0.000,0.000,0.000,0.000,0.000
23.662,0,0,-1.241,0.303,-20.606,-1.223,0.340,-38.516,-0.416,0.119,-9.818,0.000,0.000,0.0103675,0.000,9144.000,0.118,1.556,1013.196,15.048,0.445,0.332,-9.825,-0.019,0.193,0.014,0.015,-0.015,0.000,0.000,0.000,-0.005,0.699,0.005,0.715,0.0000000,0.0000000,0.000,0.000,0.000,0.000,0,00:00:00,0,0.000,0.000,0.000,0.000,0.000,0.000,0.000,0.000,0.000,0.000,0.000,0.000,0.000,0.000
23.763,0,0,-1.237,0.306,-21.098,-1.224,0.337,-36.918,-0.661,0.127,-9.686,0.000,0.000,0.0103675,0.000,9144.000,0.113,1.298,1013.228,15.049,0.180,0.054,-9.703,-0.013,0.351,-0.003,-0.053,0.000,0.000,0.000,0.000,-0.005,0.696,0.005,0.718,0.0000000,0.0000000,0.000,0.000,0.000,0.000,0,00:00:00,0,0.000,0.000,0.000,0.000,0.000,0.000,0.000,0.000,0.000,0.000,0.000,0.000,0.000,0.000
23.864,0,0,-1.232,0.308,-21.395,-1.219,0.333,-35.296,-0.601,0.122,-9.694,0.000,0.000,0.0103675,0.000,9144.000,0.109,1.835,1013.243,15.049,0.056,-0.036,-9.709,-0.004,0.302,0.013,0.014,-0.016,0.000,0.000,0.000,-0.005,0.696,0.004,0.718,0.0000000,0.0000000,0.000,0.000,0.000,0.000,0,00:00:00,0,0.000,0.000,0.000,0.000,0.000,0.000,0.000,0.000,0.000,0.000,0.000,0.000,0.000,0.000
23.965,0,0,-1.228,0.309,-21.513,-1.214,0.327,-33.663,-0.595,0.108,-9.695,0.000,0.000,0.0103675,0.000,9144.000,0.104,1.768,1013.243,15.049,0.056,-0.068,-9.709,-0.004,0.302,0.013,0.014,-0.016,0.000,0.000,0.000,-0.005,0.696,0.004,0.718,0.0000000,0.0000000,0.000,0.000,0.000,0.000,0,00:00:00,0,0.000,0.000,0.000,0.000,0.000,0.000,0.000,0.000,0.000,0.000,0.000,0.000,0.000,0.000
24.066,0,0,-1.224,0.310,-21.462,-1.209,0.320,-32.027,-0.593,0.095,-9.695,0.000,0.000,0.0103675,0.000,9144.000,0.099,1.734,1013.243,15.049,0.056,0.018,-9.709,-0.004,0.302,0.013,0.014,-0.016,0.000,0.000,0.000,-0.004,0.696,0.003,0.718,0.0000000,0.0000000,0.000,0.000,0.000,0.000,0,00:00:00,0,0.000,0.000,0.000,0.000,0.000,0.000,0.000,0.000,0.000,0.000,0.000,0.000,0.000,0.000
24.167,0,0,-1.220,0.309,-21.267,-1.221,0.304,-30.420,-0.764,-0.002,-9.838,0.000,0.000,0.0103675,0.000,9144.000,0.094,1.718,1013.236,15.051,0.117,0.085,-9.859,-0.110,0.411,-0.008,-0.002,0.028,0.000,0.000,0.000,-0.006,0.694,0.002,0.720,0.0000000,0.0000000,0.000,0.000,0.000,0.000,0,00:00:00,0,0.000,0.000,0.000,0.000,0.000,0.000,0.000,0.000,0.000,0.000,0.000,0.000,0.000,0.000
24.268,0,0,-1.218,0.307,-20.924,-1.229,0.285,-28.833,-0.718,-0.020,-9.915,0.000,0.000,0.0103675,0.000,9144.000,0.090,2.058,1013.203,15.051,0.393,0.339,-9.934,-0.104,0.362,0.023,0.006,-0.028,0.000,0.000,0.000,-0.006,0.694,-0.000,0.720,0.0000000,0.0000000,0.000,0.000,0.000,0.000,0,00:00:00,0,0.000,0.000,0.000,0.000,0.000,0.000,0.000,0.000,0.000,0.000,0.000,0.000,0.000,0.000
24.369,0,0,-1.216,0.305,-20.568,-1.238,0.293,-27.349,-0.722,0.240,-9.855,0.000,0.000,0.0103675,0.000,9144.000,0.085,2.056,1013.271,15.051,-0.175,-0.212,-9.876,0.168,0.353,0.016,-0.034,0.012,0.000,0.000,0.000,-0.001,0.694,0.004,0.720,0.0000000,0.0000000,0.000,0.000,0.000,0.000,0,00:00:00,0,0.000,0.000,0.000,0.000,0.000,0.000,0.000,0.000,0.000,0.000,0.000,0.000,0.000,0.000
24.470,0,0,-1.216,0.302,-20.151,-1.246,0.273,-25.919,-0.717,-0.043,-9.734,0.000,0.000,0.0103675,0.000,9144.000,0.081,2.151,1013.282,15.050,-0.265,-0.335,-9.753,-0.132,0.355,-0.024,-0.004,-0.041,0.000,0.000,0.000,-0.006,0.694,0.001,0.720,0.0000000,0.0000000,0.000,0.000,0.000,0.000,0,00:00:00,0,0.000,0.000,0.000,0.000,0.000,0.000,0.000,0.000,0.000,0.000,0.000,0.000,0.000,0.000
24.571,0,0,-1.215,0.299,-19.680,-1.225,0.278,-24.561,-0.438,0.202,-9.767,0.000,0.000,0.0103675,0.000,9144.000,0.076,2.128,1013.296,15.051,-0.380,-0.428,-9.777,0.116,0.180,0.006,0.027,-0.003,0.000,0.000,0.000,-0.002,0.698,0.004,0.716,0.0000000,0.0000000,0.000,0.000,0.000,0.000,0,00:00:00,0,0.000,0.000,0.000,0.000,0.000,0.000,0.000,0.000,0.000,0.000,0.000,0.000,0.000,0.000
24.672,0,0,-1.214,0.297,-19.107,-1.235,0.295,-23.237,-0.729,0.329,-9.854,0.000,0.000,0.0103675,0.000,9144.000,0.072,1.516,1013.249,15.051,0.011,-0.064,-9.876,0.202,0.408,-0.035,0.020,0.000,0.000,0.000,0.000,-0.000,0.695,0.008,0.719,0.0000000,0.0000000,0.000,0.000,0.000,0.000,0,00:00:00,0,0.000,0.000,0.000,0.000,0.000,0.000,0.000,0.000,0.000,0.000,0.000,0.000,0.000,0.000
24.773,0,0,-1.213,0.297,-18.529,-1.233,0.304,-22.003,-0.620,0.248,-9.785,0.000,0.000,0.0103675,0.000,9144.000,0.069,1.884,1013.273,15.049,-0.189,-0.278,-9.802,0.127,0.313,0.003,0.015,-0.021,0.000,0.000,0.000,-0.000,0.696,0.008,0.718,0.0000000,0.0000000,0.000,0.000,0.000,0.000,0,00:00:00,0,0.000,0.000,0.000,0.000,0.000,0.000,0.000,0.000,0.000,0.000,0.000,0.000,0.000,0.000
24.874,0,0,-1.212,0.297,-17.929,-1.230,0.313,-20.845,-0.614,0.245,-9.786,0.000,0.000,0.0103675,0.000,9144.000,0.065,1.813,1013.273,15.049,-0.189,-0.302,-9.802,0.127,0.313,0.003,0.015,-0.021,0.000,0.000,0.000,-0.000,0.696,0.008,0.718,0.0000000,0.0000000,0.000,0.000,0.000,0.000,0,00:00:00,0,0.000,0.000,0.000,0.000,0.000,0.000,0.000,0.000,0.000,0.000,0.000,0.000,0.000,0.000
24.975,0,0,-1.210,0.297,-17.256,-1.215,0.297,-19.720,-0.483,-0.002,-9.786,0.000,0.000,0.0103675,0.000,9144.000,0.061,1.777,1013.223,15.049,0.224,0.095,-9.795,-0.114,0.219,0.003,-0.007,0.010,0.000,0.000,0.000,-0.004,0.697,0.004,0.717,0.0000000,0.0000000,0.000,0.000,0.000,0.000,0,00:00:00,0,0.000,0.000,0.000,0.000,0.000,0.000,0.000,0.000,0.000,0.000,0.000,0.000,0.000,0.000
25.076,0,0,-1.206,0.296,-16.612,-1.192,0.277,-18.706,-0.407,-0.043,-9.832,0.000,0.000,0.0103675,0.000,9144.000,0.058,1.549,1013.244,15.052,0.051,-0.132,-9.838,-0.133,0.185,0.024,0.007,0.034,0.000,0.000,0.000,-0.005,0.699,0.002,0.715,0.0000000,0.0000000,0.000,0.000,0.000,0.000,0,00:00:00,0,0.000,0.000,0.000,0.000,0.000,0.000,0.000,0.000,0.000,0.000,0.000,0.000,0.000,0.000
25.177,0,0,-1.202,0.293,-15.960,-1.192,0.266,-17.760,-0.634,0.044,-9.799,0.000,0.000,0.0103675,0.000,9144.000,0.055,1.294,1013.237,15.050,0.107,-0.062,-9.813,-0.066,0.352,-0.021,0.008,0.024,0.000,0.000,0.000,-0.006,0.697,0.002,0.717,0.0000000,0.0000000,0.000,0.000,0.000,0.000,0,00:00:00,0,0.000,0.000,0.000,0.000,0.000,0.000,0.000,0.000,0.000,0.000,0.000,0.000,0.000,0.000
25.278,0,0,-1.198,0.289,-15.355,-1.186,0.249,-16.931,-0.566,-0.022,-9.901,0.000,0.000,0.0103675,0.000,9144.000,0.052,1.650,1013.268,15.051,-0.147,-0.331,-9.912,-0.139,0.279,-0.008,-0.012,-0.012,0.000,0.000,0.000,-0.008,0.697,0.001,0.717,0.0000000,0.0000000,0.000,0.000,0.000,0.000,0,00:00:00,0,0.000,0.000,0.000,0.000,0.000,0.000,0.000,0.000,0.000,0.000,0.000,0.000,0.000,0.000
25.379,0,0,-1.194,0.284,-14.817,-1.170,0.249,-16.211,-0.470,0.149,-9.882,0.000,0.000,0.0103675,0.000,9144.000,0.050,1.665,1013.316,15.050,-0.549,-0.715,-9.892,0.023,0.204,-0.007,-0.041,-0.015,0.000,0.000,0.000,-0.006,0.698,0.003,0.717,0.0000000,0.0000000,0.000,0.000,0.000,0.000,0,00:00:00,0,0.000,0.000,0.000,0.000,0.000,0.000,0.000,0.000,0.000,0.000,0.000,0.000,0.000,0.000
25.480,0,0,-1.189,0.280,-14.218,-1.185,0.236,-15.499,-0.779,0.019,-9.860,0.000,0.000,0.0103675,0.000,9144.000,0.048,1.541,1013.261,15.048,-0.094,-0.190,-9.881,-0.110,0.435,-0.007,0.012,-0.003,0.000,0.000,0.000,-0.008,0.695,0.002,0.719,0.0000000,0.0000000,0.000,0.000,0.000,0.000,0,00:00:00,0,0.000,0.000,0.000,0.000,0.000,0.000,0.000,0.000,0.000,0.000,0.000,0.000,0.000,0.000
25.581,0,0,-1.187,0.275,-13.626,-1.195,0.238,-14.845,-0.714,0.174,-9.858,0.000,0.000,0.0103675,0.000,9144.000,0.046,1.997,1013.253,15.052,-0.029,-0.077,-9.879,0.034,0.352,-0.010,-0.028,-0.039,0.000,0.000,0.000,-0.006,0.694,0.004,0.720,0.0000000,0.0000000,0.000,0.000,0.000,0.000,0,00:00:00,0,0.000,0.000,0.000,0.000,0.000,0.000,0.000,0.000,0.000,0.000,0.000,0.000,0.000,0.000
25.682,0,0,-1.186,0.271,-13.065,-1.224,0.240,-14.257,-0.919,0.154,-9.793,0.000,0.000,0.0103675,0.000,9144.000,0.044,2.099,1013.264,15.052,-0.113,-0.118,-9.825,0.018,0.493,0.003,0.001,-0.009,0.000,0.000,0.000,-0.005,0.692,0.004,0.722,0.0000000,0.0000000,0.000,0.000,0.000,0.000,0,00:00:00,0,0.000,0.000,0.000,0.000,0.000,0.000,0.000,0.000,0.000,0.000,0.000,0.000,0.000,0.000
25.783,0,0,-1.188,0.268,-12.531,-1.252,0.243,-13.731,-0.900,0.178,-9.758,0.000,0.000,0.0103675,0.000,9144.000,0.042,2.485,1013.268,15.050,-0.150,-0.118,-9.790,0.052,0.462,0.011,0.009,-0.000,0.000,0.000,0.000,-0.004,0.691,0.005,0.723,0.0000000,0.0000000,0.000,0.000,0.000,0.000,0,00:00:00,0,0.000,0.000,0.000,0.000,0.000,0.000,0.000,0.000,0.000,0.000,0.000,0.000,0.000,0.000
25.884,0,0,-1.191,0.266,-11.992,-1.261,0.257,-13.240,-0.709,0.278,-9.749,0.000,0.000,0.0103675,0.000,9144.000,0.041,2.570,1013.241,15.052,0.072,0.128,-9.772,0.140,0.325,-0.010,-0.012,0.020,0.000,0.000,0.000,-0.002,0.693,0.008,0.721,0.0000000,0.0000000,0.000,0.000,0.000,0.000,0,00:00:00,0,0.000,0.000,0.000,0.000,0.000,0.000,0.000,0.000,0.000,0.000,0.000,0.000,0.000,0.000
