State - Time (s),State - Stage,State - Stage,State - PX (m),State - PY (m),State - PZ (m),State - VX (m/s),State - VY (m/s),State - VZ (m/s),State - AX (m/s/s),State - AY (m/s/s),State - AZ (m/s/s),State - Actuation Angle (deg),State - Acutal Angle (deg),State - CdA,State - Est Apo (m),State - Target Apogee (m),State - Mach Number,State - Tilt [deg],MockBarometer - Pres (hPa),MockBarometer - Temp (C),MockBarometer - Alt ASL (m),MockBarometer - Alt AGL (m),MockIMU - AccX (m/s^2),MockIMU - AccY (m/s^2),MockIMU - AccZ (m/s^2),MockIMU - GyroX (rad/s),MockIMU - GyroY (rad/s),MockIMU - GyroZ (rad/s),MockIMU - MagX (uT),MockIMU - MagY (uT),MockIMU - MagZ (uT),MockIMU - OriX,MockIMU - OriY,MockIMU - OriZ,MockIMU - OriW,MockGPS - Lat,MockGPS - Lon,MockGPS - Alt (m),MockGPS - Disp X (m),MockGPS - Disp Y (m),MockGPS - Disp Z (m),MockGPS - Fix Quality,MockGPS - Time of Day,E5 - Rel Steps,BR - Battery Voltage (V),BR - ALT (m),BR - PRES (Pa),BR - TEMP (C),BR - VEL (m/s),BR - ANG (deg),BR - ACCX (m/s^2),BR - ACCY (m/s^2),BR - ACCZ (m/s^2),BR - GYROX (rad/s),BR - GYROY (rad/s),BR - GYROZ (rad/s),BR - ROLL (deg),BR - TILT (deg)
20.487,0,0,0.000,0.000,0.000,0.000,0.000,0.000,0.000,0.000,0.000,0.000,0.000,0.0103675,0.000,9144.000,0.000,0.000,0.000,0.000,44307.690,0.000,0.000,0.000,0.000,0.000,0.000,0.000,0.000,0.000,0.000,0.000,0.000,0.000,1.000,0.0000000,0.0000000,0.000,0.000,0.000,0.000,0,00:00:00,0,0.000,0.000,0.000,0.000,0.000,0.000,0.000,0.000,0.000,0.000,0.000,0.000,0.000,0.000
20.588,0,0,-0.000,-0.000,-5474.834,-0.753,-0.004,-535.131,-7.489,-0.041,-6.589,0.000,0.000,0.0103675,0.000,9144.000,0.000,90.000,1013.224,15.052,0.216,-5474.934,-9.965,-0.034,0.424,-0.028,-0.002,-0.034,0.000,0.000,0.000,-0.002,0.373,-0.001,0.928,0.0000000,0.0000000,0.000,0.000,0.000,0.000,0,00:00:00,0,0.000,0.000,0.000,0.000,0.000,0.000,0.000,0.000,0.000,0.000,0.000,0.000,0.000,0.000
20.689,0,0,-0.049,0.000,-4398.411,-1.199,0.010,-426.012,-4.463,0.140,-8.688,0.000,0.000,0.0103675,0.000,9144.000,1.575,46.224,1013.212,15.050,0.314,-3289.878,-9.757,0.143,0.458,0.008,-0.019,0.016,0.000,0.000,0.000,0.003,0.541,0.001,0.841,0.0000000,0.0000000,0.000,0.000,0.000,0.000,0,00:00:00,0,0.000,0.000,0.000,0.000,0.000,0.000,0.000,0.000,0.000,0.000,0.000,0.000,0.000,0.000
20.790,0,0,-0.120,0.000,-3734.030,-1.432,-0.002,-356.190,-2.372,-0.123,-9.478,0.000,0.000,0.0103675,0.000,9144.000,1.254,24.509,1013.251,15.051,-0.008,-2360.442,-9.769,-0.103,0.207,0.009,0.010,-0.002,0.000,0.000,0.000,-0.000,0.624,-0.001,0.782,0.0000000,0.0000000,0.000,0.000,0.000,0.000,0,00:00:00,0,0.000,0.000,0.000,0.000,0.000,0.000,0.000,0.000,0.000,0.000,0.000,0.000,0.000,0.000
20.891,0,0,-0.202,0.000,-3273.244,-1.574,0.002,-303.461,-1.476,0.042,-9.636,0.000,0.000,0.0103675,0.000,9144.000,1.049,12.835,1013.256,15.051,-0.050,-1842.115,-9.745,0.028,0.271,-0.031,0.033,0.013,0.000,0.000,0.000,-0.000,0.662,0.001,0.750,0.0000000,0.0000000,0.000,0.000,0.000,0.000,0,00:00:00,0,0.000,0.000,0.000,0.000,0.000,0.000,0.000,0.000,0.000,0.000,0.000,0.000,0.000,0.000
20.992,0,0,-0.290,0.001,-2929.762,-1.663,0.011,-258.258,-0.952,0.091,-9.646,0.000,0.000,0.0103675,0.000,9144.000,0.893,7.119,1013.282,15.048,-0.267,-1511.109,-9.690,0.064,0.234,-0.011,-0.000,0.028,0.000,0.000,0.000,0.001,0.680,0.003,0.733,0.0000000,0.0000000,0.000,0.000,0.000,0.000,0,00:00:00,0,0.000,0.000,0.000,0.000,0.000,0.000,0.000,0.000,0.000,0.000,0.000,0.000,0.000,0.000
21.093,0,0,-0.382,0.001,-2660.045,-1.754,0.011,-215.582,-0.985,-0.000,-9.787,0.000,0.000,0.0103675,0.000,9144.000,0.760,4.252,1013.224,15.051,0.220,-1280.624,-9.828,-0.029,0.413,-0.004,-0.003,-0.013,0.000,0.000,0.000,-0.001,0.686,0.001,0.727,0.0000000,0.0000000,0.000,0.000,0.000,0.000,0,00:00:00,0,0.000,0.000,0.000,0.000,0.000,0.000,0.000,0.000,0.000,0.000,0.000,0.000,0.000,0.000
21.194,0,0,-0.477,0.003,-2439.475,-1.802,0.029,-172.525,-0.572,0.182,-9.740,0.000,0.000,0.0103675,0.000,9144.000,0.635,3.340,1013.245,15.048,0.044,-1111.648,-9.755,0.176,0.180,0.023,-0.038,-0.033,0.000,0.000,0.000,0.003,0.693,0.003,0.721,0.0000000,0.0000000,0.000,0.000,0.000,0.000,0,00:00:00,0,0.000,0.000,0.000,0.000,0.000,0.000,0.000,0.000,0.000,0.000,0.000,0.000,0.000,0.000
21.295,0,0,-0.574,0.006,-2252.603,-1.881,0.039,-127.341,-0.887,0.094,-9.816,0.000,0.000,0.0103675,0.000,9144.000,0.508,2.309,1013.258,15.049,-0.064,-982.102,-9.845,0.110,0.464,0.023,0.010,-0.033,0.000,0.000,0.000,0.003,0.692,0.002,0.722,0.0000000,0.0000000,0.000,0.000,0.000,0.000,0,00:00:00,0,0.000,0.000,0.000,0.000,0.000,0.000,0.000,0.000,0.000,0.000,0.000,0.000,0.000,0.000
21.396,0,0,-0.674,0.008,-2089.130,-1.927,0.030,-78.994,-0.574,-0.086,-9.743,0.000,0.000,0.0103675,0.000,9144.000,0.375,2.474,1013.236,15.053,0.117,-879.393,-9.757,-0.078,0.233,-0.011,-0.030,0.018,0.000,0.000,0.000,0.001,0.695,-0.000,0.719,0.0000000,0.0000000,0.000,0.000,0.000,0.000,0,00:00:00,0,0.000,0.000,0.000,0.000,0.000,0.000,0.000,0.000,0.000,0.000,0.000,0.000,0.000,0.000
21.497,0,0,-0.775,0.010,-1951.889,-1.971,0.043,-30.441,-0.575,0.131,-9.769,0.000,0.000,0.0103675,0.000,9144.000,0.233,2.006,1013.263,15.051,-0.104,-879.615,-9.782,0.146,0.276,0.010,0.018,0.029,0.000,0.000,0.000,0.004,0.696,0.003,0.718,0.0000000,0.0000000,0.000,0.000,0.000,0.000,0,00:00:00,0,0.000,0.000,0.000,0.000,0.000,0.000,0.000,0.000,0.000,0.000,0.000,0.000,0.000,0.000
21.598,0,0,-0.878,0.014,-1832.400,-2.047,0.051,18.508,-0.911,0.081,-9.676,0.000,0.000,0.0103675,0.000,9144.000,0.090,1.759,1013.257,15.051,-0.059,-879.570,-9.705,0.119,0.511,0.028,0.008,-0.003,0.000,0.000,0.000,0.005,0.692,0.002,0.722,0.0000000,0.0000000,0.000,0.000,0.000,0.000,0,00:00:00,0,0.000,0.000,0.000,0.000,0.000,0.000,0.000,0.000,0.000,0.000,0.000,0.000,0.000,0.000
21.699,0,0,-0.984,0.017,-1725.159,-2.089,0.044,67.573,-0.607,-0.066,-9.739,0.000,0.000,0.0103675,0.000,9144.000,0.055,2.364,1013.234,15.051,0.132,-879.379,-9.755,-0.019,0.256,0.004,-0.044,0.015,0.000,0.000,0.000,0.004,0.694,0.000,0.720,0.0000000,0.0000000,0.000,0.000,0.000,0.000,0,00:00:00,0,0.000,0.000,0.000,0.000,0.000,0.000,0.000,0.000,0.000,0.000,0.000,0.000,0.000,0.000
21.800,0,0,-1.090,0.018,-1626.662,-2.139,0.031,116.136,-0.709,-0.123,-9.736,0.000,0.000,0.0103675,0.000,9144.000,0.199,2.059,1013.287,15.049,-0.305,-879.816,-9.755,-0.088,0.359,-0.012,0.007,0.029,0.000,0.000,0.000,0.001,0.694,-0.001,0.720,0.0000000,0.0000000,0.000,0.000,0.000,0.000,0,00:00:00,0,0.000,0.000,0.000,0.000,0.000,0.000,0.000,0.000,0.000,0.000,0.000,0.000,0.000,0.000
21.901,0,0,-1.196,0.019,-1534.569,-2.195,0.017,163.427,-0.812,-0.136,-9.767,0.000,0.000,0.0103675,0.000,9144.000,0.342,2.062,1013.251,15.050,-0.010,-879.521,-9.792,-0.083,0.423,0.014,-0.007,-0.032,0.000,0.000,0.000,-0.000,0.693,-0.004,0.721,0.0000000,0.0000000,0.000,0.000,0.000,0.000,0,00:00:00,0,0.000,0.000,0.000,0.000,0.000,0.000,0.000,0.000,0.000,0.000,0.000,0.000,0.000,0.000
22.002,0,0,-1.304,0.019,-1447.606,-2.246,0.011,208.483,-0.804,-0.055,-9.808,0.000,0.000,0.0103675,0.000,9144.000,0.481,2.288,1013.255,15.051,-0.043,-879.553,-9.832,-0.009,0.405,-0.004,-0.002,0.039,0.000,0.000,0.000,0.001,0.693,-0.002,0.721,0.0000000,0.0000000,0.000,0.000,0.000,0.000,0,00:00:00,0,0.000,0.000,0.000,0.000,0.000,0.000,0.000,0.000,0.000,0.000,0.000,0.000,0.000,0.000
22.103,0,0,-1.410,0.018,-1365.146,-2.275,-0.003,250.324,-0.635,-0.136,-9.811,0.000,0.000,0.0103675,0.000,9144.000,0.614,2.329,1013.266,15.049,-0.131,-879.642,-9.828,-0.093,0.284,-0.004,-0.021,-0.013,0.000,0.000,0.000,-0.001,0.694,-0.004,0.720,0.0000000,0.0000000,0.000,0.000,0.000,0.000,0,00:00:00,0,0.000,0.000,0.000,0.000,0.000,0.000,0.000,0.000,0.000,0.000,0.000,0.000,0.000,0.000
22.204,0,0,-1.513,0.015,-1287.000,-2.312,-0.017,288.055,-0.763,-0.127,-9.839,0.000,0.000,0.0103675,0.000,9144.000,0.737,2.053,1013.241,15.051,0.074,-879.437,-9.861,-0.091,0.387,-0.009,-0.016,-0.013,0.000,0.000,0.000,-0.002,0.693,-0.004,0.721,0.0000000,0.0000000,0.000,0.000,0.000,0.000,0,00:00:00,0,0.000,0.000,0.000,0.000,0.000,0.000,0.000,0.000,0.000,0.000,0.000,0.000,0.000,0.000
22.305,0,0,-1.614,0.012,-1213.316,-2.331,-0.020,320.896,-0.636,-0.026,-9.903,0.000,0.000,0.0103675,0.000,9144.000,0.848,2.195,1013.210,15.048,0.336,-879.175,-9.919,0.010,0.294,0.003,-0.010,0.002,0.000,0.000,0.000,-0.000,0.695,-0.003,0.719,0.0000000,0.0000000,0.000,0.000,0.000,0.000,0,00:00:00,0,0.000,0.000,0.000,0.000,0.000,0.000,0.000,0.000,0.000,0.000,0.000,0.000,0.000,0.000
22.406,0,0,-1.710,0.009,-1144.485,-2.337,-0.031,348.227,-0.576,-0.113,-9.847,0.000,0.000,0.0103675,0.000,9144.000,0.945,1.975,1013.251,15.048,-0.011,-879.521,-9.861,-0.074,0.259,0.003,-0.037,0.006,0.000,0.000,0.000,-0.001,0.696,-0.003,0.718,0.0000000,0.0000000,0.000,0.000,0.000,0.000,0,00:00:00,0,0.000,0.000,0.000,0.000,0.000,0.000,0.000,0.000,0.000,0.000,0.000,0.000,0.000,0.000
22.507,0,0,-1.800,0.005,-971.664,-2.351,-0.037,455.842,-0.713,-0.057,-9.889,0.000,0.000,0.0103675,0.000,9144.000,1.025,1.846,1013.264,15.051,-0.116,-0.158,-9.907,-0.012,0.373,0.005,0.010,-0.009,0.000,0.000,0.000,0.000,0.695,-0.003,0.719,0.0000000,0.0000000,0.000,0.000,0.000,0.000,0,00:00:00,0,0.000,0.000,0.000,0.000,0.000,0.000,0.000,0.000,0.000,0.000,0.000,0.000,0.000,0.000
22.608,0,0,-1.884,0.002,-807.966,-2.347,-0.022,548.507,-0.592,0.149,-9.795,0.000,0.000,0.0103675,0.000,9144.000,1.342,1.972,1013.266,15.050,-0.132,-0.146,-9.808,0.175,0.277,-0.017,-0.018,-0.020,0.000,0.000,0.000,0.003,0.696,0.001,0.718,0.0000000,0.0000000,0.000,0.000,0.000,0.000,0,00:00:00,0,0.000,0.000,0.000,0.000,0.000,0.000,0.000,0.000,0.000,0.000,0.000,0.000,0.000,0.000
22.709,0,0,-1.958,-0.001,-654.785,-2.309,-0.051,625.626,-0.328,-0.285,-9.892,0.000,0.000,0.0103675,0.000,9144.000,1.615,1.846,1013.253,15.049,-0.025,-0.021,-9.897,-0.255,0.123,0.002,0.026,0.009,0.000,0.000,0.000,-0.002,0.700,-0.004,0.714,0.0000000,0.0000000,0.000,0.000,0.000,0.000,0,00:00:00,0,0.000,0.000,0.000,0.000,0.000,0.000,0.000,0.000,0.000,0.000,0.000,0.000,0.000,0.000
22.810,0,0,-2.025,-0.006,-513.251,-2.311,-0.054,687.223,-0.784,-0.027,-9.764,0.000,0.000,0.0103675,0.000,9144.000,1.842,1.205,1013.262,15.048,-0.100,-0.066,-9.785,-0.008,0.451,-0.012,-0.010,0.021,0.000,0.000,0.000,-0.001,0.695,-0.002,0.719,0.0000000,0.0000000,0.000,0.000,0.000,0.000,0,00:00:00,0,0.000,0.000,0.000,0.000,0.000,0.000,0.000,0.000,0.000,0.000,0.000,0.000,0.000,0.000
22.911,0,0,-2.084,-0.010,-384.038,-2.312,-0.043,733.882,-0.834,0.102,-9.755,0.000,0.000,0.0103675,0.000,9144.000,2.023,1.950,1013.205,15.051,0.376,0.406,-9.780,0.108,0.451,-0.011,0.015,-0.027,0.000,0.000,0.000,0.001,0.693,0.000,0.721,0.0000000,0.0000000,0.000,0.000,0.000,0.000,0,00:00:00,0,0.000,0.000,0.000,0.000,0.000,0.000,0.000,0.000,0.000,0.000,0.000,0.000,0.000,0.000
23.012,0,0,-2.136,-0.013,-267.618,-2.280,-0.033,766.453,-0.573,0.089,-9.718,0.000,0.000,0.0103675,0.000,9144.000,2.160,2.250,1013.237,15.050,0.112,0.120,-9.731,0.109,0.266,0.016,0.034,0.014,0.000,0.000,0.000,0.003,0.696,0.002,0.718,0.0000000,0.0000000,0.000,0.000,0.000,0.000,0,00:00:00,0,0.000,0.000,0.000,0.000,0.000,0.000,0.000,0.000,0.000,0.000,0.000,0.000,0.000,0.000
23.113,0,0,-2.177,-0.016,-163.917,-2.243,-0.046,786.226,-0.572,-0.133,-9.655,0.000,0.000,0.0103675,0.000,9144.000,2.256,1.810,1013.197,15.050,0.440,0.483,-9.668,-0.156,0.282,-0.049,0.006,-0.014,0.000,0.000,0.000,-0.003,0.696,-0.001,0.718,0.0000000,0.0000000,0.000,0.000,0.000,0.000,0,00:00:00,0,0.000,0.000,0.000,0.000,0.000,0.000,0.000,0.000,0.000,0.000,0.000,0.000,0.000,0.000
23.214,0,0,-2.209,-0.018,-72.808,-2.205,-0.038,794.427,-0.612,0.072,-9.868,0.000,0.000,0.0103675,0.000,9144.000,2.314,1.725,1013.280,15.050,-0.246,-0.206,-9.882,0.077,0.317,0.032,0.025,0.024,0.000,0.000,0.000,0.001,0.696,0.001,0.718,0.0000000,0.0000000,0.000,0.000,0.000,0.000,0,00:00:00,0,0.000,0.000,0.000,0.000,0.000,0.000,0.000,0.000,0.000,0.000,0.000,0.000,0.000,0.000
23.315,0,0,-2.232,-0.020,6.309,-2.163,-0.033,792.599,-0.610,0.043,-9.869,0.000,0.000,0.0103675,0.000,9144.000,2.339,1.710,1013.280,15.050,-0.246,-0.246,-9.882,0.077,0.317,0.032,0.025,0.024,0.000,0.000,0.000,0.004,0.697,0.001,0.718,0.0000000,0.0000000,0.000,0.000,0.000,0.000,0,00:00:00,0,0.000,0.000,0.000,0.000,0.000,0.000,0.000,0.000,0.000,0.000,0.000,0.000,0.000,0.000
23.416,0,0,-2.247,-0.022,74.147,-2.137,-0.047,782.202,-0.813,-0.155,-9.867,0.000,0.000,0.0103675,0.000,9144.000,2.333,1.702,1013.254,15.049,-0.036,-0.023,-9.891,-0.117,0.442,-0.000,-0.008,-0.013,0.000,0.000,0.000,0.000,0.694,-0.002,0.720,0.0000000,0.0000000,0.000,0.000,0.000,0.000,0,00:00:00,0,0.000,0.000,0.000,0.000,0.000,0.000,0.000,0.000,0.000,0.000,0.000,0.000,0.000,0.000
23.517,0,0,-2.254,-0.025,131.439,-2.095,-0.061,764.578,-0.684,-0.151,-9.747,0.000,0.000,0.0103675,0.000,9144.000,2.303,2.153,1013.268,15.049,-0.148,-0.135,-9.766,-0.112,0.338,0.003,0.010,0.041,0.000,0.000,0.000,-0.001,0.694,-0.003,0.720,0.0000000,0.0000000,0.000,0.000,0.000,0.000,0,00:00:00,0,0.000,0.000,0.000,0.000,0.000,0.000,0.000,0.000,0.000,0.000,0.000,0.000,0.000,0.000
23.618,0,0,-2.253,-0.029,179.032,-2.052,-0.064,740.993,-0.705,-0.038,-9.791,0.000,0.000,0.0103675,0.000,9144.000,2.251,2.036,1013.278,15.054,-0.231,-0.210,-9.810,-0.005,0.353,-0.006,-0.003,-0.005,0.000,0.000,0.000,0.000,0.694,-0.002,0.720,0.0000000,0.0000000,0.000,0.000,0.000,0.000,0,00:00:00,0,0.000,0.000,0.000,0.000,0.000,0.000,0.000,0.000,0.000,0.000,0.000,0.000,0.000,0.000
23.719,0,0,-2.246,-0.032,217.772,-2.010,-0.047,712.610,-0.722,0.152,-9.688,0.000,0.000,0.0103675,0.000,9144.000,2.181,2.056,1013.303,15.048,-0.443,-0.407,-9.708,0.152,0.368,-0.032,0.006,-0.014,0.000,0.000,0.000,0.002,0.694,0.002,0.720,0.0000000,0.0000000,0.000,0.000,0.000,0.000,0,00:00:00,0,0.000,0.000,0.000,0.000,0.000,0.000,0.000,0.000,0.000,0.000,0.000,0.000,0.000,0.000
23.820,0,0,-2.231,-0.032,248.603,-1.930,-0.034,680.518,-0.368,0.112,-9.795,0.000,0.000,0.0103675,0.000,9144.000,2.098,2.095,1013.252,15.051,-0.018,-0.003,-9.801,0.089,0.118,-0.025,-0.027,-0.011,0.000,0.000,0.000,0.002,0.698,0.003,0.716,0.0000000,0.0000000,0.000,0.000,0.000,0.000,0,00:00:00,0,0.000,0.000,0.000,0.000,0.000,0.000,0.000,0.000,0.000,0.000,0.000,0.000,0.000,0.000
23.921,0,0,-2.209,-0.032,272.271,-1.879,-0.022,645.584,-0.651,0.101,-9.804,0.000,0.000,0.0103675,0.000,9144.000,2.003,1.471,1013.265,15.049,-0.123,-0.146,-9.820,0.104,0.344,0.028,-0.022,0.004,0.000,0.000,0.000,0.003,0.696,0.003,0.718,0.0000000,0.0000000,0.000,0.000,0.000,0.000,0,00:00:00,0,0.000,0.000,0.000,0.000,0.000,0.000,0.000,0.000,0.000,0.000,0.000,0.000,0.000,0.000
24.022,0,0,-2.182,-0.031,289.642,-1.842,-0.024,608.669,-0.783,-0.034,-9.854,0.000,0.000,0.0103675,0.000,9144.000,1.900,1.801,1013.215,15.052,0.288,0.250,-9.876,-0.049,0.423,-0.020,0.011,-0.009,0.000,0.000,0.000,0.000,0.694,0.001,0.720,0.0000000,0.0000000,0.000,0.000,0.000,0.000,0,00:00:00,0,0.000,0.000,0.000,0.000,0.000,0.000,0.000,0.000,0.000,0.000,0.000,0.000,0.000,0.000
24.123,0,0,-2.150,-0.031,301.360,-1.755,-0.021,570.405,-0.288,0.005,-9.820,0.000,0.000,0.0103675,0.000,9144.000,1.792,2.093,1013.241,15.050,0.079,-0.017,-9.824,0.009,0.070,0.020,-0.007,0.020,0.000,0.000,0.000,0.001,0.699,0.001,0.715,0.0000000,0.0000000,0.000,0.000,0.000,0.000,0,00:00:00,0,0.000,0.000,0.000,0.000,0.000,0.000,0.000,0.000,0.000,0.000,0.000,0.000,0.000,0.000
24.224,0,0,-2.111,-0.030,308.188,-1.677,-0.031,531.444,-0.362,-0.107,-9.883,0.000,0.000,0.0103675,0.000,9144.000,1.679,1.270,1013.219,15.050,0.259,0.195,-9.888,-0.093,0.175,0.009,0.018,0.000,0.000,0.000,0.000,-0.001,0.700,-0.002,0.714,0.0000000,0.0000000,0.000,0.000,0.000,0.000,0,00:00:00,0,0.000,0.000,0.000,0.000,0.000,0.000,0.000,0.000,0.000,0.000,0.000,0.000,0.000,0.000
24.325,0,0,-2.068,-0.031,310.701,-1.608,-0.038,492.266,-0.443,-0.092,-9.782,0.000,0.000,0.0103675,0.000,9144.000,1.564,1.089,1013.253,15.049,-0.025,-0.030,-9.789,-0.066,0.232,0.012,-0.007,0.011,0.000,0.000,0.000,-0.001,0.699,-0.003,0.715,0.0000000,0.0000000,0.000,0.000,0.000,0.000,0,00:00:00,0,0.000,0.000,0.000,0.000,0.000,0.000,0.000,0.000,0.000,0.000,0.000,0.000,0.000,0.000
24.426,0,0,-2.022,-0.031,309.509,-1.562,-0.038,453.323,-0.643,-0.013,-9.778,0.000,0.000,0.0103675,0.000,9144.000,1.449,1.243,1013.263,15.051,-0.110,-0.113,-9.792,0.013,0.359,-0.001,0.003,-0.021,0.000,0.000,0.000,-0.000,0.697,-0.002,0.717,0.0000000,0.0000000,0.000,0.000,0.000,0.000,0,00:00:00,0,0.000,0.000,0.000,0.000,0.000,0.000,0.000,0.000,0.000,0.000,0.000,0.000,0.000,0.000
24.527,0,0,-1.974,-0.033,305.208,-1.488,-0.059,415.006,-0.336,-0.231,-9.957,0.000,0.000,0.0103675,0.000,9144.000,1.334,1.663,1013.226,15.049,0.197,0.197,-9.962,-0.217,0.128,-0.012,-0.003,0.016,0.000,0.000,0.000,-0.004,0.700,-0.004,0.715,0.0000000,0.0000000,0.000,0.000,0.000,0.000,0,00:00:00,0,0.000,0.000,0.000,0.000,0.000,0.000,0.000,0.000,0.000,0.000,0.000,0.000,0.000,0.000
24.628,0,0,-1.924,-0.035,298.201,-1.471,-0.049,377.589,-0.881,0.080,-9.839,0.000,0.000,0.0103675,0.000,9144.000,1.222,1.208,1013.262,15.049,-0.097,-0.087,-9.865,0.072,0.514,-0.022,-0.013,0.008,0.000,0.000,0.000,-0.001,0.694,-0.000,0.720,0.0000000,0.0000000,0.000,0.000,0.000,0.000,0,00:00:00,0,0.000,0.000,0.000,0.000,0.000,0.000,0.000,0.000,0.000,0.000,0.000,0.000,0.000,0.000
24.729,0,0,-1.876,-0.035,288.981,-1.413,-0.032,341.356,-0.446,0.147,-9.767,0.000,0.000,0.0103675,0.000,9144.000,1.112,2.131,1013.265,15.053,-0.128,-0.076,-9.776,0.127,0.179,-0.012,0.008,-0.006,0.000,0.000,0.000,0.001,0.697,0.003,0.717,0.0000000,0.0000000,0.000,0.000,0.000,0.000,0,00:00:00,0,0.000,0.000,0.000,0.000,0.000,0.000,0.000,0.000,0.000,0.000,0.000,0.000,0.000,0.000
24.830,0,0,-1.826,-0.035,278.011,-1.363,-0.030,306.550,-0.502,0.009,-9.744,0.000,0.000,0.0103675,0.000,9144.000,1.005,1.569,1013.215,15.050,0.292,0.335,-9.754,-0.009,0.243,0.000,-0.009,-0.035,0.000,0.000,0.000,-0.000,0.698,0.001,0.716,0.0000000,0.0000000,0.000,0.000,0.000,0.000,0,00:00:00,0,0.000,0.000,0.000,0.000,0.000,0.000,0.000,0.000,0.000,0.000,0.000,0.000,0.000,0.000
24.931,0,0,-1.778,-0.034,265.553,-1.360,-0.028,273.249,-0.947,0.002,-9.810,0.000,0.000,0.0103675,0.000,9144.000,0.902,1.523,1013.255,15.050,-0.040,0.054,-9.840,-0.021,0.543,-0.004,-0.003,0.019,0.000,0.000,0.000,-0.001,0.692,0.001,0.721,0.0000000,0.0000000,0.000,0.000,0.000,0.000,0,00:00:00,0,0.000,0.000,0.000,0.000,0.000,0.000,0.000,0.000,0.000,0.000,0.000,0.000,0.000,0.000
25.032,0,0,-1.734,-0.034,251.978,-1.340,-0.035,241.614,-0.740,-0.091,-9.831,0.000,0.000,0.0103675,0.000,9144.000,0.804,2.350,1013.253,15.050,-0.027,0.049,-9.852,-0.127,0.356,-0.016,-0.010,-0.008,0.000,0.000,0.000,-0.004,0.693,-0.001,0.721,0.0000000,0.0000000,0.000,0.000,0.000,0.000,0,00:00:00,0,0.000,0.000,0.000,0.000,0.000,0.000,0.000,0.000,0.000,0.000,0.000,0.000,0.000,0.000
25.133,0,0,-1.691,-0.034,237.564,-1.322,-0.037,211.742,-0.742,-0.040,-9.704,0.000,0.000,0.0103675,0.000,9144.000,0.711,2.240,1013.273,15.051,-0.189,-0.077,-9.726,-0.091,0.361,-0.017,-0.024,-0.012,0.000,0.000,0.000,-0.005,0.693,-0.001,0.721,0.0000000,0.0000000,0.000,0.000,0.000,0.000,0,00:00:00,0,0.000,0.000,0.000,0.000,0.000,0.000,0.000,0.000,0.000,0.000,0.000,0.000,0.000,0.000
25.234,0,0,-1.651,-0.034,222.568,-1.301,-0.029,183.688,-0.685,0.058,-9.602,0.000,0.000,0.0103675,0.000,9144.000,0.623,2.251,1013.288,15.050,-0.318,-0.256,-9.620,-0.007,0.335,-0.014,0.013,-0.005,0.000,0.000,0.000,-0.004,0.694,0.001,0.720,0.0000000,0.0000000,0.000,0.000,0.000,0.000,0,00:00:00,0,0.000,0.000,0.000,0.000,0.000,0.000,0.000,0.000,0.000,0.000,0.000,0.000,0.000,0.000
25.335,0,0,-1.613,-0.033,207.304,-1.293,-0.020,157.504,-0.795,0.072,-9.954,0.000,0.000,0.0103675,0.000,9144.000,0.541,2.085,1013.238,15.049,0.104,0.143,-9.977,-0.006,0.415,-0.011,0.018,0.004,0.000,0.000,0.000,-0.004,0.694,0.002,0.720,0.0000000,0.0000000,0.000,0.000,0.000,0.000,0,00:00:00,0,0.000,0.000,0.000,0.000,0.000,0.000,0.000,0.000,0.000,0.000,0.000,0.000,0.000,0.000
25.436,0,0,-1.577,-0.031,191.919,-1.267,-0.004,133.205,-0.594,0.141,-9.866,0.000,0.000,0.0103675,0.000,9144.000,0.464,2.181,1013.233,15.050,0.139,0.186,-9.880,0.077,0.278,0.015,0.021,-0.011,0.000,0.000,0.000,-0.001,0.696,0.003,0.718,0.0000000,0.0000000,0.000,0.000,0.000,0.000,0,00:00:00,0,0.000,0.000,0.000,0.000,0.000,0.000,0.000,0.000,0.000,0.000,0.000,0.000,0.000,0.000
25.537,0,0,-1.541,-0.028,176.555,-1.231,-0.010,110.742,-0.468,-0.073,-9.905,0.000,0.000,0.0103675,0.000,9144.000,0.392,1.837,1013.254,15.049,-0.035,-0.022,-9.913,-0.142,0.210,-0.007,0.012,0.004,0.000,0.000,0.000,-0.005,0.698,0.000,0.716,0.0000000,0.0000000,0.000,0.000,0.000,0.000,0,00:00:00,0,0.000,0.000,0.000,0.000,0.000,0.000,0.000,0.000,0.000,0.000,0.000,0.000,0.000,0.000
25.638,0,0,-1.507,-0.026,161.435,-1.212,0.001,90.172,-0.618,0.102,-9.659,0.000,0.000,0.0103675,0.000,9144.000,0.326,1.491,1013.220,15.049,0.251,0.250,-9.673,0.037,0.330,0.003,0.005,0.013,0.000,0.000,0.000,-0.003,0.696,0.002,0.718,0.0000000,0.0000000,0.000,0.000,0.000,0.000,0,00:00:00,0,0.000,0.000,0.000,0.000,0.000,0.000,0.000,0.000,0.000,0.000,0.000,0.000,0.000,0.000
25.739,0,0,-1.474,-0.023,146.607,-1.189,0.013,71.370,-0.566,0.101,-9.633,0.000,0.000,0.0103675,0.000,9144.000,0.265,1.707,1013.250,15.051,-0.003,-0.035,-9.645,0.011,0.293,-0.026,0.034,0.006,0.000,0.000,0.000,-0.003,0.697,0.004,0.717,0.0000000,0.0000000,0.000,0.000,0.000,0.000,0,00:00:00,0,0.000,0.000,0.000,0.000,0.000,0.000,0.000,0.000,0.000,0.000,0.000,0.000,0.000,0.000
25.840,0,0,-1.442,-0.019,132.240,-1.169,0.022,54.316,-0.577,0.081,-9.730,0.000,0.000,0.0103675,0.000,9144.000,0.210,1.625,1013.233,15.050,0.144,0.081,-9.743,0.002,0.281,0.012,-0.036,-0.021,0.000,0.000,0.000,-0.003,0.696,0.003,0.718,0.0000000,0.0000000,0.000,0.000,0.000,0.000,0,00:00:00,0,0.000,0.000,0.000,0.000,0.000,0.000,0.000,0.000,0.000,0.000,0.000,0.000,0.000,0.000
25.941,0,0,-1.412,-0.015,118.383,-1.163,0.035,38.921,-0.689,0.118,-9.782,0.000,0.000,0.0103675,0.000,9144.000,0.160,1.741,1013.250,15.049,-0.001,-0.073,-9.800,0.026,0.365,-0.011,0.014,0.012,0.000,0.000,0.000,-0.003,0.695,0.004,0.719,0.0000000,0.0000000,0.000,0.000,0.000,0.000,0,00:00:00,0,0.000,0.000,0.000,0.000,0.000,0.000,0.000,0.000,0.000,0.000,0.000,0.000,0.000,0.000
26.042,0,0,-1.383,-0.009,105.125,-1.139,0.060,25.138,-0.494,0.247,-9.726,0.000,0.000,0.0103675,0.000,9144.000,0.115,1.896,1013.257,15.049,-0.058,-0.098,-9.738,0.148,0.235,-0.007,0.037,-0.015,0.000,0.000,0.000,-0.001,0.698,0.006,0.716,0.0000000,0.0000000,0.000,0.000,0.000,0.000,0,00:00:00,0,0.000,0.000,0.000,0.000,0.000,0.000,0.000,0.000,0.000,0.000,0.000,0.000,0.000,0.000
26.143,0,0,-1.354,-0.002,92.526,-1.078,0.070,12.873,-0.122,0.094,-9.852,0.000,0.000,0.0103675,0.000,9144.000,0.074,1.534,1013.260,15.051,-0.085,-0.098,-9.853,0.036,-0.002,0.040,0.012,0.006,0.000,0.000,0.000,0.000,0.703,0.004,0.712,0.0000000,0.0000000,0.000,0.000,0.000,0.000,0,00:00:00,0,0.000,0.000,0.000,0.000,0.000,0.000,0.000,0.000,0.000,0.000,0.000,0.000,0.000,0.000
26.244,0,0,-1.323,0.005,80.632,-1.046,0.080,2.076,-0.380,0.100,-9.675,0.000,0.000,0.0103675,0.000,9144.000,0.038,0.727,1013.263,15.049,-0.105,-0.060,-9.681,0.025,0.206,-0.017,-0.021,0.013,0.000,0.000,0.000,-0.001,0.701,0.004,0.713,0.0000000,0.0000000,0.000,0.000,0.000,0.000,0,00:00:00,0,0.000,0.000,0.000,0.000,0.000,0.000,0.000,0.000,0.000,0.000,0.000,0.000,0.000,0.000
26.345,0,0,-1.293,0.012,69.494,-1.042,0.097,-7.365,-0.650,0.179,-9.908,0.000,0.000,0.0103675,0.000,9144.000,0.007,1.034,1013.236,15.050,0.114,0.146,-9.923,0.116,0.387,0.016,0.038,-0.011,0.000,0.000,0.000,0.001,0.698,0.005,0.716,0.0000000,0.0000000,0.000,0.000,0.000,0.000,0,00:00:00,0,0.000,0.000,0.000,0.000,0.000,0.000,0.000,0.000,0.000,0.000,0.000,0.000,0.000,0.000
26.446,0,0,-1.266,0.021,59.095,-1.036,0.108,-15.539,-0.605,0.122,-9.876,0.000,0.000,0.0103675,0.000,9144.000,0.022,1.526,1013.234,15.048,0.136,0.142,-9.890,0.045,0.315,-0.014,-0.003,0.014,0.000,0.000,0.000,-0.000,0.697,0.005,0.717,0.0000000,0.0000000,0.000,0.000,0.000,0.000,0,00:00:00,0,0.000,0.000,0.000,0.000,0.000,0.000,0.000,0.000,0.000,0.000,0.000,0.000,0.000,0.000
26.547,0,0,-1.243,0.029,49.418,-1.056,0.122,-22.532,-0.853,0.152,-9.630,0.000,0.000,0.0103675,0.000,9144.000,0.046,1.685,1013.259,15.052,-0.072,-0.042,-9.657,0.071,0.476,-0.005,0.002,-0.007,0.000,0.000,0.000,-0.000,0.693,0.005,0.721,0.0000000,0.0000000,0.000,0.000,0.000,0.000,0,00:00:00,0,0.000,0.000,0.000,0.000,0.000,0.000,0.000,0.000,0.000,0.000,0.000,0.000,0.000,0.000
26.648,0,0,-1.222,0.038,40.531,-1.051,0.125,-28.424,-0.602,0.044,-9.795,0.000,0.000,0.0103675,0.000,9144.000,0.066,2.247,1013.218,15.051,0.267,0.262,-9.809,-0.013,0.293,0.022,0.060,-0.016,0.000,0.000,0.000,-0.001,0.696,0.003,0.718,0.0000000,0.0000000,0.000,0.000,0.000,0.000,0,00:00:00,0,0.000,0.000,0.000,0.000,0.000,0.000,0.000,0.000,0.000,0.000,0.000,0.000,0.000,0.000
26.749,0,0,-1.203,0.046,32.368,-1.044,0.139,-33.332,-0.565,0.164,-9.810,0.000,0.000,0.0103675,0.000,9144.000,0.084,1.807,1013.224,15.048,0.218,0.201,-9.824,0.108,0.265,0.003,-0.028,0.009,0.000,0.000,0.000,0.001,0.696,0.004,0.718,0.0000000,0.0000000,0.000,0.000,0.000,0.000,0,00:00:00,0,0.000,0.000,0.000,0.000,0.000,0.000,0.000,0.000,0.000,0.000,0.000,0.000,0.000,0.000
26.850,0,0,-1.185,0.055,24.916,-1.041,0.140,-37.314,-0.585,0.040,-9.559,0.000,0.000,0.0103675,0.000,9144.000,0.098,1.756,1013.232,15.050,0.146,0.144,-9.573,0.007,0.290,0.022,-0.009,0.000,0.000,0.000,0.000,0.000,0.696,0.003,0.718,0.0000000,0.0000000,0.000,0.000,0.000,0.000,0,00:00:00,0,0.000,0.000,0.000,0.000,0.000,0.000,0.000,0.000,0.000,0.000,0.000,0.000,0.000,0.000
26.951,0,0,-1.168,0.063,18.157,-1.030,0.158,-40.480,-0.510,0.213,-9.589,0.000,0.000,0.0103675,0.000,9144.000,0.110,1.770,1013.236,15.048,0.114,0.107,-9.600,0.176,0.242,-0.003,-0.003,0.010,0.000,0.000,0.000,0.003,0.697,0.005,0.717,0.0000000,0.0000000,0.000,0.000,0.000,0.000,0,00:00:00,0,0.000,0.000,0.000,0.000,0.000,0.000,0.000,0.000,0.000,0.000,0.000,0.000,0.000,0.000
27.052,0,0,-1.152,0.072,12.002,-1.016,0.163,-42.991,-0.466,0.082,-9.939,0.000,0.000,0.0103675,0.000,9144.000,0.119,1.615,1013.294,15.049,-0.365,-0.368,-9.948,0.067,0.214,0.022,-0.010,-0.007,0.000,0.000,0.000,0.003,0.698,0.004,0.716,0.0000000,0.0000000,0.000,0.000,0.000,0.000,0,00:00:00,0,0.000,0.000,0.000,0.000,0.000,0.000,0.000,0.000,0.000,0.000,0.000,0.000,0.000,0.000
27.153,0,0,-1.138,0.080,6.503,-1.046,0.159,-44.788,-0.900,0.004,-9.606,0.000,0.000,0.0103675,0.000,9144.000,0.127,1.454,1013.283,15.050,-0.278,-0.292,-9.634,-0.004,0.521,0.006,0.006,-0.026,0.000,0.000,0.000,0.001,0.693,0.001,0.721,0.0000000,0.0000000,0.000,0.000,0.000,0.000,0,00:00:00,0,0.000,0.000,0.000,0.000,0.000,0.000,0.000,0.000,0.000,0.000,0.000,0.000,0.000,0.000
27.254,0,0,-1.126,0.086,1.636,-1.038,0.148,-45.987,-0.505,-0.058,-9.686,0.000,0.000,0.0103675,0.000,9144.000,0.132,2.257,1013.266,15.051,-0.137,-0.172,-9.697,-0.041,0.215,0.023,0.019,-0.020,0.000,0.000,0.000,-0.000,0.696,-0.001,0.718,0.0000000,0.0000000,0.000,0.000,0.000,0.000,0,00:00:00,0,0.000,0.000,0.000,0.000,0.000,0.000,0.000,0.000,0.000,0.000,0.000,0.000,0.000,0.000
27.355,0,0,-1.117,0.092,-2.652,-1.069,0.152,-46.676,-0.897,0.089,-9.839,0.000,0.000,0.0103675,0.000,9144.000,0.135,1.710,1013.264,15.051,-0.116,-0.152,-9.867,0.097,0.505,-0.007,0.012,-0.013,0.000,0.000,0.000,0.002,0.693,0.001,0.721,0.0000000,0.0000000,0.000,0.000,0.000,0.000,0,00:00:00,0,0.000,0.000,0.000,0.000,0.000,0.000,0.000,0.000,0.000,0.000,0.000,0.000,0.000,0.000
27.456,0,0,-1.110,0.097,-6.322,-1.076,0.155,-46.856,-0.652,0.079,-9.870,0.000,0.000,0.0103675,0.000,9144.000,0.137,2.284,1013.199,15.050,0.426,0.390,-9.887,0.098,0.303,0.012,-0.005,0.007,0.000,0.000,0.000,0.003,0.694,0.002,0.720,0.0000000,0.0000000,0.000,0.000,0.000,0.000,0,00:00:00,0,0.000,0.000,0.000,0.000,0.000,0.000,0.000,0.000,0.000,0.000,0.000,0.000,0.000,0.000
27.557,0,0,-1.104,0.103,-9.538,-1.083,0.160,-46.682,-0.645,0.102,-9.868,0.000,0.000,0.0103675,0.000,9144.000,0.138,2.032,1013.237,15.049,0.107,0.075,-9.884,0.142,0.323,0.020,0.028,-0.027,0.000,0.000,0.000,0.005,0.695,0.002,0.719,0.0000000,0.0000000,0.000,0.000,0.000,0.000,0,00:00:00,0,0.000,0.000,0.000,0.000,0.000,0.000,0.000,0.000,0.000,0.000,0.000,0.000,0.000,0.000
27.658,0,0,-1.100,0.108,-12.295,-1.096,0.162,-46.174,-0.709,0.079,-9.835,0.000,0.000,0.0103675,0.000,9144.000,0.137,1.872,1013.243,15.050,0.062,0.028,-9.853,0.120,0.361,0.004,-0.016,0.005,0.000,0.000,0.000,0.006,0.694,0.002,0.720,0.0000000,0.0000000,0.000,0.000,0.000,0.000,0,00:00:00,0,0.000,0.000,0.000,0.000,0.000,0.000,0.000,0.000,0.000,0.000,0.000,0.000,0.000,0.000
27.759,0,0,-1.098,0.111,-14.592,-1.099,0.138,-45.359,-0.607,-0.180,-9.806,0.000,0.000,0.0103675,0.000,9144.000,0.136,2.032,1013.215,15.048,0.289,0.234,-9.821,-0.123,0.282,0.011,-0.023,-0.020,0.000,0.000,0.000,0.001,0.695,-0.003,0.719,0.0000000,0.0000000,0.000,0.000,0.000,0.000,0,00:00:00,0,0.000,0.000,0.000,0.000,0.000,0.000,0.000,0.000,0.000,0.000,0.000,0.000,0.000,0.000
27.860,0,0,-1.097,0.113,-16.525,-1.131,0.122,-44.344,-0.893,-0.101,-9.914,0.000,0.000,0.0103675,0.000,9144.000,0.134,1.903,1013.239,15.050,0.089,0.033,-9.943,-0.052,0.480,-0.011,-0.016,0.002,0.000,0.000,0.000,0.000,0.692,-0.003,0.722,0.0000000,0.0000000,0.000,0.000,0.000,0.000,0,00:00:00,0,0.000,0.000,0.000,0.000,0.000,0.000,0.000,0.000,0.000,0.000,0.000,0.000,0.000,0.000
27.961,0,0,-1.098,0.112,-18.122,-1.148,0.096,-43.151,-0.746,-0.195,-9.879,0.000,0.000,0.0103675,0.000,9144.000,0.131,2.380,1013.258,15.052,-0.067,-0.134,-9.903,-0.121,0.339,0.025,-0.069,-0.007,0.000,0.000,0.000,-0.000,0.692,-0.005,0.722,0.0000000,0.0000000,0.000,0.000,0.000,0.000,0,00:00:00,0,0.000,0.000,0.000,0.000,0.000,0.000,0.000,0.000,0.000,0.000,0.000,0.000,0.000,0.000
28.062,0,0,-1.101,0.110,-19.373,-1.168,0.072,-41.764,-0.778,-0.181,-9.617,0.000,0.000,0.0103675,0.000,9144.000,0.127,2.369,1013.246,15.050,0.030,-0.006,-9.642,-0.117,0.382,-0.009,-0.016,0.012,0.000,0.000,0.000,-0.001,0.692,-0.006,0.722,0.0000000,0.0000000,0.000,0.000,0.000,0.000,0,00:00:00,0,0.000,0.000,0.000,0.000,0.000,0.000,0.000,0.000,0.000,0.000,0.000,0.000,0.000,0.000
28.163,0,0,-1.106,0.105,-20.315,-1.196,0.050,-40.263,-0.851,-0.165,-9.743,0.000,0.000,0.0103675,0.000,9144.000,0.123,2.364,1013.237,15.051,0.106,0.088,-9.771,-0.096,0.442,0.004,0.022,0.014,0.000,0.000,0.000,-0.001,0.692,-0.005,0.722,0.0000000,0.0000000,0.000,0.000,0.000,0.000,0,00:00:00,0,0.000,0.000,0.000,0.000,0.000,0.000,0.000,0.000,0.000,0.000,0.000,0.000,0.000,0.000
28.264,0,0,-1.112,0.099,-20.994,-1.213,0.027,-38.687,-0.754,-0.181,-9.827,0.000,0.000,0.0103675,0.000,9144.000,0.119,2.413,1013.237,15.049,0.112,0.098,-9.850,-0.096,0.358,0.015,-0.023,-0.018,0.000,0.000,0.000,-0.001,0.693,-0.007,0.721,0.0000000,0.0000000,0.000,0.000,0.000,0.000,0,00:00:00,0,0.000,0.000,0.000,0.000,0.000,0.000,0.000,0.000,0.000,0.000,0.000,0.000,0.000,0.000
28.365,0,0,-1.120,0.091,-21.438,-1.229,0.002,-37.054,-0.745,-0.197,-9.827,0.000,0.000,0.0103675,0.000,9144.000,0.114,2.313,1013.237,15.049,0.112,0.121,-9.850,-0.096,0.358,0.015,-0.023,-0.018,0.000,0.000,0.000,-0.001,0.693,-0.007,0.721,0.0000000,0.0000000,0.000,0.000,0.000,0.000,0,00:00:00,0,0.000,0.000,0.000,0.000,0.000,0.000,0.000,0.000,0.000,0.000,0.000,0.000,0.000,0.000
28.466,0,0,-1.127,0.082,-21.723,-1.231,-0.001,-35.428,-0.619,0.013,-9.846,0.000,0.000,0.0103675,0.000,9144.000,0.109,2.264,1013.272,15.051,-0.185,-0.206,-9.861,0.104,0.278,-0.007,-0.014,-0.026,0.000,0.000,0.000,0.003,0.695,-0.004,0.719,0.0000000,0.0000000,0.000,0.000,0.000,0.000,0,00:00:00,0,0.000,0.000,0.000,0.000,0.000,0.000,0.000,0.000,0.000,0.000,0.000,0.000,0.000,0.000
28.567,0,0,-1.134,0.073,-21.808,-1.235,-0.032,-33.765,-0.631,-0.272,-9.741,0.000,0.000,0.0103675,0.000,9144.000,0.104,1.980,1013.254,15.049,-0.033,-0.071,-9.758,-0.176,0.315,0.005,0.017,0.011,0.000,0.000,0.000,0.000,0.695,-0.007,0.719,0.0000000,0.0000000,0.000,0.000,0.000,0.000,0,00:00:00,0,0.000,0.000,0.000,0.000,0.000,0.000,0.000,0.000,0.000,0.000,0.000,0.000,0.000,0.000
28.668,0,0,-1.141,0.062,-21.734,-1.237,-0.064,-32.108,-0.620,-0.278,-9.741,0.000,0.000,0.0103675,0.000,9144.000,0.099,1.867,1013.254,15.049,-0.033,-0.051,-9.758,-0.176,0.315,0.005,0.017,0.011,0.000,0.000,0.000,-0.001,0.696,-0.008,0.718,0.0000000,0.0000000,0.000,0.000,0.000,0.000,0,00:00:00,0,0.000,0.000,0.000,0.000,0.000,0.000,0.000,0.000,0.000,0.000,0.000,0.000,0.000,0.000
28.769,0,0,-1.146,0.050,-21.466,-1.219,-0.074,-30.455,-0.423,-0.080,-9.971,0.000,0.000,0.0103675,0.000,9144.000,0.095,1.811,1013.201,15.052,0.407,0.382,-9.978,0.028,0.180,0.006,0.008,-0.030,0.000,0.000,0.000,0.001,0.698,-0.006,0.716,0.0000000,0.0000000,0.000,0.000,0.000,0.000,0,00:00:00,0,0.000,0.000,0.000,0.000,0.000,0.000,0.000,0.000,0.000,0.000,0.000,0.000,0.000,0.000
28.870,0,0,-1.150,0.039,-21.114,-1.205,-0.060,-28.852,-0.471,0.167,-9.872,0.000,0.000,0.0103675,0.000,9144.000,0.090,1.400,1013.220,15.052,0.251,0.232,-9.879,0.256,0.225,-0.014,-0.030,0.022,0.000,0.000,0.000,0.007,0.698,0.000,0.716,0.0000000,0.0000000,0.000,0.000,0.000,0.000,0,00:00:00,0,0.000,0.000,0.000,0.000,0.000,0.000,0.000,0.000,0.000,0.000,0.000,0.000,0.000,0.000
28.971,0,0,-1.152,0.030,-20.669,-1.192,-0.043,-27.302,-0.473,0.182,-9.871,0.000,0.000,0.0103675,0.000,9144.000,0.085,1.438,1013.220,15.052,0.251,0.250,-9.879,0.256,0.225,-0.014,-0.030,0.022,0.000,0.000,0.000,0.010,0.698,0.004,0.716,0.0000000,0.0000000,0.000,0.000,0.000,0.000,0,00:00:00,0,0.000,0.000,0.000,0.000,0.000,0.000,0.000,0.000,0.000,0.000,0.000,0.000,0.000,0.000
29.072,0,0,-1.153,0.022,-20.148,-1.204,-0.069,-25.787,-0.727,-0.243,-9.609,0.000,0.000,0.0103675,0.000,9144.000,0.080,1.458,1013.213,15.049,0.305,0.265,-9.630,-0.149,0.404,0.019,0.001,-0.024,0.000,0.000,0.000,0.004,0.695,-0.003,0.719,0.0000000,0.0000000,0.000,0.000,0.000,0.000,0,00:00:00,0,0.000,0.000,0.000,0.000,0.000,0.000,0.000,0.000,0.000,0.000,0.000,0.000,0.000,0.000
29.173,0,0,-1.156,0.014,-19.645,-1.221,-0.079,-24.409,-0.770,-0.095,-9.712,0.000,0.000,0.0103675,0.000,9144.000,0.076,1.925,1013.273,15.049,-0.195,-0.274,-9.734,-0.022,0.413,-0.024,0.027,0.002,0.000,0.000,0.000,0.002,0.694,-0.003,0.720,0.0000000,0.0000000,0.000,0.000,0.000,0.000,0,00:00:00,0,0.000,0.000,0.000,0.000,0.000,0.000,0.000,0.000,0.000,0.000,0.000,0.000,0.000,0.000
29.274,0,0,-1.160,0.005,-19.071,-1.232,-0.083,-23.082,-0.721,-0.038,-9.716,0.000,0.000,0.0103675,0.000,9144.000,0.072,2.103,1013.252,15.051,-0.016,-0.120,-9.736,0.051,0.355,0.016,-0.021,-0.019,0.000,0.000,0.000,0.004,0.694,-0.003,0.720,0.0000000,0.0000000,0.000,0.000,0.000,0.000,0,00:00:00,0,0.000,0.000,0.000,0.000,0.000,0.000,0.000,0.000,0.000,0.000,0.000,0.000,0.000,0.000
29.375,0,0,-1.164,-0.004,-18.436,-1.249,-0.097,-21.820,-0.780,-0.137,-9.811,0.000,0.000,0.0103675,0.000,9144.000,0.068,2.155,1013.226,15.050,0.197,0.070,-9.835,-0.027,0.389,0.020,-0.024,-0.019,0.000,0.000,0.000,0.003,0.693,-0.005,0.721,0.0000000,0.0000000,0.000,0.000,0.000,0.000,0,00:00:00,0,0.000,0.000,0.000,0.000,0.000,0.000,0.000,0.000,0.000,0.000,0.000,0.000,0.000,0.000
29.476,0,0,-1.169,-0.013,-17.806,-1.242,-0.115,-20.668,-0.549,-0.191,-9.935,0.000,0.000,0.0103675,0.000,9144.000,0.064,2.279,1013.255,15.050,-0.043,-0.109,-9.949,-0.076,0.239,0.005,0.014,0.035,0.000,0.000,0.000,0.003,0.696,-0.005,0.718,0.0000000,0.0000000,0.000,0.000,0.000,0.000,0,00:00:00,0,0.000,0.000,0.000,0.000,0.000,0.000,0.000,0.000,0.000,0.000,0.000,0.000,0.000,0.000
29.577,0,0,-1.173,-0.023,-17.158,-1.237,-0.130,-19.585,-0.565,-0.162,-9.880,0.000,0.000,0.0103675,0.000,9144.000,0.061,1.787,1013.252,15.052,-0.015,-0.067,-9.894,-0.060,0.270,-0.013,-0.012,-0.016,0.000,0.000,0.000,0.002,0.696,-0.005,0.718,0.0000000,0.0000000,0.000,0.000,0.000,0.000,0,00:00:00,0,0.000,0.000,0.000,0.000,0.000,0.000,0.000,0.000,0.000,0.000,0.000,0.000,0.000,0.000
29.678,0,0,-1.177,-0.033,-16.477,-1.266,-0.143,-18.560,-0.912,-0.144,-9.896,0.000,0.000,0.0103675,0.000,9144.000,0.058,1.710,1013.227,15.054,0.188,0.146,-9.926,-0.029,0.503,0.012,-0.019,0.014,0.000,0.000,0.000,0.003,0.692,-0.005,0.722,0.0000000,0.0000000,0.000,0.000,0.000,0.000,0,00:00:00,0,0.000,0.000,0.000,0.000,0.000,0.000,0.000,0.000,0.000,0.000,0.000,0.000,0.000,0.000
29.779,0,0,-1.182,-0.044,-15.825,-1.258,-0.146,-17.630,-0.534,-0.056,-9.855,0.000,0.000,0.0103675,0.000,9144.000,0.055,2.362,1013.245,15.048,0.040,-0.014,-9.867,0.057,0.220,0.001,-0.001,0.013,0.000,0.000,0.000,0.005,0.696,-0.003,0.718,0.0000000,0.0000000,0.000,0.000,0.000,0.000,0,00:00:00,0,0.000,0.000,0.000,0.000,0.000,0.000,0.000,0.000,0.000,0.000,0.000,0.000,0.000,0.000
29.880,0,0,-1.187,-0.054,-15.243,-1.268,-0.164,-16.799,-0.725,-0.205,-9.606,0.000,0.000,0.0103675,0.000,9144.000,0.052,1.824,1013.296,15.049,-0.381,-0.451,-9.628,-0.051,0.368,0.046,-0.043,0.012,0.000,0.000,0.000,0.005,0.694,-0.006,0.720,0.0000000,0.0000000,0.000,0.000,0.000,0.000,0,00:00:00,0,0.000,0.000,0.000,0.000,0.000,0.000,0.000,0.000,0.000,0.000,0.000,0.000,0.000,0.000
29.981,0,0,-1.192,-0.065,-14.676,-1.280,-0.186,-16.040,-0.751,-0.249,-9.603,0.000,0.000,0.0103675,0.000,9144.000,0.050,2.130,1013.296,15.049,-0.381,-0.483,-9.628,-0.051,0.368,0.046,-0.043,0.012,0.000,0.000,0.000,0.006,0.693,-0.008,0.721,0.0000000,0.0000000,0.000,0.000,0.000,0.000,0,00:00:00,0,0.000,0.000,0.000,0.000,0.000,0.000,0.000,0.000,0.000,0.000,0.000,0.000,0.000,0.000
30.082,0,0,-1.198,-0.075,-14.053,-1.283,-0.179,-15.318,-0.655,0.031,-9.814,0.000,0.000,0.0103675,0.000,9144.000,0.047,2.283,1013.232,15.051,0.147,0.018,-9.828,0.221,0.308,-0.009,0.005,-0.009,0.000,0.000,0.000,0.010,0.694,-0.004,0.719,0.0000000,0.0000000,0.000,0.000,0.000,0.000,0,00:00:00,0,0.000,0.000,0.000,0.000,0.000,0.000,0.000,0.000,0.000,0.000,0.000,0.000,0.000,0.000
30.183,0,0,-1.203,-0.085,-13.394,-1.292,-0.193,-14.621,-0.723,-0.189,-9.786,0.000,0.000,0.0103675,0.000,9144.000,0.045,2.026,1013.185,15.052,0.544,0.445,-9.807,0.032,0.370,0.031,0.010,-0.014,0.000,0.000,0.000,0.010,0.694,-0.006,0.720,0.0000000,0.0000000,0.000,0.000,0.000,0.000,0,00:00:00,0,0.000,0.000,0.000,0.000,0.000,0.000,0.000,0.000,0.000,0.000,0.000,0.000,0.000,0.000
30.284,0,0,-1.209,-0.095,-12.852,-1.302,-0.204,-14.073,-0.738,-0.158,-9.880,0.000,0.000,0.0103675,0.000,9144.000,0.043,2.061,1013.259,15.049,-0.072,-0.159,-9.902,0.077,0.372,0.013,-0.004,0.014,0.000,0.000,0.000,0.011,0.694,-0.006,0.720,0.0000000,0.0000000,0.000,0.000,0.000,0.000,0,00:00:00,0,0.000,0.000,0.000,0.000,0.000,0.000,0.000,0.000,0.000,0.000,0.000,0.000,0.000,0.000
30.385,0,0,-1.214,-0.106,-12.293,-1.285,-0.222,-13.555,-0.461,-0.231,-9.891,0.000,0.000,0.0103675,0.000,9144.000,0.042,2.116,1013.218,15.049,0.263,0.168,-9.903,0.028,0.188,0.024,0.010,0.042,0.000,0.000,0.000,0.012,0.697,-0.007,0.717,0.0000000,0.0000000,0.000,0.000,0.000,0.000,0,00:00:00,0,0.000,0.000,0.000,0.000,0.000,0.000,0.000,0.000,0.000,0.000,0.000,0.000,0.000,0.000
30.486,0,0,-1.217,-0.117,-11.790,-1.279,-0.229,-13.114,-0.582,-0.127,-9.861,0.000,0.000,0.0103675,0.000,9144.000,0.040,1.573,1013.236,15.049,0.115,0.006,-9.874,0.101,0.292,-0.029,-0.015,0.009,0.000,0.000,0.000,0.011,0.697,-0.005,0.717,0.0000000,0.0000000,0.000,0.000,0.000,0.000,0,00:00:00,0,0.000,0.000,0.000,0.000,0.000,0.000,0.000,0.000,0.000,0.000,0.000,0.000,0.000,0.000
