State - Time (s),State - Stage,State - Stage,State - PX (m),State - PY (m),State - PZ (m),State - VX (m/s),State - VY (m/s),State - VZ (m/s),State - AX (m/s/s),State - AY (m/s/s),State - AZ (m/s/s),State - Actuation Angle (deg),State - Acutal Angle (deg),State - CdA,State - Est Apo (m),State - Target Apogee (m),State - Mach Number,State - Tilt [deg],MockBarometer - Pres (hPa),MockBarometer - Temp (C),MockBarometer - Alt ASL (m),MockBarometer - Alt AGL (m),MockIMU - AccX (m/s^2),MockIMU - AccY (m/s^2),MockIMU - AccZ (m/s^2),MockIMU - GyroX (rad/s),MockIMU - GyroY (rad/s),MockIMU - GyroZ (rad/s),MockIMU - MagX (uT),MockIMU - MagY (uT),MockIMU - MagZ (uT),MockIMU - OriX,MockIMU - OriY,MockIMU - OriZ,MockIMU - OriW,MockGPS - Lat,MockGPS - Lon,MockGPS - Alt (m),MockGPS - Disp X (m),MockGPS - Disp Y (m),MockGPS - Disp Z (m),MockGPS - Fix Quality,MockGPS - Time of Day,E5 - Rel Steps,BR - Battery Voltage (V),BR - ALT (m),BR - PRES (Pa),BR - TEMP (C),BR - VEL (m/s),BR - ANG (deg),BR - ACCX (m/s^2),BR - ACCY (m/s^2),BR - ACCZ (m/s^2),BR - GYROX (rad/s),BR - GYROY (rad/s),BR - GYROZ (rad/s),BR - ROLL (deg),BR - TILT (deg)
13.300,0,0,0.000,0.000,0.000,0.000,0.000,0.000,0.000,0.000,0.000,0.000,0.000,0.0103675,0.000,9144.000,0.000,0.000,0.000,0.000,44307.690,0.000,0.000,0.000,0.000,0.000,0.000,0.000,0.000,0.000,0.000,0.000,0.000,0.000,1.000,0.0000000,0.0000000,0.000,0.000,0.000,0.000,0,00:00:00,0,0.000,0.000,0.000,0.000,0.000,0.000,0.000,0.000,0.000,0.000,0.000,0.000,0.000,0.000
13.401,0,0,-0.000,0.000,-5474.454,-0.708,0.021,-823.920,-7.063,0.206,-6.923,0.000,0.000,0.0103675,0.000,9144.000,0.000,90.000,1013.302,15.049,-0.429,-5475.014,-9.888,0.277,0.067,-0.013,-0.002,-0.001,0.000,0.000,0.000,0.010,0.381,0.000,0.925,0.0000000,0.0000000,0.000,0.000,0.000,0.000,0,00:00:00,0,0.000,0.000,0.000,0.000,0.000,0.000,0.000,0.000,0.000,0.000,0.000,0.000,0.000,0.000
13.502,0,0,-0.045,0.001,-4406.797,-1.094,0.034,-653.643,-3.893,0.131,-9.093,0.000,0.000,0.0103675,0.000,9144.000,2.425,45.200,1013.302,15.049,-0.429,-3289.979,-9.888,0.277,0.067,-0.013,-0.002,-0.001,0.000,0.000,0.000,0.014,0.553,0.001,0.833,0.0000000,0.0000000,0.000,0.000,0.000,0.000,0,00:00:00,0,0.000,0.000,0.000,0.000,0.000,0.000,0.000,0.000,0.000,0.000,0.000,0.000,0.000,0.000
13.603,0,0,-0.110,0.003,-3747.236,-1.314,0.024,-545.638,-2.254,-0.090,-9.425,0.000,0.000,0.0103675,0.000,9144.000,1.924,22.800,1013.236,15.052,0.115,-2359.919,-9.689,0.078,0.222,-0.010,-0.023,0.005,0.000,0.000,0.000,0.012,0.628,-0.002,0.778,0.0000000,0.0000000,0.000,0.000,0.000,0.000,0,00:00:00,0,0.000,0.000,0.000,0.000,0.000,0.000,0.000,0.000,0.000,0.000,0.000,0.000,0.000,0.000
13.704,0,0,-0.185,0.003,-3289.581,-1.454,-0.006,-466.283,-1.489,-0.297,-9.771,0.000,0.000,0.0103675,0.000,9144.000,1.606,12.124,1013.250,15.050,0.004,-1841.771,-9.883,-0.125,0.307,-0.014,0.026,-0.017,0.000,0.000,0.000,0.006,0.663,-0.006,0.748,0.0000000,0.0000000,0.000,0.000,0.000,0.000,0,00:00:00,0,0.000,0.000,0.000,0.000,0.000,0.000,0.000,0.000,0.000,0.000,0.000,0.000,0.000,0.000
13.805,0,0,-0.266,0.001,-2948.213,-1.575,-0.019,-401.225,-1.299,-0.131,-9.935,0.000,0.000,0.0103675,0.000,9144.000,1.373,6.880,1013.286,15.051,-0.296,-1510.898,-10.010,0.045,0.465,0.002,-0.004,-0.000,0.000,0.000,0.000,0.007,0.677,-0.006,0.736,0.0000000,0.0000000,0.000,0.000,0.000,0.000,0,00:00:00,0,0.000,0.000,0.000,0.000,0.000,0.000,0.000,0.000,0.000,0.000,0.000,0.000,0.000,0.000
13.906,0,0,-0.353,-0.000,-2679.958,-1.653,-0.009,-343.045,-0.886,0.096,-9.858,0.000,0.000,0.0103675,0.000,9144.000,1.181,4.783,1013.237,15.053,0.104,-1280.521,-9.890,0.243,0.317,-0.022,0.001,0.047,0.000,0.000,0.000,0.011,0.686,-0.000,0.727,0.0000000,0.0000000,0.000,0.000,0.000,0.000,0,00:00:00,0,0.000,0.000,0.000,0.000,0.000,0.000,0.000,0.000,0.000,0.000,0.000,0.000,0.000,0.000
14.007,0,0,-0.442,-0.000,-2460.397,-1.717,0.003,-287.540,-0.758,0.120,-9.868,0.000,0.000,0.0103675,0.000,9144.000,1.010,3.307,1013.237,15.053,0.104,-1111.407,-9.890,0.243,0.317,-0.022,0.001,0.047,0.000,0.000,0.000,0.013,0.691,0.003,0.723,0.0000000,0.0000000,0.000,0.000,0.000,0.000,0,00:00:00,0,0.000,0.000,0.000,0.000,0.000,0.000,0.000,0.000,0.000,0.000,0.000,0.000,0.000,0.000
14.108,0,0,-0.533,0.000,-2274.264,-1.773,0.017,-232.154,-0.693,0.144,-9.872,0.000,0.000,0.0103675,0.000,9144.000,0.846,2.569,1013.237,15.053,0.104,-981.796,-9.890,0.243,0.317,-0.022,0.001,0.047,0.000,0.000,0.000,0.013,0.693,0.005,0.721,0.0000000,0.0000000,0.000,0.000,0.000,0.000,0,00:00:00,0,0.000,0.000,0.000,0.000,0.000,0.000,0.000,0.000,0.000,0.000,0.000,0.000,0.000,0.000
14.209,0,0,-0.627,0.001,-2111.478,-1.855,-0.004,-175.362,-0.965,-0.213,-9.708,0.000,0.000,0.0103675,0.000,9144.000,0.683,2.201,1013.296,15.052,-0.384,-879.718,-9.744,-0.104,0.506,0.009,-0.036,0.013,0.000,0.000,0.000,0.007,0.690,-0.001,0.724,0.0000000,0.0000000,0.000,0.000,0.000,0.000,0,00:00:00,0,0.000,0.000,0.000,0.000,0.000,0.000,0.000,0.000,0.000,0.000,0.000,0.000,0.000,0.000
14.310,0,0,-0.725,-0.001,-1975.180,-1.939,-0.027,-120.100,-1.005,-0.226,-9.704,0.000,0.000,0.0103675,0.000,9144.000,0.516,2.691,1013.296,15.052,-0.384,-879.718,-9.744,-0.104,0.506,0.009,-0.036,0.013,0.000,0.000,0.000,0.004,0.689,-0.005,0.725,0.0000000,0.0000000,0.000,0.000,0.000,0.000,0,00:00:00,0,0.000,0.000,0.000,0.000,0.000,0.000,0.000,0.000,0.000,0.000,0.000,0.000,0.000,0.000
14.411,0,0,-0.827,-0.005,-1856.863,-2.023,-0.063,-65.712,-1.021,-0.357,-9.806,0.000,0.000,0.0103675,0.000,9144.000,0.354,2.937,1013.281,15.050,-0.258,-879.591,-9.850,-0.209,0.517,0.018,0.003,-0.021,0.000,0.000,0.000,0.001,0.689,-0.009,0.725,0.0000000,0.0000000,0.000,0.000,0.000,0.000,0,00:00:00,0,0.000,0.000,0.000,0.000,0.000,0.000,0.000,0.000,0.000,0.000,0.000,0.000,0.000,0.000
14.512,0,0,-0.931,-0.011,-1751.015,-2.071,-0.081,-12.112,-0.699,-0.181,-9.803,0.000,0.000,0.0103675,0.000,9144.000,0.194,2.961,1013.286,15.049,-0.299,-879.632,-9.825,-0.030,0.291,0.008,-0.021,-0.005,0.000,0.000,0.000,0.002,0.692,-0.008,0.722,0.0000000,0.0000000,0.000,0.000,0.000,0.000,0,00:00:00,0,0.000,0.000,0.000,0.000,0.000,0.000,0.000,0.000,0.000,0.000,0.000,0.000,0.000,0.000
14.613,0,0,-1.035,-0.018,-1653.996,-2.116,-0.109,40.383,-0.693,-0.278,-9.895,0.000,0.000,0.0103675,0.000,9144.000,0.036,2.390,1013.278,15.049,-0.232,-879.565,-9.917,-0.134,0.322,-0.008,-0.013,0.022,0.000,0.000,0.000,0.001,0.694,-0.008,0.720,0.0000000,0.0000000,0.000,0.000,0.000,0.000,0,00:00:00,0,0.000,0.000,0.000,0.000,0.000,0.000,0.000,0.000,0.000,0.000,0.000,0.000,0.000,0.000
14.714,0,0,-1.139,-0.028,-1563.495,-2.155,-0.135,91.190,-0.673,-0.269,-9.896,0.000,0.000,0.0103675,0.000,9144.000,0.119,2.162,1013.278,15.049,-0.232,-879.565,-9.917,-0.134,0.322,-0.008,-0.013,0.022,0.000,0.000,0.000,0.001,0.694,-0.008,0.720,0.0000000,0.0000000,0.000,0.000,0.000,0.000,0,00:00:00,0,0.000,0.000,0.000,0.000,0.000,0.000,0.000,0.000,0.000,0.000,0.000,0.000,0.000,0.000
14.815,0,0,-1.242,-0.038,-1478.090,-2.194,-0.140,139.600,-0.715,-0.056,-9.643,0.000,0.000,0.0103675,0.000,9144.000,0.269,2.048,1013.248,15.048,0.014,-879.319,-9.663,0.079,0.363,0.007,0.003,0.018,0.000,0.000,0.000,0.005,0.694,-0.005,0.720,0.0000000,0.0000000,0.000,0.000,0.000,0.000,0,00:00:00,0,0.000,0.000,0.000,0.000,0.000,0.000,0.000,0.000,0.000,0.000,0.000,0.000,0.000,0.000
14.916,0,0,-1.343,-0.049,-1397.089,-2.227,-0.156,184.735,-0.691,-0.177,-9.704,0.000,0.000,0.0103675,0.000,9144.000,0.411,2.089,1013.247,15.051,0.023,-879.310,-9.724,-0.033,0.353,0.007,0.031,-0.019,0.000,0.000,0.000,0.004,0.695,-0.006,0.719,0.0000000,0.0000000,0.000,0.000,0.000,0.000,0,00:00:00,0,0.000,0.000,0.000,0.000,0.000,0.000,0.000,0.000,0.000,0.000,0.000,0.000,0.000,0.000
15.017,0,0,-1.442,-0.060,-1320.273,-2.280,-0.162,225.780,-0.930,-0.074,-9.723,0.000,0.000,0.0103675,0.000,9144.000,0.544,1.997,1013.271,15.052,-0.176,-879.510,-9.754,0.057,0.502,-0.011,-0.018,-0.001,0.000,0.000,0.000,0.005,0.691,-0.004,0.722,0.0000000,0.0000000,0.000,0.000,0.000,0.000,0,00:00:00,0,0.000,0.000,0.000,0.000,0.000,0.000,0.000,0.000,0.000,0.000,0.000,0.000,0.000,0.000
15.118,0,0,-1.541,-0.071,-1247.659,-2.322,-0.183,262.073,-0.888,-0.226,-9.728,0.000,0.000,0.0103675,0.000,9144.000,0.665,2.521,1013.244,15.052,0.051,-879.283,-9.760,-0.104,0.446,-0.011,-0.014,0.037,0.000,0.000,0.000,0.003,0.691,-0.005,0.723,0.0000000,0.0000000,0.000,0.000,0.000,0.000,0,00:00:00,0,0.000,0.000,0.000,0.000,0.000,0.000,0.000,0.000,0.000,0.000,0.000,0.000,0.000,0.000
15.219,0,0,-1.637,-0.083,-1179.525,-2.360,-0.202,293.055,-0.895,-0.215,-9.727,0.000,0.000,0.0103675,0.000,9144.000,0.772,2.607,1013.244,15.052,0.051,-879.283,-9.760,-0.104,0.446,-0.011,-0.014,0.037,0.000,0.000,0.000,0.002,0.691,-0.006,0.723,0.0000000,0.0000000,0.000,0.000,0.000,0.000,0,00:00:00,0,0.000,0.000,0.000,0.000,0.000,0.000,0.000,0.000,0.000,0.000,0.000,0.000,0.000,0.000
15.320,0,0,-1.730,-0.096,-1006.421,-2.383,-0.208,403.886,-0.799,-0.097,-9.850,0.000,0.000,0.0103675,0.000,9144.000,0.863,2.650,1013.249,15.049,0.007,0.156,-9.875,0.040,0.379,0.027,-0.006,-0.014,0.000,0.000,0.000,0.004,0.692,-0.005,0.722,0.0000000,0.0000000,0.000,0.000,0.000,0.000,0,00:00:00,0,0.000,0.000,0.000,0.000,0.000,0.000,0.000,0.000,0.000,0.000,0.000,0.000,0.000,0.000
15.421,0,0,-1.817,-0.108,-842.462,-2.388,-0.210,499.851,-0.692,-0.057,-9.706,0.000,0.000,0.0103675,0.000,9144.000,1.189,2.440,1013.242,15.050,0.066,0.198,-9.726,0.083,0.322,0.007,-0.006,0.007,0.000,0.000,0.000,0.007,0.693,-0.004,0.720,0.0000000,0.0000000,0.000,0.000,0.000,0.000,0,00:00:00,0,0.000,0.000,0.000,0.000,0.000,0.000,0.000,0.000,0.000,0.000,0.000,0.000,0.000,0.000
15.522,0,0,-1.897,-0.119,-688.920,-2.386,-0.212,580.398,-0.671,-0.063,-9.708,0.000,0.000,0.0103675,0.000,9144.000,1.471,2.185,1013.242,15.050,0.066,0.185,-9.726,0.083,0.322,0.007,-0.006,0.007,0.000,0.000,0.000,0.008,0.694,-0.003,0.720,0.0000000,0.0000000,0.000,0.000,0.000,0.000,0,00:00:00,0,0.000,0.000,0.000,0.000,0.000,0.000,0.000,0.000,0.000,0.000,0.000,0.000,0.000,0.000
15.623,0,0,-1.971,-0.130,-546.806,-2.396,-0.228,645.560,-0.860,-0.202,-9.680,0.000,0.000,0.0103675,0.000,9144.000,1.709,2.057,1013.243,15.049,0.057,0.211,-9.708,-0.074,0.467,-0.020,0.030,0.020,0.000,0.000,0.000,0.005,0.693,-0.005,0.721,0.0000000,0.0000000,0.000,0.000,0.000,0.000,0,00:00:00,0,0.000,0.000,0.000,0.000,0.000,0.000,0.000,0.000,0.000,0.000,0.000,0.000,0.000,0.000
15.724,0,0,-2.036,-0.141,-416.807,-2.353,-0.232,695.827,-0.398,-0.103,-9.850,0.000,0.000,0.0103675,0.000,9144.000,1.900,2.320,1013.233,15.049,0.145,0.323,-9.857,0.027,0.144,0.001,0.038,0.027,0.000,0.000,0.000,0.006,0.698,-0.004,0.716,0.0000000,0.0000000,0.000,0.000,0.000,0.000,0,00:00:00,0,0.000,0.000,0.000,0.000,0.000,0.000,0.000,0.000,0.000,0.000,0.000,0.000,0.000,0.000
15.825,0,0,-2.090,-0.152,-299.299,-2.298,-0.236,732.081,-0.325,-0.104,-9.852,0.000,0.000,0.0103675,0.000,9144.000,2.048,1.471,1013.233,15.049,0.145,0.292,-9.857,0.027,0.144,0.001,0.038,0.027,0.000,0.000,0.000,0.006,0.701,-0.003,0.714,0.0000000,0.0000000,0.000,0.000,0.000,0.000,0,00:00:00,0,0.000,0.000,0.000,0.000,0.000,0.000,0.000,0.000,0.000,0.000,0.000,0.000,0.000,0.000
15.926,0,0,-2.135,-0.162,-194.349,-2.288,-0.238,755.447,-0.825,-0.081,-9.815,0.000,0.000,0.0103675,0.000,9144.000,2.155,1.046,1013.262,15.051,-0.098,0.056,-9.837,0.024,0.492,-0.024,0.007,0.004,0.000,0.000,0.000,0.005,0.695,-0.003,0.719,0.0000000,0.0000000,0.000,0.000,0.000,0.000,0,00:00:00,0,0.000,0.000,0.000,0.000,0.000,0.000,0.000,0.000,0.000,0.000,0.000,0.000,0.000,0.000
16.027,0,0,-2.172,-0.170,-101.739,-2.261,-0.236,767.232,-0.697,-0.058,-9.669,0.000,0.000,0.0103675,0.000,9144.000,2.224,1.937,1013.314,15.051,-0.535,-0.352,-9.688,0.062,0.347,0.019,-0.027,0.017,0.000,0.000,0.000,0.007,0.694,-0.003,0.720,0.0000000,0.0000000,0.000,0.000,0.000,0.000,0,00:00:00,0,0.000,0.000,0.000,0.000,0.000,0.000,0.000,0.000,0.000,0.000,0.000,0.000,0.000,0.000
16.128,0,0,-2.200,-0.179,-20.814,-2.223,-0.248,768.936,-0.640,-0.205,-9.894,0.000,0.000,0.0103675,0.000,9144.000,2.259,2.071,1013.198,15.050,0.436,0.624,-9.911,-0.107,0.308,-0.029,-0.000,-0.015,0.000,0.000,0.000,0.002,0.695,-0.005,0.719,0.0000000,0.0000000,0.000,0.000,0.000,0.000,0,00:00:00,0,0.000,0.000,0.000,0.000,0.000,0.000,0.000,0.000,0.000,0.000,0.000,0.000,0.000,0.000
16.229,0,0,-2.221,-0.187,48.799,-2.186,-0.245,761.782,-0.683,-0.056,-9.728,0.000,0.000,0.0103675,0.000,9144.000,2.264,1.927,1013.283,15.051,-0.275,-0.130,-9.745,0.021,0.359,-0.018,0.041,0.011,0.000,0.000,0.000,0.003,0.695,-0.003,0.719,0.0000000,0.0000000,0.000,0.000,0.000,0.000,0,00:00:00,0,0.000,0.000,0.000,0.000,0.000,0.000,0.000,0.000,0.000,0.000,0.000,0.000,0.000,0.000
16.330,0,0,-2.233,-0.194,107.956,-2.147,-0.247,747.197,-0.694,-0.110,-9.702,0.000,0.000,0.0103675,0.000,9144.000,2.243,1.902,1013.270,15.048,-0.166,-0.061,-9.721,-0.017,0.354,0.017,-0.004,0.019,0.000,0.000,0.000,0.003,0.695,-0.003,0.719,0.0000000,0.0000000,0.000,0.000,0.000,0.000,0,00:00:00,0,0.000,0.000,0.000,0.000,0.000,0.000,0.000,0.000,0.000,0.000,0.000,0.000,0.000,0.000
16.431,0,0,-2.237,-0.200,157.489,-2.090,-0.255,726.470,-0.544,-0.182,-9.564,0.000,0.000,0.0103675,0.000,9144.000,2.200,2.007,1013.230,15.050,0.165,0.237,-9.578,-0.075,0.252,0.015,0.001,-0.015,0.000,0.000,0.000,0.002,0.696,-0.006,0.718,0.0000000,0.0000000,0.000,0.000,0.000,0.000,0,00:00:00,0,0.000,0.000,0.000,0.000,0.000,0.000,0.000,0.000,0.000,0.000,0.000,0.000,0.000,0.000
16.532,0,0,-2.235,-0.207,198.120,-2.066,-0.263,700.636,-0.887,-0.184,-9.794,0.000,0.000,0.0103675,0.000,9144.000,2.139,1.754,1013.276,15.051,-0.219,-0.183,-9.823,-0.032,0.493,0.040,0.003,-0.027,0.000,0.000,0.000,0.003,0.693,-0.007,0.721,0.0000000,0.0000000,0.000,0.000,0.000,0.000,0,00:00:00,0,0.000,0.000,0.000,0.000,0.000,0.000,0.000,0.000,0.000,0.000,0.000,0.000,0.000,0.000
16.633,0,0,-2.226,-0.213,230.778,-2.004,-0.272,670.845,-0.523,-0.198,-9.758,0.000,0.000,0.0103675,0.000,9144.000,2.063,2.306,1013.240,15.051,0.086,0.093,-9.772,-0.041,0.210,0.009,-0.026,0.037,0.000,0.000,0.000,0.005,0.696,-0.007,0.718,0.0000000,0.0000000,0.000,0.000,0.000,0.000,0,00:00:00,0,0.000,0.000,0.000,0.000,0.000,0.000,0.000,0.000,0.000,0.000,0.000,0.000,0.000,0.000
16.734,0,0,-2.212,-0.220,256.203,-1.972,-0.286,637.976,-0.827,-0.255,-9.680,0.000,0.000,0.0103675,0.000,9144.000,1.975,1.841,1013.258,15.049,-0.064,-0.094,-9.708,-0.134,0.449,-0.038,0.001,0.032,0.000,0.000,0.000,0.002,0.693,-0.007,0.721,0.0000000,0.0000000,0.000,0.000,0.000,0.000,0,00:00:00,0,0.000,0.000,0.000,0.000,0.000,0.000,0.000,0.000,0.000,0.000,0.000,0.000,0.000,0.000
16.835,0,0,-2.194,-0.227,275.198,-1.952,-0.296,602.851,-0.958,-0.217,-9.790,0.000,0.000,0.0103675,0.000,9144.000,1.878,2.243,1013.255,15.052,-0.039,-0.083,-9.826,-0.082,0.507,0.014,-0.016,0.015,0.000,0.000,0.000,0.002,0.691,-0.007,0.723,0.0000000,0.0000000,0.000,0.000,0.000,0.000,0,00:00:00,0,0.000,0.000,0.000,0.000,0.000,0.000,0.000,0.000,0.000,0.000,0.000,0.000,0.000,0.000
16.936,0,0,-2.175,-0.234,288.494,-1.936,-0.307,566.196,-0.992,-0.230,-9.787,0.000,0.000,0.0103675,0.000,9144.000,1.775,2.643,1013.255,15.052,-0.039,-0.070,-9.826,-0.082,0.507,0.014,-0.016,0.015,0.000,0.000,0.000,0.003,0.689,-0.008,0.724,0.0000000,0.0000000,0.000,0.000,0.000,0.000,0,00:00:00,0,0.000,0.000,0.000,0.000,0.000,0.000,0.000,0.000,0.000,0.000,0.000,0.000,0.000,0.000
17.037,0,0,-2.153,-0.241,296.796,-1.900,-0.312,528.637,-0.787,-0.178,-9.851,0.000,0.000,0.0103675,0.000,9144.000,1.667,2.843,1013.242,15.050,0.070,0.075,-9.877,-0.022,0.363,0.011,0.003,0.032,0.000,0.000,0.000,0.004,0.692,-0.007,0.722,0.0000000,0.0000000,0.000,0.000,0.000,0.000,0,00:00:00,0,0.000,0.000,0.000,0.000,0.000,0.000,0.000,0.000,0.000,0.000,0.000,0.000,0.000,0.000
17.138,0,0,-2.128,-0.249,300.755,-1.848,-0.327,490.733,-0.622,-0.281,-9.753,0.000,0.000,0.0103675,0.000,9144.000,1.556,2.466,1013.204,15.050,0.382,0.348,-9.773,-0.121,0.279,0.006,0.010,0.013,0.000,0.000,0.000,0.003,0.695,-0.008,0.719,0.0000000,0.0000000,0.000,0.000,0.000,0.000,0,00:00:00,0,0.000,0.000,0.000,0.000,0.000,0.000,0.000,0.000,0.000,0.000,0.000,0.000,0.000,0.000
17.239,0,0,-2.100,-0.256,300.824,-1.825,-0.336,452.834,-0.903,-0.223,-9.670,0.000,0.000,0.0103675,0.000,9144.000,1.445,2.023,1013.289,15.051,-0.326,-0.327,-9.702,-0.089,0.488,-0.029,-0.005,0.005,0.000,0.000,0.000,0.002,0.692,-0.008,0.722,0.0000000,0.0000000,0.000,0.000,0.000,0.000,0,00:00:00,0,0.000,0.000,0.000,0.000,0.000,0.000,0.000,0.000,0.000,0.000,0.000,0.000,0.000,0.000
17.340,0,0,-2.070,-0.263,297.663,-1.779,-0.337,415.403,-0.660,-0.154,-9.769,0.000,0.000,0.0103675,0.000,9144.000,1.333,2.465,1013.275,15.052,-0.209,-0.193,-9.788,-0.002,0.292,0.018,-0.026,-0.054,0.000,0.000,0.000,0.003,0.694,-0.008,0.720,0.0000000,0.0000000,0.000,0.000,0.000,0.000,0,00:00:00,0,0.000,0.000,0.000,0.000,0.000,0.000,0.000,0.000,0.000,0.000,0.000,0.000,0.000,0.000
17.441,0,0,-2.037,-0.270,291.782,-1.703,-0.344,378.777,-0.353,-0.215,-9.830,0.000,0.000,0.0103675,0.000,9144.000,1.223,2.162,1013.243,15.051,0.060,0.066,-9.838,-0.072,0.114,-0.009,0.005,-0.007,0.000,0.000,0.000,0.002,0.698,-0.008,0.716,0.0000000,0.0000000,0.000,0.000,0.000,0.000,0,00:00:00,0,0.000,0.000,0.000,0.000,0.000,0.000,0.000,0.000,0.000,0.000,0.000,0.000,0.000,0.000
17.542,0,0,-2.002,-0.276,283.609,-1.689,-0.354,343.216,-0.943,-0.247,-9.793,0.000,0.000,0.0103675,0.000,9144.000,1.115,1.398,1013.231,15.048,0.155,0.190,-9.826,-0.043,0.539,0.058,-0.035,-0.011,0.000,0.000,0.000,0.005,0.692,-0.010,0.722,0.0000000,0.0000000,0.000,0.000,0.000,0.000,0,00:00:00,0,0.000,0.000,0.000,0.000,0.000,0.000,0.000,0.000,0.000,0.000,0.000,0.000,0.000,0.000
17.643,0,0,-1.967,-0.283,273.473,-1.654,-0.363,308.889,-0.718,-0.244,-9.641,0.000,0.000,0.0103675,0.000,9144.000,1.010,2.372,1013.284,15.052,-0.282,-0.250,-9.665,-0.043,0.351,0.002,0.013,-0.014,0.000,0.000,0.000,0.005,0.693,-0.010,0.720,0.0000000,0.0000000,0.000,0.000,0.000,0.000,0,00:00:00,0,0.000,0.000,0.000,0.000,0.000,0.000,0.000,0.000,0.000,0.000,0.000,0.000,0.000,0.000
17.744,0,0,-1.932,-0.289,261.888,-1.623,-0.348,276.050,-0.738,-0.007,-9.816,0.000,0.000,0.0103675,0.000,9144.000,0.909,2.189,1013.220,15.049,0.247,0.299,-9.835,0.178,0.369,-0.016,0.005,0.002,0.000,0.000,0.000,0.009,0.694,-0.005,0.720,0.0000000,0.0000000,0.000,0.000,0.000,0.000,0,00:00:00,0,0.000,0.000,0.000,0.000,0.000,0.000,0.000,0.000,0.000,0.000,0.000,0.000,0.000,0.000
17.845,0,0,-1.896,-0.293,249.074,-1.576,-0.342,244.764,-0.564,-0.104,-9.822,0.000,0.000,0.0103675,0.000,9144.000,0.813,2.153,1013.247,15.049,0.027,0.098,-9.835,0.084,0.259,0.003,0.020,-0.013,0.000,0.000,0.000,0.009,0.696,-0.005,0.718,0.0000000,0.0000000,0.000,0.000,0.000,0.000,0,00:00:00,0,0.000,0.000,0.000,0.000,0.000,0.000,0.000,0.000,0.000,0.000,0.000,0.000,0.000,0.000
17.946,0,0,-1.859,-0.297,235.360,-1.528,-0.337,215.157,-0.531,-0.107,-9.824,0.000,0.000,0.0103675,0.000,9144.000,0.721,1.773,1013.247,15.049,0.027,0.092,-9.835,0.084,0.259,0.003,0.020,-0.013,0.000,0.000,0.000,0.009,0.697,-0.005,0.717,0.0000000,0.0000000,0.000,0.000,0.000,0.000,0,00:00:00,0,0.000,0.000,0.000,0.000,0.000,0.000,0.000,0.000,0.000,0.000,0.000,0.000,0.000,0.000
18.047,0,0,-1.821,-0.300,220.993,-1.493,-0.344,187.281,-0.632,-0.231,-9.890,0.000,0.000,0.0103675,0.000,9144.000,0.633,1.583,1013.257,15.051,-0.058,-0.053,-9.907,-0.066,0.331,-0.030,0.004,-0.012,0.000,0.000,0.000,0.006,0.696,-0.006,0.718,0.0000000,0.0000000,0.000,0.000,0.000,0.000,0,00:00:00,0,0.000,0.000,0.000,0.000,0.000,0.000,0.000,0.000,0.000,0.000,0.000,0.000,0.000,0.000
18.148,0,0,-1.784,-0.303,206.231,-1.461,-0.348,161.204,-0.644,-0.203,-9.890,0.000,0.000,0.0103675,0.000,9144.000,0.551,1.739,1013.257,15.051,-0.058,-0.048,-9.907,-0.066,0.331,-0.030,0.004,-0.012,0.000,0.000,0.000,0.003,0.696,-0.006,0.718,0.0000000,0.0000000,0.000,0.000,0.000,0.000,0,00:00:00,0,0.000,0.000,0.000,0.000,0.000,0.000,0.000,0.000,0.000,0.000,0.000,0.000,0.000,0.000
18.249,0,0,-1.748,-0.306,191.282,-1.432,-0.349,136.946,-0.651,-0.174,-9.890,0.000,0.000,0.0103675,0.000,9144.000,0.475,1.816,1013.257,15.051,-0.058,-0.043,-9.907,-0.066,0.331,-0.030,0.004,-0.012,0.000,0.000,0.000,0.002,0.696,-0.006,0.718,0.0000000,0.0000000,0.000,0.000,0.000,0.000,0,00:00:00,0,0.000,0.000,0.000,0.000,0.000,0.000,0.000,0.000,0.000,0.000,0.000,0.000,0.000,0.000
18.350,0,0,-1.710,-0.309,176.351,-1.360,-0.339,114.520,-0.206,-0.067,-9.937,0.000,0.000,0.0103675,0.000,9144.000,0.403,1.855,1013.235,15.050,0.121,0.141,-9.940,0.049,0.030,0.011,0.001,0.031,0.000,0.000,0.000,0.004,0.701,-0.004,0.713,0.0000000,0.0000000,0.000,0.000,0.000,0.000,0,00:00:00,0,0.000,0.000,0.000,0.000,0.000,0.000,0.000,0.000,0.000,0.000,0.000,0.000,0.000,0.000
18.451,0,0,-1.670,-0.311,161.563,-1.320,-0.349,93.889,-0.506,-0.268,-9.904,0.000,0.000,0.0103675,0.000,9144.000,0.337,1.012,1013.241,15.048,0.072,0.101,-9.915,-0.146,0.276,0.006,-0.013,0.018,0.000,0.000,0.000,0.002,0.699,-0.006,0.715,0.0000000,0.0000000,0.000,0.000,0.000,0.000,0,00:00:00,0,0.000,0.000,0.000,0.000,0.000,0.000,0.000,0.000,0.000,0.000,0.000,0.000,0.000,0.000
18.552,0,0,-1.632,-0.313,147.028,-1.302,-0.332,75.004,-0.695,-0.001,-9.832,0.000,0.000,0.0103675,0.000,9144.000,0.276,1.340,1013.262,15.052,-0.096,-0.104,-9.848,0.109,0.384,-0.010,-0.007,-0.015,0.000,0.000,0.000,0.005,0.696,-0.003,0.718,0.0000000,0.0000000,0.000,0.000,0.000,0.000,0,00:00:00,0,0.000,0.000,0.000,0.000,0.000,0.000,0.000,0.000,0.000,0.000,0.000,0.000,0.000,0.000
18.653,0,0,-1.596,-0.314,132.904,-1.288,-0.342,57.851,-0.712,-0.268,-9.794,0.000,0.000,0.0103675,0.000,9144.000,0.221,1.807,1013.254,15.051,-0.031,-0.002,-9.815,-0.204,0.373,-0.052,-0.002,-0.009,0.000,0.000,0.000,-0.001,0.695,-0.006,0.719,0.0000000,0.0000000,0.000,0.000,0.000,0.000,0,00:00:00,0,0.000,0.000,0.000,0.000,0.000,0.000,0.000,0.000,0.000,0.000,0.000,0.000,0.000,0.000
18.754,0,0,-1.562,-0.316,119.251,-1.267,-0.345,42.334,-0.624,-0.198,-9.867,0.000,0.000,0.0103675,0.000,9144.000,0.170,1.996,1013.264,15.054,-0.119,-0.121,-9.884,-0.130,0.299,0.005,-0.012,0.012,0.000,0.000,0.000,-0.002,0.695,-0.006,0.719,0.0000000,0.0000000,0.000,0.000,0.000,0.000,0,00:00:00,0,0.000,0.000,0.000,0.000,0.000,0.000,0.000,0.000,0.000,0.000,0.000,0.000,0.000,0.000
18.855,0,0,-1.530,-0.317,106.187,-1.266,-0.343,28.432,-0.805,-0.142,-9.788,0.000,0.000,0.0103675,0.000,9144.000,0.125,1.897,1013.244,15.051,0.048,0.039,-9.813,-0.069,0.426,0.005,-0.010,0.018,0.000,0.000,0.000,-0.000,0.693,-0.005,0.721,0.0000000,0.0000000,0.000,0.000,0.000,0.000,0,00:00:00,0,0.000,0.000,0.000,0.000,0.000,0.000,0.000,0.000,0.000,0.000,0.000,0.000,0.000,0.000
18.956,0,0,-1.501,-0.318,93.743,-1.270,-0.340,16.041,-0.833,-0.146,-9.786,0.000,0.000,0.0103675,0.000,9144.000,0.084,2.222,1013.244,15.051,0.048,0.032,-9.813,-0.069,0.426,0.005,-0.010,0.018,0.000,0.000,0.000,0.000,0.692,-0.005,0.722,0.0000000,0.0000000,0.000,0.000,0.000,0.000,0,00:00:00,0,0.000,0.000,0.000,0.000,0.000,0.000,0.000,0.000,0.000,0.000,0.000,0.000,0.000,0.000
19.057,0,0,-1.475,-0.320,81.988,-1.259,-0.361,5.111,-0.677,-0.376,-9.656,0.000,0.000,0.0103675,0.000,9144.000,0.047,2.384,1013.227,15.053,0.191,0.188,-9.676,-0.302,0.325,-0.005,0.009,0.013,0.000,0.000,0.000,-0.004,0.694,-0.009,0.720,0.0000000,0.0000000,0.000,0.000,0.000,0.000,0,00:00:00,0,0.000,0.000,0.000,0.000,0.000,0.000,0.000,0.000,0.000,0.000,0.000,0.000,0.000,0.000
19.158,0,0,-1.451,-0.324,70.936,-1.248,-0.381,-4.469,-0.654,-0.372,-9.657,0.000,0.000,0.0103675,0.000,9144.000,0.016,2.128,1013.227,15.053,0.191,0.233,-9.676,-0.302,0.325,-0.005,0.009,0.013,0.000,0.000,0.000,-0.006,0.695,-0.011,0.719,0.0000000,0.0000000,0.000,0.000,0.000,0.000,0,00:00:00,0,0.000,0.000,0.000,0.000,0.000,0.000,0.000,0.000,0.000,0.000,0.000,0.000,0.000,0.000
19.259,0,0,-1.427,-0.327,60.594,-1.233,-0.360,-12.812,-0.604,0.038,-9.806,0.000,0.000,0.0103675,0.000,9144.000,0.014,2.000,1013.229,15.052,0.179,0.194,-9.820,0.093,0.290,-0.009,0.005,0.002,0.000,0.000,0.000,-0.001,0.696,-0.004,0.718,0.0000000,0.0000000,0.000,0.000,0.000,0.000,0,00:00:00,0,0.000,0.000,0.000,0.000,0.000,0.000,0.000,0.000,0.000,0.000,0.000,0.000,0.000,0.000
19.360,0,0,-1.406,-0.328,50.939,-1.255,-0.338,-19.987,-0.959,0.048,-9.550,0.000,0.000,0.0103675,0.000,9144.000,0.038,1.832,1013.257,15.050,-0.056,-0.074,-9.583,0.075,0.544,-0.027,0.019,-0.002,0.000,0.000,0.000,0.001,0.692,-0.001,0.722,0.0000000,0.0000000,0.000,0.000,0.000,0.000,0,00:00:00,0,0.000,0.000,0.000,0.000,0.000,0.000,0.000,0.000,0.000,0.000,0.000,0.000,0.000,0.000
19.461,0,0,-1.388,-0.329,42.046,-1.237,-0.342,-26.091,-0.562,-0.218,-9.950,0.000,0.000,0.0103675,0.000,9144.000,0.059,2.486,1013.227,15.052,0.189,0.170,-9.964,-0.167,0.224,0.021,-0.026,-0.045,0.000,0.000,0.000,-0.002,0.695,-0.005,0.719,0.0000000,0.0000000,0.000,0.000,0.000,0.000,0,00:00:00,0,0.000,0.000,0.000,0.000,0.000,0.000,0.000,0.000,0.000,0.000,0.000,0.000,0.000,0.000
19.562,0,0,-1.370,-0.328,33.814,-1.230,-0.327,-31.224,-0.652,-0.020,-9.783,0.000,0.000,0.0103675,0.000,9144.000,0.077,1.960,1013.278,15.050,-0.236,-0.230,-9.799,0.055,0.325,0.026,0.005,-0.004,0.000,0.000,0.000,0.002,0.695,-0.004,0.719,0.0000000,0.0000000,0.000,0.000,0.000,0.000,0,00:00:00,0,0.000,0.000,0.000,0.000,0.000,0.000,0.000,0.000,0.000,0.000,0.000,0.000,0.000,0.000
19.663,0,0,-1.353,-0.326,26.348,-1.218,-0.302,-35.397,-0.590,0.069,-9.786,0.000,0.000,0.0103675,0.000,9144.000,0.092,1.917,1013.225,15.051,0.211,0.192,-9.800,0.118,0.280,-0.025,-0.013,0.006,0.000,0.000,0.000,0.004,0.696,-0.000,0.718,0.0000000,0.0000000,0.000,0.000,0.000,0.000,0,00:00:00,0,0.000,0.000,0.000,0.000,0.000,0.000,0.000,0.000,0.000,0.000,0.000,0.000,0.000,0.000
19.764,0,0,-1.336,-0.322,19.571,-1.206,-0.276,-38.741,-0.581,0.095,-9.787,0.000,0.000,0.0103675,0.000,9144.000,0.104,1.814,1013.225,15.051,0.211,0.228,-9.800,0.118,0.280,-0.025,-0.013,0.006,0.000,0.000,0.000,0.004,0.696,0.002,0.718,0.0000000,0.0000000,0.000,0.000,0.000,0.000,0,00:00:00,0,0.000,0.000,0.000,0.000,0.000,0.000,0.000,0.000,0.000,0.000,0.000,0.000,0.000,0.000
19.865,0,0,-1.323,-0.316,13.414,-1.239,-0.265,-41.357,-1.031,-0.057,-9.661,0.000,0.000,0.0103675,0.000,9144.000,0.114,1.763,1013.258,15.049,-0.068,-0.053,-9.699,-0.032,0.580,0.004,-0.025,0.024,0.000,0.000,0.000,0.002,0.690,0.000,0.723,0.0000000,0.0000000,0.000,0.000,0.000,0.000,0,00:00:00,0,0.000,0.000,0.000,0.000,0.000,0.000,0.000,0.000,0.000,0.000,0.000,0.000,0.000,0.000
19.966,0,0,-1.312,-0.310,7.862,-1.247,-0.242,-43.318,-0.764,0.057,-9.607,0.000,0.000,0.0103675,0.000,9144.000,0.122,2.666,1013.284,15.049,-0.284,-0.271,-9.631,0.060,0.354,-0.024,-0.022,-0.011,0.000,0.000,0.000,0.002,0.692,0.001,0.722,0.0000000,0.0000000,0.000,0.000,0.000,0.000,0,00:00:00,0,0.000,0.000,0.000,0.000,0.000,0.000,0.000,0.000,0.000,0.000,0.000,0.000,0.000,0.000
20.067,0,0,-1.303,-0.303,2.998,-1.259,-0.243,-44.627,-0.801,-0.164,-9.711,0.000,0.000,0.0103675,0.000,9144.000,0.128,2.448,1013.213,15.048,0.312,0.300,-9.736,-0.164,0.407,-0.009,0.032,-0.024,0.000,0.000,0.000,-0.003,0.693,-0.002,0.721,0.0000000,0.0000000,0.000,0.000,0.000,0.000,0,00:00:00,0,0.000,0.000,0.000,0.000,0.000,0.000,0.000,0.000,0.000,0.000,0.000,0.000,0.000,0.000
20.168,0,0,-1.295,-0.295,-1.307,-1.236,-0.218,-45.429,-0.452,0.091,-9.815,0.000,0.000,0.0103675,0.000,9144.000,0.131,2.329,1013.216,15.049,0.282,0.245,-9.824,0.046,0.165,-0.042,-0.010,0.011,0.000,0.000,0.000,-0.002,0.697,0.001,0.717,0.0000000,0.0000000,0.000,0.000,0.000,0.000,0,00:00:00,0,0.000,0.000,0.000,0.000,0.000,0.000,0.000,0.000,0.000,0.000,0.000,0.000,0.000,0.000
20.269,0,0,-1.286,-0.286,-5.097,-1.230,-0.192,-45.800,-0.624,0.106,-9.946,0.000,0.000,0.0103675,0.000,9144.000,0.134,1.675,1013.230,15.050,0.168,0.107,-9.961,0.059,0.321,0.000,0.004,-0.006,0.000,0.000,0.000,-0.001,0.696,0.002,0.718,0.0000000,0.0000000,0.000,0.000,0.000,0.000,0,00:00:00,0,0.000,0.000,0.000,0.000,0.000,0.000,0.000,0.000,0.000,0.000,0.000,0.000,0.000,0.000
20.370,0,0,-1.278,-0.276,-8.443,-1.241,-0.172,-45.802,-0.777,0.053,-9.864,0.000,0.000,0.0103675,0.000,9144.000,0.135,1.748,1013.278,15.050,-0.235,-0.277,-9.886,-0.040,0.419,-0.048,0.005,-0.002,0.000,0.000,0.000,-0.004,0.694,0.003,0.720,0.0000000,0.0000000,0.000,0.000,0.000,0.000,0,00:00:00,0,0.000,0.000,0.000,0.000,0.000,0.000,0.000,0.000,0.000,0.000,0.000,0.000,0.000,0.000
20.471,0,0,-1.273,-0.264,-11.239,-1.263,-0.139,-45.376,-0.883,0.188,-9.686,0.000,0.000,0.0103675,0.000,9144.000,0.135,2.073,1013.208,15.052,0.346,0.292,-9.716,0.108,0.466,0.013,-0.020,-0.013,0.000,0.000,0.000,-0.001,0.692,0.004,0.722,0.0000000,0.0000000,0.000,0.000,0.000,0.000,0,00:00:00,0,0.000,0.000,0.000,0.000,0.000,0.000,0.000,0.000,0.000,0.000,0.000,0.000,0.000,0.000
20.572,0,0,-1.269,-0.251,-13.708,-1.275,-0.109,-44.730,-0.792,0.165,-9.604,0.000,0.000,0.0103675,0.000,9144.000,0.134,2.467,1013.298,15.052,-0.398,-0.438,-9.630,0.075,0.396,-0.011,0.017,-0.020,0.000,0.000,0.000,-0.001,0.692,0.005,0.722,0.0000000,0.0000000,0.000,0.000,0.000,0.000,0,00:00:00,0,0.000,0.000,0.000,0.000,0.000,0.000,0.000,0.000,0.000,0.000,0.000,0.000,0.000,0.000
20.673,0,0,-1.267,-0.237,-15.704,-1.281,-0.091,-43.799,-0.727,0.053,-9.809,0.000,0.000,0.0103675,0.000,9144.000,0.132,2.363,1013.234,15.051,0.137,0.072,-9.829,-0.015,0.360,0.022,0.033,-0.000,0.000,0.000,0.000,-0.002,0.694,0.003,0.720,0.0000000,0.0000000,0.000,0.000,0.000,0.000,0,00:00:00,0,0.000,0.000,0.000,0.000,0.000,0.000,0.000,0.000,0.000,0.000,0.000,0.000,0.000,0.000
20.774,0,0,-1.265,-0.222,-17.336,-1.278,-0.065,-42.664,-0.629,0.147,-9.782,0.000,0.000,0.0103675,0.000,9144.000,0.129,2.138,1013.226,15.050,0.197,0.100,-9.798,0.110,0.287,0.033,-0.035,-0.015,0.000,0.000,0.000,0.001,0.695,0.003,0.719,0.0000000,0.0000000,0.000,0.000,0.000,0.000,0,00:00:00,0,0.000,0.000,0.000,0.000,0.000,0.000,0.000,0.000,0.000,0.000,0.000,0.000,0.000,0.000
20.875,0,0,-1.264,-0.206,-18.680,-1.276,-0.043,-41.388,-0.649,0.106,-9.660,0.000,0.000,0.0103675,0.000,9144.000,0.126,2.007,1013.262,15.051,-0.102,-0.187,-9.677,0.064,0.318,-0.004,-0.008,0.026,0.000,0.000,0.000,0.001,0.695,0.004,0.719,0.0000000,0.0000000,0.000,0.000,0.000,0.000,0,00:00:00,0,0.000,0.000,0.000,0.000,0.000,0.000,0.000,0.000,0.000,0.000,0.000,0.000,0.000,0.000
20.976,0,0,-1.263,-0.190,-19.685,-1.294,-0.040,-39.951,-0.840,-0.068,-9.627,0.000,0.000,0.0103675,0.000,9144.000,0.122,1.968,1013.232,15.052,0.150,0.097,-9.653,-0.124,0.446,-0.020,-0.011,-0.019,0.000,0.000,0.000,-0.003,0.693,0.001,0.721,0.0000000,0.0000000,0.000,0.000,0.000,0.000,0,00:00:00,0,0.000,0.000,0.000,0.000,0.000,0.000,0.000,0.000,0.000,0.000,0.000,0.000,0.000,0.000
21.077,0,0,-1.263,-0.176,-20.423,-1.307,-0.035,-38.439,-0.790,-0.042,-9.795,0.000,0.000,0.0103675,0.000,9144.000,0.118,2.339,1013.229,15.048,0.178,0.113,-9.820,-0.058,0.377,0.043,-0.050,0.022,0.000,0.000,0.000,-0.002,0.692,-0.001,0.722,0.0000000,0.0000000,0.000,0.000,0.000,0.000,0,00:00:00,0,0.000,0.000,0.000,0.000,0.000,0.000,0.000,0.000,0.000,0.000,0.000,0.000,0.000,0.000
21.178,0,0,-1.265,-0.162,-20.939,-1.328,-0.029,-36.879,-0.868,-0.024,-9.820,0.000,0.000,0.0103675,0.000,9144.000,0.113,2.413,1013.239,15.049,0.095,0.021,-9.848,-0.014,0.444,0.025,0.009,-0.018,0.000,0.000,0.000,-0.001,0.692,-0.001,0.722,0.0000000,0.0000000,0.000,0.000,0.000,0.000,0,00:00:00,0,0.000,0.000,0.000,0.000,0.000,0.000,0.000,0.000,0.000,0.000,0.000,0.000,0.000,0.000
21.279,0,0,-1.268,-0.150,-21.262,-1.335,-0.042,-35.292,-0.740,-0.216,-9.827,0.000,0.000,0.0103675,0.000,9144.000,0.109,2.472,1013.252,15.050,-0.013,-0.085,-9.849,-0.216,0.360,-0.014,0.018,-0.017,0.000,0.000,0.000,-0.005,0.693,-0.004,0.721,0.0000000,0.0000000,0.000,0.000,0.000,0.000,0,00:00:00,0,0.000,0.000,0.000,0.000,0.000,0.000,0.000,0.000,0.000,0.000,0.000,0.000,0.000,0.000
21.380,0,0,-1.272,-0.139,-21.466,-1.338,-0.027,-33.741,-0.702,0.079,-9.874,0.000,0.000,0.0103675,0.000,9144.000,0.104,2.229,1013.308,15.048,-0.481,-0.536,-9.893,0.086,0.345,0.013,0.016,0.033,0.000,0.000,0.000,-0.000,0.694,-0.001,0.720,0.0000000,0.0000000,0.000,0.000,0.000,0.000,0,00:00:00,0,0.000,0.000,0.000,0.000,0.000,0.000,0.000,0.000,0.000,0.000,0.000,0.000,0.000,0.000
21.481,0,0,-1.274,-0.129,-21.468,-1.315,-0.033,-32.167,-0.436,-0.130,-9.982,0.000,0.000,0.0103675,0.000,9144.000,0.099,2.069,1013.273,15.049,-0.192,-0.263,-9.990,-0.150,0.166,-0.028,-0.016,0.004,0.000,0.000,0.000,-0.004,0.697,-0.002,0.717,0.0000000,0.0000000,0.000,0.000,0.000,0.000,0,00:00:00,0,0.000,0.000,0.000,0.000,0.000,0.000,0.000,0.000,0.000,0.000,0.000,0.000,0.000,0.000
21.582,0,0,-1.275,-0.120,-21.334,-1.312,-0.037,-30.579,-0.646,-0.098,-9.672,0.000,0.000,0.0103675,0.000,9144.000,0.095,1.555,1013.277,15.053,-0.223,-0.278,-9.687,-0.125,0.338,-0.009,-0.018,0.048,0.000,0.000,0.000,-0.004,0.696,-0.002,0.718,0.0000000,0.0000000,0.000,0.000,0.000,0.000,0,00:00:00,0,0.000,0.000,0.000,0.000,0.000,0.000,0.000,0.000,0.000,0.000,0.000,0.000,0.000,0.000
21.683,0,0,-1.275,-0.112,-21.003,-1.307,-0.026,-28.960,-0.620,0.049,-9.633,0.000,0.000,0.0103675,0.000,9144.000,0.090,1.828,1013.211,15.050,0.328,0.281,-9.648,0.003,0.317,-0.018,0.019,-0.004,0.000,0.000,0.000,-0.003,0.696,0.000,0.718,0.0000000,0.0000000,0.000,0.000,0.000,0.000,0,00:00:00,0,0.000,0.000,0.000,0.000,0.000,0.000,0.000,0.000,0.000,0.000,0.000,0.000,0.000,0.000
21.784,0,0,-1.276,-0.104,-20.671,-1.323,-0.032,-27.486,-0.825,-0.118,-9.866,0.000,0.000,0.0103675,0.000,9144.000,0.085,1.798,1013.290,15.050,-0.334,-0.380,-9.890,-0.138,0.447,0.023,-0.001,-0.004,0.000,0.000,0.000,-0.004,0.693,-0.002,0.721,0.0000000,0.0000000,0.000,0.000,0.000,0.000,0,00:00:00,0,0.000,0.000,0.000,0.000,0.000,0.000,0.000,0.000,0.000,0.000,0.000,0.000,0.000,0.000
21.885,0,0,-1.277,-0.097,-20.155,-1.314,-0.035,-25.983,-0.580,-0.082,-9.850,0.000,0.000,0.0103675,0.000,9144.000,0.081,2.197,1013.203,15.049,0.395,0.353,-9.863,-0.120,0.259,-0.016,-0.007,-0.021,0.000,0.000,0.000,-0.006,0.695,-0.003,0.719,0.0000000,0.0000000,0.000,0.000,0.000,0.000,0,00:00:00,0,0.000,0.000,0.000,0.000,0.000,0.000,0.000,0.000,0.000,0.000,0.000,0.000,0.000,0.000
21.986,0,0,-1.277,-0.091,-19.649,-1.306,-0.018,-24.605,-0.599,0.124,-9.877,0.000,0.000,0.0103675,0.000,9144.000,0.077,1.870,1013.256,15.052,-0.050,-0.136,-9.891,0.070,0.289,-0.014,-0.010,-0.010,0.000,0.000,0.000,-0.003,0.696,0.001,0.718,0.0000000,0.0000000,0.000,0.000,0.000,0.000,0,00:00:00,0,0.000,0.000,0.000,0.000,0.000,0.000,0.000,0.000,0.000,0.000,0.000,0.000,0.000,0.000
22.087,0,0,-1.277,-0.083,-19.089,-1.314,0.001,-23.270,-0.747,0.145,-9.673,0.000,0.000,0.0103675,0.000,9144.000,0.073,1.800,1013.254,15.048,-0.035,-0.107,-9.694,0.089,0.400,-0.002,0.008,-0.008,0.000,0.000,0.000,-0.001,0.694,0.003,0.720,0.0000000,0.0000000,0.000,0.000,0.000,0.000,0,00:00:00,0,0.000,0.000,0.000,0.000,0.000,0.000,0.000,0.000,0.000,0.000,0.000,0.000,0.000,0.000
22.188,0,0,-1.277,-0.074,-18.465,-1.311,0.019,-22.004,-0.637,0.144,-9.838,0.000,0.000,0.0103675,0.000,9144.000,0.069,2.058,1013.232,15.050,0.147,0.094,-9.855,0.071,0.302,-0.017,-0.016,-0.037,0.000,0.000,0.000,-0.001,0.695,0.004,0.719,0.0000000,0.0000000,0.000,0.000,0.000,0.000,0,00:00:00,0,0.000,0.000,0.000,0.000,0.000,0.000,0.000,0.000,0.000,0.000,0.000,0.000,0.000,0.000
22.289,0,0,-1.276,-0.065,-17.809,-1.287,0.038,-20.802,-0.435,0.152,-9.758,0.000,0.000,0.0103675,0.000,9144.000,0.065,1.953,1013.227,15.049,0.188,0.153,-9.767,0.082,0.167,0.001,-0.038,-0.022,0.000,0.000,0.000,-0.001,0.697,0.004,0.717,0.0000000,0.0000000,0.000,0.000,0.000,0.000,0,00:00:00,0,0.000,0.000,0.000,0.000,0.000,0.000,0.000,0.000,0.000,0.000,0.000,0.000,0.000,0.000
22.390,0,0,-1.275,-0.055,-17.138,-1.301,0.045,-19.669,-0.815,0.041,-9.655,0.000,0.000,0.0103675,0.000,9144.000,0.061,1.576,1013.228,15.050,0.186,0.175,-9.678,-0.045,0.460,-0.019,0.016,-0.037,0.000,0.000,0.000,-0.004,0.694,0.003,0.720,0.0000000,0.0000000,0.000,0.000,0.000,0.000,0,00:00:00,0,0.000,0.000,0.000,0.000,0.000,0.000,0.000,0.000,0.000,0.000,0.000,0.000,0.000,0.000
22.491,0,0,-1.273,-0.044,-16.438,-1.279,0.067,-18.603,-0.444,0.188,-9.693,0.000,0.000,0.0103675,0.000,9144.000,0.058,2.103,1013.213,15.050,0.306,0.349,-9.703,0.081,0.171,-0.021,-0.021,-0.006,0.000,0.000,0.000,-0.003,0.697,0.005,0.717,0.0000000,0.0000000,0.000,0.000,0.000,0.000,0,00:00:00,0,0.000,0.000,0.000,0.000,0.000,0.000,0.000,0.000,0.000,0.000,0.000,0.000,0.000,0.000
22.592,0,0,-1.270,-0.033,-15.746,-1.252,0.089,-17.625,-0.403,0.208,-9.694,0.000,0.000,0.0103675,0.000,9144.000,0.055,1.618,1013.213,15.050,0.306,0.331,-9.703,0.081,0.171,-0.021,-0.021,-0.006,0.000,0.000,0.000,-0.003,0.699,0.006,0.716,0.0000000,0.0000000,0.000,0.000,0.000,0.000,0,00:00:00,0,0.000,0.000,0.000,0.000,0.000,0.000,0.000,0.000,0.000,0.000,0.000,0.000,0.000,0.000
22.693,0,0,-1.264,-0.021,-15.115,-1.235,0.106,-16.775,-0.501,0.152,-9.789,0.000,0.000,0.0103675,0.000,9144.000,0.052,1.375,1013.253,15.051,-0.026,-0.020,-9.799,-0.021,0.250,-0.046,-0.019,0.012,0.000,0.000,0.000,-0.005,0.698,0.007,0.716,0.0000000,0.0000000,0.000,0.000,0.000,0.000,0,00:00:00,0,0.000,0.000,0.000,0.000,0.000,0.000,0.000,0.000,0.000,0.000,0.000,0.000,0.000,0.000
22.794,0,0,-1.258,-0.008,-14.458,-1.210,0.143,-15.988,-0.404,0.363,-9.974,0.000,0.000,0.0103675,0.000,9144.000,0.050,1.474,1013.223,15.050,0.222,0.282,-9.985,0.141,0.199,-0.044,0.038,0.031,0.000,0.000,0.000,-0.004,0.700,0.011,0.714,0.0000000,0.0000000,0.000,0.000,0.000,0.000,0,00:00:00,0,0.000,0.000,0.000,0.000,0.000,0.000,0.000,0.000,0.000,0.000,0.000,0.000,0.000,0.000
22.895,0,0,-1.250,0.007,-13.875,-1.209,0.159,-15.283,-0.650,0.160,-9.643,0.000,0.000,0.0103675,0.000,9144.000,0.047,1.199,1013.262,15.050,-0.102,-0.092,-9.659,-0.032,0.369,0.024,0.009,0.009,0.000,0.000,0.000,-0.006,0.697,0.008,0.717,0.0000000,0.0000000,0.000,0.000,0.000,0.000,0,00:00:00,0,0.000,0.000,0.000,0.000,0.000,0.000,0.000,0.000,0.000,0.000,0.000,0.000,0.000,0.000
22.996,0,0,-1.243,0.022,-13.296,-1.205,0.196,-14.642,-0.615,0.384,-9.729,0.000,0.000,0.0103675,0.000,9144.000,0.045,1.669,1013.249,15.053,0.006,0.035,-9.749,0.171,0.323,-0.019,0.016,-0.009,0.000,0.000,0.000,-0.004,0.696,0.011,0.718,0.0000000,0.0000000,0.000,0.000,0.000,0.000,0,00:00:00,0,0.000,0.000,0.000,0.000,0.000,0.000,0.000,0.000,0.000,0.000,0.000,0.000,0.000,0.000
23.097,0,0,-1.237,0.039,-12.768,-1.214,0.215,-14.097,-0.745,0.206,-9.816,0.000,0.000,0.0103675,0.000,9144.000,0.043,1.738,1013.274,15.051,-0.201,-0.150,-9.838,-0.023,0.404,-0.014,0.017,0.026,0.000,0.000,0.000,-0.006,0.695,0.010,0.719,0.0000000,0.0000000,0.000,0.000,0.000,0.000,0,00:00:00,0,0.000,0.000,0.000,0.000,0.000,0.000,0.000,0.000,0.000,0.000,0.000,0.000,0.000,0.000
23.198,0,0,-1.234,0.056,-12.222,-1.253,0.231,-13.575,-1.031,0.189,-9.772,0.000,0.000,0.0103675,0.000,9144.000,0.042,1.996,1013.235,15.050,0.122,0.168,-9.811,-0.026,0.579,0.013,0.016,-0.001,0.000,0.000,0.000,-0.007,0.691,0.008,0.723,0.0000000,0.0000000,0.000,0.000,0.000,0.000,0,00:00:00,0,0.000,0.000,0.000,0.000,0.000,0.000,0.000,0.000,0.000,0.000,0.000,0.000,0.000,0.000
23.299,0,0,-1.235,0.072,-11.710,-1.297,0.245,-13.117,-1.086,0.175,-9.766,0.000,0.000,0.0103675,0.000,9144.000,0.040,2.642,1013.235,15.050,0.122,0.148,-9.811,-0.026,0.579,0.013,0.016,-0.001,0.000,0.000,0.000,-0.007,0.689,0.007,0.725,0.0000000,0.0000000,0.000,0.000,0.000,0.000,0,00:00:00,0,0.000,0.000,0.000,0.000,0.000,0.000,0.000,0.000,0.000,0.000,0.000,0.000,0.000,0.000
