State - Time (s),State - Stage,State - Stage,State - PX (m),State - PY (m),State - PZ (m),State - VX (m/s),State - VY (m/s),State - VZ (m/s),State - AX (m/s/s),State - AY (m/s/s),State - AZ (m/s/s),State - Actuation Angle (deg),State - Acutal Angle (deg),State - CdA,State - Est Apo (m),State - Target Apogee (m),State - Mach Number,State - Tilt [deg],State - Pos - Accel Integrated [m],State - Velo - Accel Integrated [m/s],MockBarometer - Pres (hPa),MockBarometer - Temp (C),MockBarometer - Alt ASL (m),MockBarometer - Alt AGL (m),MockIMU - AccX (m/s^2),MockIMU - AccY (m/s^2),MockIMU - AccZ (m/s^2),MockIMU - GyroX (rad/s),MockIMU - GyroY (rad/s),MockIMU - GyroZ (rad/s),MockIMU - MagX (uT),MockIMU - MagY (uT),MockIMU - MagZ (uT),MockIMU - OriX,MockIMU - OriY,MockIMU - OriZ,MockIMU - OriW,MockGPS - Lat,MockGPS - Lon,MockGPS - Alt (m),MockGPS - Disp X (m),MockGPS - Disp Y (m),MockGPS - Disp Z (m),MockGPS - Fix Quality,MockGPS - Time of Day,E5 - Rel Steps,MockBR - Battery Voltage (V),MockBR - ALT (m),MockBR - PRES (Pa),MockBR - TEMP (C),MockBR - VEL (m/s),MockBR - ANG (deg),MockBR - ACCX (m/s^2),MockBR - ACCY (m/s^2),MockBR - ACCZ (m/s^2),MockBR - GYROX (rad/s),MockBR - GYROY (rad/s),MockBR - GYROZ (rad/s),MockBR - ROLL (deg),MockBR - TILT (deg)
16.627,0,0,0.000,0.000,0.000,0.000,0.000,0.000,0.000,0.000,0.000,0.000,0.000,0.0103675,0.000,9144.000,0.000,0.000,0.000,0.000,0.000,0.000,44307.690,0.000,0.000,0.000,0.000,0.000,0.000,0.000,0.000,0.000,0.000,0.000,0.000,0.000,1.000,0.0000000,0.0000000,0.000,0.000,0.000,0.000,0,00:00:00,0,0.000,0.000,0.000,0.000,0.000,0.000,0.000,0.000,0.000,0.000,0.000,0.000,0.000,0.000
16.728,0,0,-0.000,0.000,-5369.971,-0.723,0.002,-50509.665,-7.203,0.016,-6.550,0.000,0.000,0.0103675,0.000,9144.000,0.000,90.000,-0.065,-0.655,915.218,9.475,849.655,-5369.971,-9.731,0.024,0.312,-0.011,0.011,-0.009,0.000,0.000,0.000,0.001,0.376,-0.000,0.927,0.0000000,0.0000000,0.000,0.000,0.000,0.000,0,00:00:00,0,0.000,0.000,91527.578,9.478,0.000,0.000,0.440,-9.910,-0.039,0.036,-0.010,-0.003,0.000,0.000
16.829,0,0,-0.047,-0.000,-3227.150,-1.143,-0.005,20155.171,-4.218,-0.066,-9.008,0.000,0.000,0.0103675,0.000,9144.000,150.149,45.885,-0.221,-1.556,915.278,9.479,849.111,-3227.150,-9.944,-0.062,0.248,-0.003,-0.002,-0.002,0.000,0.000,0.000,-0.001,0.547,-0.001,0.837,0.0000000,0.0000000,0.000,0.000,0.000,0.000,0,00:00:00,0,0.000,0.000,91524.484,9.477,0.000,0.000,0.329,-9.925,0.032,-0.014,-0.004,-0.002,0.000,0.000
16.930,0,0,-0.115,-0.000,-0.472,-1.395,0.003,-2.506,-2.564,0.080,-9.498,0.000,0.000,0.0103675,0.000,9144.000,59.914,23.664,-0.472,-2.506,915.195,9.474,849.860,-2314.695,-9.831,0.066,0.378,-0.013,0.010,0.011,0.000,0.000,0.000,0.000,0.623,0.001,0.782,0.0000000,0.0000000,0.000,0.000,0.000,0.000,0,00:00:00,0,0.000,0.000,91521.461,9.475,0.000,0.000,0.305,-9.774,0.033,-0.013,0.007,0.013,0.000,0.000
17.031,0,0,-0.196,0.000,-1806.392,-1.555,0.012,4780.897,-1.662,0.093,-9.696,0.000,0.000,0.0103675,0.000,9144.000,0.009,12.904,-0.819,-3.475,915.195,9.474,849.860,-1806.392,-9.831,0.066,0.378,-0.013,0.010,0.011,0.000,0.000,0.000,0.001,0.659,0.003,0.752,0.0000000,0.0000000,0.000,0.000,0.000,0.000,0,00:00:00,0,0.000,0.000,91521.461,9.475,0.000,0.000,0.305,-9.774,0.033,-0.013,0.007,0.013,0.000,0.000
17.132,0,0,-0.284,0.002,-1.262,-1.659,0.026,-4.426,-1.124,0.133,-9.512,0.000,0.000,0.0103675,0.000,9144.000,14.212,7.524,-1.262,-4.426,915.208,9.474,849.743,-1481.734,-9.573,0.107,0.333,-0.003,0.000,-0.004,0.000,0.000,0.000,0.002,0.677,0.004,0.736,0.0000000,0.0000000,0.000,0.000,0.000,0.000,0,00:00:00,0,0.000,0.000,91524.766,9.477,0.000,0.000,0.339,-9.737,-0.090,0.018,-0.012,0.005,0.000,0.000
17.233,0,0,-0.375,0.004,-1256.525,-1.741,0.038,2118.028,-0.903,0.125,-9.689,0.000,0.000,0.0103675,0.000,9144.000,0.014,4.756,-1.801,-5.395,915.260,9.477,849.276,-1256.525,-9.725,0.102,0.339,0.003,0.014,0.007,0.000,0.000,0.000,0.003,0.686,0.004,0.727,0.0000000,0.0000000,0.000,0.000,0.000,0.000,0,00:00:00,0,0.000,0.000,91522.781,9.476,0.000,0.000,0.314,-9.768,0.006,-0.012,-0.010,-0.004,0.000,0.000
17.334,0,0,-0.470,0.007,-2.438,-1.809,0.050,-6.365,-0.783,0.121,-9.699,0.000,0.000,0.0103675,0.000,9144.000,6.296,3.335,-2.438,-6.365,915.260,9.477,849.276,-1090.577,-9.725,0.102,0.339,0.003,0.014,0.007,0.000,0.000,0.000,0.003,0.691,0.004,0.723,0.0000000,0.0000000,0.000,0.000,0.000,0.000,0,00:00:00,0,0.000,0.000,91522.781,9.476,0.000,0.000,0.314,-9.768,0.006,-0.012,-0.010,-0.004,0.000,0.000
17.435,0,0,-0.567,0.011,-963.392,-1.869,0.062,1195.925,-0.722,0.118,-9.704,0.000,0.000,0.0103675,0.000,9144.000,0.020,2.624,-3.171,-7.336,915.260,9.477,849.276,-963.392,-9.725,0.102,0.339,0.003,0.014,0.007,0.000,0.000,0.000,0.003,0.693,0.004,0.721,0.0000000,0.0000000,0.000,0.000,0.000,0.000,0,00:00:00,0,0.000,0.000,91522.781,9.476,0.000,0.000,0.314,-9.768,0.006,-0.012,-0.010,-0.004,0.000,0.000
17.536,0,0,-0.667,0.016,-4.003,-1.947,0.078,-8.320,-0.912,0.165,-9.842,0.000,0.000,0.0103675,0.000,9144.000,3.555,2.269,-4.003,-8.320,915.244,9.476,849.425,-862.666,-9.873,0.132,0.484,-0.014,0.013,-0.001,0.000,0.000,0.000,0.003,0.692,0.005,0.722,0.0000000,0.0000000,0.000,0.000,0.000,0.000,0,00:00:00,0,0.000,0.000,91521.203,9.475,0.000,0.000,0.291,-9.799,-0.026,-0.015,0.005,-0.005,0.000,0.000
17.637,0,0,-0.768,0.021,-862.927,-1.982,0.060,-2.917,-0.498,-0.174,-9.532,0.000,0.000,0.0103675,0.000,9144.000,0.025,2.500,-4.931,-9.273,915.273,9.478,849.164,-862.927,-9.542,-0.211,0.197,-0.012,0.011,0.010,0.000,0.000,0.000,-0.003,0.696,-0.000,0.718,0.0000000,0.0000000,0.000,0.000,0.000,0.000,0,00:00:00,0,0.000,0.000,91536.430,9.484,0.000,0.000,0.363,-9.688,-0.046,-0.009,-0.003,-0.004,0.000,0.000
17.738,0,0,-0.869,0.023,-862.927,-2.008,0.043,-0.511,-0.439,-0.164,-9.535,0.000,0.000,0.0103675,0.000,9144.000,0.010,1.811,-5.953,-10.227,915.273,9.478,849.164,-862.927,-9.542,-0.211,0.197,-0.012,0.011,0.010,0.000,0.000,0.000,-0.006,0.698,-0.003,0.716,0.0000000,0.0000000,0.000,0.000,0.000,0.000,0,00:00:00,0,0.000,0.000,91536.430,9.484,0.000,0.000,0.363,-9.688,-0.046,-0.009,-0.003,-0.004,0.000,0.000
17.839,0,0,-0.971,0.024,-862.693,-2.063,0.031,1.640,-0.746,-0.119,-9.648,0.000,0.000,0.0103675,0.000,9144.000,0.006,1.465,-7.072,-11.191,915.247,9.477,849.398,-862.693,-9.668,-0.154,0.416,0.009,-0.001,0.020,0.000,0.000,0.000,-0.006,0.695,-0.003,0.719,0.0000000,0.0000000,0.000,0.000,0.000,0.000,0,00:00:00,0,0.000,0.000,91516.805,9.472,0.000,0.000,0.317,-9.829,0.030,0.017,0.004,-0.001,0.000,0.000
17.940,0,0,-1.074,0.026,-856.939,-2.122,0.051,-8.075,-0.816,0.207,-9.836,0.000,0.000,0.0103675,0.000,9144.000,0.008,1.967,-8.290,-12.175,915.230,9.476,849.548,-862.542,-9.862,0.121,0.429,-0.045,-0.007,0.011,0.000,0.000,0.000,-0.003,0.693,0.003,0.721,0.0000000,0.0000000,0.000,0.000,0.000,0.000,0,00:00:00,0,0.000,0.000,91520.156,9.474,0.000,0.000,0.384,-9.846,0.051,-0.005,0.004,-0.003,0.000,0.000
18.041,0,0,-1.176,0.029,-862.436,-2.140,0.056,0.344,-0.453,0.055,-9.740,0.000,0.000,0.0103675,0.000,9144.000,0.025,2.249,-9.605,-13.149,915.218,9.475,849.655,-862.436,-9.749,-0.050,0.179,-0.021,0.012,-0.004,0.000,0.000,0.000,-0.005,0.697,0.003,0.717,0.0000000,0.0000000,0.000,0.000,0.000,0.000,0,00:00:00,0,0.000,0.000,91524.523,9.477,0.000,0.000,0.348,-9.776,-0.018,0.007,-0.002,-0.003,0.000,0.000
18.142,0,0,-1.276,0.032,-861.424,-2.159,0.067,-10.377,-0.495,0.111,-10.018,0.000,0.000,0.0103675,0.000,9144.000,0.006,1.615,-11.020,-14.151,915.236,9.476,849.496,-862.595,-10.028,0.016,0.233,0.013,-0.008,-0.015,0.000,0.000,0.000,-0.004,0.698,0.003,0.716,0.0000000,0.0000000,0.000,0.000,0.000,0.000,0,00:00:00,0,0.000,0.000,91518.477,9.473,0.000,0.000,0.243,-9.767,0.016,-0.004,-0.005,0.001,0.000,0.000
18.243,0,0,-1.375,0.036,-862.993,-2.199,0.090,-4.506,-0.744,0.242,-9.638,0.000,0.000,0.0103675,0.000,9144.000,0.032,1.497,-12.531,-15.115,915.280,9.479,849.097,-862.993,-9.660,0.121,0.410,-0.026,-0.010,0.030,0.000,0.000,0.000,-0.002,0.695,0.007,0.719,0.0000000,0.0000000,0.000,0.000,0.000,0.000,0,00:00:00,0,0.000,0.000,91516.195,9.472,0.000,0.000,0.334,-9.730,-0.016,-0.009,0.000,0.018,0.000,0.000
18.344,0,0,-1.471,0.042,-862.285,-2.234,0.100,5.856,-0.750,0.113,-9.672,0.000,0.000,0.0103675,0.000,9144.000,0.015,1.993,-14.140,-16.082,915.202,9.474,849.805,-862.285,-9.694,-0.010,0.385,-0.004,-0.011,-0.006,0.000,0.000,0.000,-0.003,0.694,0.005,0.720,0.0000000,0.0000000,0.000,0.000,0.000,0.000,0,00:00:00,0,0.000,0.000,91535.680,9.483,0.000,0.000,0.335,-9.703,-0.057,0.020,-0.000,0.001,0.000,0.000
18.445,0,0,-1.566,0.049,-842.805,-2.253,0.104,-12.991,-0.641,0.046,-9.678,0.000,0.000,0.0103675,0.000,9144.000,0.019,2.164,-15.845,-17.050,915.241,9.476,849.449,-862.641,-9.694,-0.086,0.313,-0.012,0.024,-0.002,0.000,0.000,0.000,-0.006,0.695,0.004,0.719,0.0000000,0.0000000,0.000,0.000,0.000,0.000,0,00:00:00,0,0.000,0.000,91523.086,9.476,0.000,0.000,0.301,-9.828,0.026,0.009,0.013,-0.011,0.000,0.000
18.546,0,0,-1.655,0.055,-862.405,-2.267,0.117,1.319,-0.652,0.149,-9.656,0.000,0.000,0.0103675,0.000,9144.000,0.039,1.939,-17.646,-18.015,915.215,9.475,849.685,-862.405,-9.674,0.025,0.332,0.009,0.020,0.006,0.000,0.000,0.000,-0.004,0.695,0.005,0.719,0.0000000,0.0000000,0.000,0.000,0.000,0.000,0,00:00:00,0,0.000,0.000,91519.867,9.474,0.000,0.000,0.336,-9.767,0.065,-0.001,-0.005,-0.016,0.000,0.000
18.647,0,0,-1.740,0.063,-0.062,-2.274,0.145,2548.419,-0.628,0.295,-9.880,0.000,0.000,0.0103675,0.000,9144.000,0.008,1.896,-19.546,-19.003,915.235,9.476,849.506,0.041,-9.898,0.176,0.308,0.010,-0.009,-0.002,0.000,0.000,0.000,-0.001,0.695,0.007,0.718,0.0000000,0.0000000,0.000,0.000,0.000,0.000,0,00:00:00,0,0.000,0.000,91526.219,9.478,0.000,0.000,0.314,-9.798,-0.012,0.021,0.005,-0.014,0.000,0.000
18.748,0,0,-1.820,0.072,-21.543,-2.299,0.145,-19.967,-0.879,0.024,-9.638,0.000,0.000,0.0103675,0.000,9144.000,7.576,1.867,-21.543,-19.967,915.277,9.478,849.127,-0.288,-9.665,-0.090,0.487,0.001,0.019,0.017,0.000,0.000,0.000,-0.004,0.693,0.004,0.721,0.0000000,0.0000000,0.000,0.000,0.000,0.000,0,00:00:00,0,0.000,0.000,91515.625,9.471,0.000,0.000,0.305,-9.810,-0.025,-0.011,0.014,-0.001,0.000,0.000
18.849,0,0,-1.896,0.080,-0.211,-2.325,0.158,-0.321,-0.944,0.160,-9.731,0.000,0.000,0.0103675,0.000,9144.000,0.060,2.323,-23.637,-20.940,915.265,9.478,849.233,-0.211,-9.765,0.052,0.498,0.007,-0.000,-0.013,0.000,0.000,0.000,-0.003,0.691,0.005,0.723,0.0000000,0.0000000,0.000,0.000,0.000,0.000,0,00:00:00,0,0.000,0.000,91518.742,9.473,0.000,0.000,0.314,-9.800,0.032,0.005,-0.004,0.017,0.000,0.000
18.950,0,0,-1.967,0.090,0.328,-2.320,0.189,3.976,-0.694,0.340,-9.652,0.000,0.000,0.0103675,0.000,9144.000,0.007,2.623,-25.828,-21.905,915.209,9.474,849.741,0.328,-9.675,0.230,0.307,0.001,-0.037,0.032,0.000,0.000,0.000,0.001,0.693,0.009,0.721,0.0000000,0.0000000,0.000,0.000,0.000,0.000,0,00:00:00,0,0.000,0.000,91526.383,9.478,0.000,0.000,0.272,-9.787,0.009,-0.008,0.012,0.022,0.000,0.000
19.051,0,0,-2.029,0.101,-0.487,-2.306,0.191,-17.104,-0.671,0.060,-9.616,0.000,0.000,0.0103675,0.000,9144.000,0.014,2.326,-28.114,-22.867,915.252,9.477,849.351,-0.041,-9.635,-0.040,0.301,0.007,-0.053,0.015,0.000,0.000,0.000,-0.001,0.693,0.006,0.721,0.0000000,0.0000000,0.000,0.000,0.000,0.000,0,00:00:00,0,0.000,0.000,91525.578,9.477,0.000,0.000,0.329,-9.785,0.077,-0.007,-0.002,-0.018,0.000,0.000
19.152,0,0,-2.083,0.111,-0.016,-2.285,0.191,-0.959,-0.662,0.052,-9.616,0.000,0.000,0.0103675,0.000,9144.000,0.051,2.208,-30.497,-23.829,915.252,9.477,849.351,-0.016,-9.635,-0.040,0.301,0.007,-0.053,0.015,0.000,0.000,0.000,-0.003,0.694,0.004,0.720,0.0000000,0.0000000,0.000,0.000,0.000,0.000,0,00:00:00,0,0.000,0.000,91525.578,9.477,0.000,0.000,0.329,-9.785,0.077,-0.007,-0.002,-0.018,0.000,0.000
19.253,0,0,-2.129,0.121,0.161,-2.271,0.215,0.426,-0.775,0.284,-9.979,0.000,0.000,0.0103675,0.000,9144.000,0.007,2.150,-32.980,-24.826,915.234,9.476,849.511,0.161,-10.004,0.200,0.391,0.016,-0.009,-0.008,0.000,0.000,0.000,0.001,0.693,0.006,0.721,0.0000000,0.0000000,0.000,0.000,0.000,0.000,0,00:00:00,0,0.000,0.000,91519.422,9.474,0.000,0.000,0.290,-9.907,-0.005,0.019,0.002,0.007,0.000,0.000
19.354,0,0,-2.166,0.131,0.102,-2.239,0.206,-18.053,-0.654,-0.027,-9.705,0.000,0.000,0.0103675,0.000,9144.000,0.007,2.220,-35.559,-25.797,915.228,9.476,849.565,0.163,-9.722,-0.099,0.307,0.004,-0.011,-0.018,0.000,0.000,0.000,-0.003,0.694,0.002,0.720,0.0000000,0.0000000,0.000,0.000,0.000,0.000,0,00:00:00,0,0.000,0.000,91526.578,9.478,0.000,0.000,0.325,-9.706,-0.044,-0.001,-0.000,-0.009,0.000,0.000
19.455,0,0,-2.195,0.139,0.225,-2.219,0.214,-0.755,-0.813,0.142,-9.781,0.000,0.000,0.0103675,0.000,9144.000,0.054,2.047,-38.237,-26.775,915.219,9.475,849.645,0.225,-9.807,0.036,0.421,-0.033,-0.016,0.005,0.000,0.000,0.000,-0.003,0.693,0.004,0.721,0.0000000,0.0000000,0.000,0.000,0.000,0.000,0,00:00:00,0,0.000,0.000,91522.398,9.475,0.000,0.000,0.300,-9.769,0.006,0.017,0.010,0.003,0.000,0.000
19.556,0,0,-2.217,0.148,0.199,-2.197,0.224,-1.633,-0.834,0.175,-9.779,0.000,0.000,0.0103675,0.000,9144.000,0.007,2.297,-41.012,-27.753,915.219,9.475,849.645,0.199,-9.807,0.036,0.421,-0.033,-0.016,0.005,0.000,0.000,0.000,-0.004,0.692,0.006,0.722,0.0000000,0.0000000,0.000,0.000,0.000,0.000,0,00:00:00,0,0.000,0.000,91522.398,9.475,0.000,0.000,0.300,-9.769,0.006,0.017,0.010,0.003,0.000,0.000
19.657,0,0,-2.231,0.157,-0.064,-2.145,0.231,-3.905,-0.568,0.146,-9.624,0.000,0.000,0.0103675,0.000,9144.000,0.008,2.422,-43.884,-28.715,915.245,9.477,849.416,-0.064,-9.639,0.033,0.243,0.023,-0.002,-0.010,0.000,0.000,0.000,-0.003,0.695,0.005,0.719,0.0000000,0.0000000,0.000,0.000,0.000,0.000,0,00:00:00,0,0.000,0.000,91519.406,9.474,0.000,0.000,0.325,-9.801,-0.047,-0.004,-0.004,-0.003,0.000,0.000
19.758,0,0,-2.237,0.165,-0.257,-2.099,0.232,-3.298,-0.659,0.092,-9.911,0.000,0.000,0.0103675,0.000,9144.000,0.013,1.938,-46.854,-29.706,915.266,9.478,849.220,-0.257,-9.928,-0.022,0.325,0.001,-0.007,-0.014,0.000,0.000,0.000,-0.004,0.695,0.004,0.719,0.0000000,0.0000000,0.000,0.000,0.000,0.000,0,00:00:00,0,0.000,0.000,91517.117,9.472,0.000,0.000,0.428,-9.797,-0.028,0.008,0.005,-0.005,0.000,0.000
19.859,0,0,-2.235,0.172,0.291,-2.062,0.237,3.615,-0.764,0.127,-9.962,0.000,0.000,0.0103675,0.000,9144.000,0.012,1.926,-49.925,-30.703,915.208,9.474,849.751,0.291,-9.984,-0.005,0.396,-0.019,-0.004,-0.012,0.000,0.000,0.000,-0.005,0.694,0.004,0.720,0.0000000,0.0000000,0.000,0.000,0.000,0.000,0,00:00:00,0,0.000,0.000,91525.078,9.477,0.000,0.000,0.351,-9.849,-0.065,0.017,0.001,-0.001,0.000,0.000
19.960,0,0,-2.227,0.179,-0.650,-2.017,0.238,-22.675,-0.699,0.106,-9.602,0.000,0.000,0.0103675,0.000,9144.000,0.012,2.112,-53.091,-31.663,915.224,9.475,849.598,0.119,-9.621,-0.002,0.360,0.020,0.037,-0.015,0.000,0.000,0.000,-0.004,0.695,0.004,0.719,0.0000000,0.0000000,0.000,0.000,0.000,0.000,0,00:00:00,0,0.000,0.000,91521.961,9.475,0.000,0.000,0.365,-9.796,0.038,-0.002,0.005,-0.006,0.000,0.000
20.061,0,0,-2.214,0.185,0.102,-1.981,0.250,-1.793,-0.804,0.215,-9.784,0.000,0.000,0.0103675,0.000,9144.000,0.068,2.022,-56.355,-32.641,915.230,9.476,849.551,0.102,-9.810,0.096,0.416,-0.007,-0.018,-0.015,0.000,0.000,0.000,-0.003,0.693,0.006,0.721,0.0000000,0.0000000,0.000,0.000,0.000,0.000,0,00:00:00,0,0.000,0.000,91529.305,9.479,0.000,0.000,0.451,-9.867,-0.011,0.000,-0.004,-0.017,0.000,0.000
20.162,0,0,-2.196,0.192,0.148,-1.949,0.245,-1.243,-0.839,0.055,-9.632,0.000,0.000,0.0103675,0.000,9144.000,0.008,2.276,-59.716,-33.605,915.226,9.475,849.583,0.148,-9.659,-0.057,0.429,0.002,-0.008,-0.005,0.000,0.000,0.000,-0.005,0.692,0.004,0.722,0.0000000,0.0000000,0.000,0.000,0.000,0.000,0,00:00:00,0,0.000,0.000,91520.852,9.474,0.000,0.000,0.390,-9.825,-0.012,0.012,0.005,-0.000,0.000,0.000
20.263,0,0,-2.176,0.197,-0.177,-1.926,0.248,-4.784,-0.928,0.136,-9.689,0.000,0.000,0.0103675,0.000,9144.000,0.007,2.433,-63.173,-34.573,915.258,9.477,849.299,-0.177,-9.722,0.032,0.479,0.013,-0.010,0.032,0.000,0.000,0.000,-0.003,0.691,0.005,0.723,0.0000000,0.0000000,0.000,0.000,0.000,0.000,0,00:00:00,0,0.000,0.000,91529.352,9.479,0.000,0.000,0.420,-9.804,0.076,0.002,0.004,-0.015,0.000,0.000
20.364,0,0,-2.153,0.201,-0.222,-1.882,0.236,-2.205,-0.718,-0.012,-9.772,0.000,0.000,0.0103675,0.000,9144.000,0.015,2.654,-66.728,-35.551,915.265,9.478,849.230,-0.222,-9.792,-0.126,0.334,-0.013,0.020,0.005,0.000,0.000,0.000,-0.006,0.693,0.003,0.721,0.0000000,0.0000000,0.000,0.000,0.000,0.000,0,00:00:00,0,0.000,0.000,91517.438,9.472,0.000,0.000,0.289,-9.800,0.051,0.008,0.013,-0.001,0.000,0.000
20.465,0,0,-2.126,0.204,-0.132,-1.836,0.225,-0.978,-0.689,-0.003,-9.809,0.000,0.000,0.0103675,0.000,9144.000,0.009,2.246,-70.381,-36.532,915.253,9.477,849.340,-0.132,-9.828,-0.124,0.322,-0.007,-0.028,-0.002,0.000,0.000,0.000,-0.008,0.694,0.001,0.720,0.0000000,0.0000000,0.000,0.000,0.000,0.000,0,00:00:00,0,0.000,0.000,91527.867,9.479,0.000,0.000,0.311,-9.800,-0.027,0.006,-0.009,-0.003,0.000,0.000
20.566,0,0,-2.096,0.207,0.221,-1.795,0.243,1.447,-0.726,0.292,-9.701,0.000,0.000,0.0103675,0.000,9144.000,0.006,2.142,-74.131,-37.502,915.214,9.475,849.689,0.221,-9.725,0.128,0.368,-0.043,0.013,-0.010,0.000,0.000,0.000,-0.005,0.694,0.007,0.720,0.0000000,0.0000000,0.000,0.000,0.000,0.000,0,00:00:00,0,0.000,0.000,91521.422,9.475,0.000,0.000,0.235,-9.803,0.085,0.003,-0.004,0.023,0.000,0.000
20.667,0,0,-2.063,0.210,-0.123,-1.743,0.259,-26.613,-0.604,0.274,-9.789,0.000,0.000,0.0103675,0.000,9144.000,0.007,2.114,-77.979,-38.481,915.203,9.474,849.789,0.330,-9.807,0.086,0.297,-0.022,0.041,-0.004,0.000,0.000,0.000,-0.005,0.696,0.009,0.718,0.0000000,0.0000000,0.000,0.000,0.000,0.000,0,00:00:00,0,0.000,0.000,91523.867,9.476,0.000,0.000,0.373,-9.828,-0.015,0.011,0.005,0.011,0.000,0.000
20.768,0,0,-2.028,0.215,0.321,-1.690,0.277,-2.060,-0.577,0.296,-9.790,0.000,0.000,0.0103675,0.000,9144.000,0.079,1.806,-81.925,-39.460,915.203,9.474,849.789,0.321,-9.807,0.086,0.297,-0.022,0.041,-0.004,0.000,0.000,0.000,-0.005,0.697,0.010,0.717,0.0000000,0.0000000,0.000,0.000,0.000,0.000,0,00:00:00,0,0.000,0.000,91523.867,9.476,0.000,0.000,0.373,-9.828,-0.015,0.011,0.005,0.011,0.000,0.000
20.869,0,0,-1.990,0.221,-0.068,-1.646,0.283,-5.678,-0.649,0.174,-9.803,0.000,0.000,0.0103675,0.000,9144.000,0.008,1.653,-85.969,-40.440,915.241,9.476,849.452,-0.068,-9.820,-0.030,0.346,0.006,0.020,-0.001,0.000,0.000,0.000,-0.007,0.696,0.008,0.718,0.0000000,0.0000000,0.000,0.000,0.000,0.000,0,00:00:00,0,0.000,0.000,91519.508,9.474,0.000,0.000,0.304,-9.796,0.003,-0.005,-0.006,0.024,0.000,0.000
20.970,0,0,-1.952,0.226,-0.203,-1.592,0.277,-3.337,-0.527,0.062,-9.717,0.000,0.000,0.0103675,0.000,9144.000,0.018,1.776,-90.111,-41.412,915.257,9.477,849.303,-0.203,-9.727,-0.138,0.260,-0.001,0.030,-0.011,0.000,0.000,0.000,-0.010,0.697,0.005,0.717,0.0000000,0.0000000,0.000,0.000,0.000,0.000,0,00:00:00,0,0.000,0.000,91519.664,9.474,0.000,0.000,0.297,-9.760,0.025,-0.022,0.009,-0.014,0.000,0.000
21.071,0,0,-1.913,0.230,0.049,-1.585,0.281,0.245,-0.968,0.164,-9.700,0.000,0.000,0.0103675,0.000,9144.000,0.011,1.568,-94.349,-42.382,915.227,9.475,849.574,0.049,-9.734,-0.041,0.556,-0.006,-0.001,0.011,0.000,0.000,0.000,-0.009,0.692,0.006,0.722,0.0000000,0.0000000,0.000,0.000,0.000,0.000,0,00:00:00,0,0.000,0.000,91520.406,9.474,0.000,0.000,0.311,-9.782,0.121,-0.007,-0.018,0.003,0.000,0.000
21.172,0,0,-1.877,0.234,-0.425,-1.567,0.285,-31.477,-0.842,0.174,-9.829,0.000,0.000,0.0103675,0.000,9144.000,0.005,2.422,-98.685,-43.365,915.266,9.478,849.219,-0.329,-9.857,-0.020,0.431,0.016,0.028,0.003,0.000,0.000,0.000,-0.008,0.692,0.006,0.722,0.0000000,0.0000000,0.000,0.000,0.000,0.000,0,00:00:00,0,0.000,0.000,91525.461,9.477,0.000,0.000,0.440,-9.762,0.052,-0.028,0.006,-0.003,0.000,0.000
21.273,0,0,-1.841,0.238,0.040,-1.547,0.286,1.256,-0.797,0.136,-9.539,0.000,0.000,0.0103675,0.000,9144.000,0.094,2.385,-103.117,-44.318,915.228,9.476,849.567,0.040,-9.565,-0.070,0.401,-0.023,0.006,-0.048,0.000,0.000,0.000,-0.010,0.692,0.005,0.722,0.0000000,0.0000000,0.000,0.000,0.000,0.000,0,00:00:00,0,0.000,0.000,91520.422,9.474,0.000,0.000,0.409,-9.790,0.047,0.013,-0.002,-0.010,0.000,0.000
21.374,0,0,-1.808,0.242,-0.467,-1.529,0.289,-31.591,-0.797,0.155,-9.539,0.000,0.000,0.0103675,0.000,9144.000,0.006,2.373,-107.644,-45.272,915.228,9.476,849.567,0.074,-9.565,-0.070,0.401,-0.023,0.006,-0.048,0.000,0.000,0.000,-0.012,0.692,0.005,0.722,0.0000000,0.0000000,0.000,0.000,0.000,0.000,0,00:00:00,0,0.000,0.000,91520.422,9.474,0.000,0.000,0.409,-9.790,0.047,0.013,-0.002,-0.010,0.000,0.000
21.475,0,0,-1.776,0.245,0.104,-1.512,0.293,-2.024,-0.797,0.175,-9.539,0.000,0.000,0.0103675,0.000,9144.000,0.094,2.367,-112.267,-46.226,915.228,9.476,849.567,0.104,-9.565,-0.070,0.401,-0.023,0.006,-0.048,0.000,0.000,0.000,-0.013,0.692,0.006,0.722,0.0000000,0.0000000,0.000,0.000,0.000,0.000,0,00:00:00,0,0.000,0.000,91520.422,9.474,0.000,0.000,0.409,-9.790,0.047,0.013,-0.002,-0.010,0.000,0.000
21.576,0,0,-1.745,0.249,0.296,-1.502,0.303,-0.556,-0.839,0.234,-9.971,0.000,0.000,0.0103675,0.000,9144.000,0.008,2.363,-116.989,-47.223,915.206,9.474,849.764,0.296,-10.001,-0.005,0.415,0.019,-0.019,-0.006,0.000,0.000,0.000,-0.011,0.692,0.007,0.722,0.0000000,0.0000000,0.000,0.000,0.000,0.000,0,00:00:00,0,0.000,0.000,91524.180,9.476,0.000,0.000,0.344,-9.717,-0.014,0.009,-0.001,-0.015,0.000,0.000
21.677,0,0,-1.716,0.254,0.112,-1.483,0.309,-4.139,-0.735,0.199,-9.642,0.000,0.000,0.0103675,0.000,9144.000,0.005,2.425,-121.808,-48.188,915.222,9.475,849.617,0.112,-9.666,-0.029,0.357,0.002,0.012,-0.017,0.000,0.000,0.000,-0.010,0.693,0.007,0.721,0.0000000,0.0000000,0.000,0.000,0.000,0.000,0,00:00:00,0,0.000,0.000,91519.656,9.474,0.000,0.000,0.297,-9.961,0.024,-0.024,-0.013,-0.001,0.000,0.000
21.778,0,0,-1.688,0.259,-0.039,-1.461,0.323,-3.880,-0.690,0.271,-9.841,0.000,0.000,0.0103675,0.000,9144.000,0.013,2.236,-126.725,-49.172,915.233,9.476,849.523,-0.039,-9.864,0.025,0.326,-0.010,-0.017,0.031,0.000,0.000,0.000,-0.009,0.694,0.009,0.720,0.0000000,0.0000000,0.000,0.000,0.000,0.000,0,00:00:00,0,0.000,0.000,91513.344,9.470,0.000,0.000,0.335,-9.835,-0.039,0.022,0.007,0.001,0.000,0.000
21.879,0,0,-1.661,0.264,0.236,-1.448,0.332,0.082,-0.756,0.237,-9.815,0.000,0.000,0.0103675,0.000,9144.000,0.012,2.114,-131.740,-50.153,915.206,9.474,849.768,0.236,-9.840,-0.016,0.373,-0.009,-0.029,-0.009,0.000,0.000,0.000,-0.009,0.693,0.009,0.721,0.0000000,0.0000000,0.000,0.000,0.000,0.000,0,00:00:00,0,0.000,0.000,91518.773,9.473,0.000,0.000,0.360,-9.800,0.055,0.020,0.009,-0.010,0.000,0.000
21.980,0,0,-1.636,0.270,0.221,-1.437,0.342,-35.706,-0.766,0.246,-9.814,0.000,0.000,0.0103675,0.000,9144.000,0.004,2.228,-136.854,-51.135,915.206,9.474,849.768,0.266,-9.840,-0.016,0.373,-0.009,-0.029,-0.009,0.000,0.000,0.000,-0.010,0.693,0.009,0.721,0.0000000,0.0000000,0.000,0.000,0.000,0.000,0,00:00:00,0,0.000,0.000,91518.773,9.473,0.000,0.000,0.360,-9.800,0.055,0.020,0.009,-0.010,0.000,0.000
22.081,0,0,-1.612,0.277,-0.318,-1.427,0.364,-8.100,-0.761,0.364,-9.850,0.000,0.000,0.0103675,0.000,9144.000,0.106,2.284,-142.066,-52.120,915.270,9.478,849.186,-0.318,-9.879,0.089,0.364,-0.011,-0.040,-0.021,0.000,0.000,0.000,-0.009,0.693,0.011,0.721,0.0000000,0.0000000,0.000,0.000,0.000,0.000,0,00:00:00,0,0.000,0.000,91524.203,9.476,0.000,0.000,0.421,-9.800,0.053,0.003,-0.004,0.005,0.000,0.000
22.182,0,0,-1.588,0.284,0.175,-1.397,0.372,1.986,-0.543,0.229,-9.978,0.000,0.000,0.0103675,0.000,9144.000,0.024,2.311,-147.378,-53.117,915.219,9.475,849.643,0.175,-9.993,-0.046,0.229,0.001,0.003,-0.026,0.000,0.000,0.000,-0.010,0.696,0.009,0.718,0.0000000,0.0000000,0.000,0.000,0.000,0.000,0,00:00:00,0,0.000,0.000,91529.188,9.479,0.000,0.000,0.329,-9.811,0.018,-0.005,-0.005,0.012,0.000,0.000
22.283,0,0,-1.565,0.292,-1.256,-1.384,0.384,-38.518,-0.702,0.270,-9.823,0.000,0.000,0.0103675,0.000,9144.000,0.007,1.803,-152.787,-54.100,915.241,9.476,849.452,-0.043,-9.845,-0.024,0.374,-0.024,0.026,0.002,0.000,0.000,0.000,-0.011,0.695,0.010,0.719,0.0000000,0.0000000,0.000,0.000,0.000,0.000,0,00:00:00,0,0.000,0.000,91522.562,9.475,0.000,0.000,0.340,-9.785,-0.042,-0.012,0.001,0.012,0.000,0.000
22.384,0,0,-1.542,0.301,0.287,-1.334,0.416,0.346,-0.327,0.482,-9.930,0.000,0.000,0.0103675,0.000,9144.000,0.115,1.913,-158.297,-55.093,915.200,9.474,849.816,0.287,-9.945,0.167,0.111,-0.016,0.004,-0.024,0.000,0.000,0.000,-0.009,0.699,0.013,0.715,0.0000000,0.0000000,0.000,0.000,0.000,0.000,0,00:00:00,0,0.000,0.000,91528.812,9.479,0.000,0.000,0.394,-9.850,-0.041,-0.014,-0.003,-0.009,0.000,0.000
22.485,0,0,-1.518,0.311,-0.201,-1.326,0.434,-40.020,-0.721,0.338,-9.712,0.000,0.000,0.0103675,0.000,9144.000,0.004,1.264,-163.903,-56.064,915.227,9.475,849.577,0.026,-9.736,0.048,0.419,0.021,0.024,0.013,0.000,0.000,0.000,-0.008,0.696,0.013,0.718,0.0000000,0.0000000,0.000,0.000,0.000,0.000,0,00:00:00,0,0.000,0.000,91529.680,9.480,0.000,0.000,0.356,-9.838,0.029,-0.006,-0.012,0.000,0.000,0.000
22.586,0,0,-1.495,0.322,-0.227,-1.305,0.436,-5.227,-0.587,0.195,-9.949,0.000,0.000,0.0103675,0.000,9144.000,0.119,1.793,-169.609,-57.059,915.254,9.477,849.332,-0.227,-9.963,-0.117,0.289,-0.019,0.006,-0.029,0.000,0.000,0.000,-0.012,0.696,0.010,0.718,0.0000000,0.0000000,0.000,0.000,0.000,0.000,0,00:00:00,0,0.000,0.000,91524.492,9.477,0.000,0.000,0.354,-9.744,0.027,-0.007,-0.014,0.000,0.000,0.000
22.687,0,0,-1.473,0.332,0.053,-1.299,0.457,-0.271,-0.712,0.378,-9.735,0.000,0.000,0.0103675,0.000,9144.000,0.016,1.710,-175.412,-58.032,915.225,9.475,849.595,0.053,-9.761,0.046,0.385,-0.025,0.021,0.022,0.000,0.000,0.000,-0.011,0.695,0.013,0.719,0.0000000,0.0000000,0.000,0.000,0.000,0.000,0,00:00:00,0,0.000,0.000,91532.016,9.481,0.000,0.000,0.390,-9.757,-0.057,0.002,-0.003,0.012,0.000,0.000
22.788,0,0,-1.452,0.344,-0.123,-1.289,0.490,-4.605,-0.669,0.510,-10.020,0.000,0.000,0.0103675,0.000,9144.000,0.004,1.926,-181.316,-59.034,915.247,9.477,849.393,-0.123,-10.048,0.186,0.337,0.021,-0.002,0.017,0.000,0.000,0.000,-0.007,0.695,0.015,0.719,0.0000000,0.0000000,0.000,0.000,0.000,0.000,0,00:00:00,0,0.000,0.000,91523.664,9.476,0.000,0.000,0.424,-9.759,0.070,0.002,-0.003,0.018,0.000,0.000
22.889,0,0,-1.433,0.356,0.293,-1.279,0.484,0.914,-0.655,0.128,-9.705,0.000,0.000,0.0103675,0.000,9144.000,0.014,1.928,-187.316,-60.005,915.198,9.474,849.840,0.293,-9.721,-0.208,0.319,-0.028,-0.027,-0.011,0.000,0.000,0.000,-0.014,0.695,0.010,0.719,0.0000000,0.0000000,0.000,0.000,0.000,0.000,0,00:00:00,0,0.000,0.000,91528.352,9.479,0.000,0.000,0.274,-9.712,-0.010,0.000,-0.007,-0.011,0.000,0.000
22.990,0,0,-1.415,0.367,-0.461,-1.270,0.480,-42.821,-0.661,0.152,-9.705,0.000,0.000,0.0103675,0.000,9144.000,0.005,1.982,-193.414,-60.975,915.198,9.474,849.840,0.247,-9.721,-0.208,0.319,-0.028,-0.027,-0.011,0.000,0.000,0.000,-0.018,0.694,0.009,0.719,0.0000000,0.0000000,0.000,0.000,0.000,0.000,0,00:00:00,0,0.000,0.000,91528.352,9.479,0.000,0.000,0.274,-9.712,-0.010,0.000,-0.007,-0.011,0.000,0.000
23.091,0,0,-1.398,0.377,-0.035,-1.273,0.491,-5.752,-0.761,0.308,-9.723,0.000,0.000,0.0103675,0.000,9144.000,0.127,2.007,-199.608,-61.948,915.233,9.476,849.519,-0.035,-9.750,-0.071,0.385,-0.017,-0.022,0.003,0.000,0.000,0.000,-0.017,0.693,0.010,0.720,0.0000000,0.0000000,0.000,0.000,0.000,0.000,0,00:00:00,0,0.000,0.000,91525.461,9.477,0.000,0.000,0.355,-9.774,0.054,-0.004,-0.006,-0.003,0.000,0.000
23.192,0,0,-1.383,0.387,0.053,-1.284,0.498,-2.310,-0.833,0.279,-9.734,0.000,0.000,0.0103675,0.000,9144.000,0.018,2.195,-205.901,-62.921,915.219,9.475,849.651,0.053,-9.763,-0.138,0.430,-0.039,0.004,0.021,0.000,0.000,0.000,-0.019,0.692,0.012,0.721,0.0000000,0.0000000,0.000,0.000,0.000,0.000,0,00:00:00,0,0.000,0.000,91519.086,9.473,0.000,0.000,0.377,-9.836,-0.029,-0.006,0.001,-0.018,0.000,0.000
23.293,0,0,-1.370,0.396,-0.231,-1.277,0.506,-5.873,-0.659,0.288,-9.894,0.000,0.000,0.0103675,0.000,9144.000,0.008,2.348,-212.292,-63.910,915.251,9.477,849.355,-0.231,-9.915,-0.134,0.302,0.004,-0.000,0.003,0.000,0.000,0.000,-0.019,0.694,0.011,0.720,0.0000000,0.0000000,0.000,0.000,0.000,0.000,0,00:00:00,0,0.000,0.000,91528.680,9.479,0.000,0.000,0.382,-9.828,0.081,0.001,0.017,-0.004,0.000,0.000
23.394,0,0,-1.358,0.406,-0.276,-1.274,0.532,-3.664,-0.684,0.461,-9.756,0.000,0.000,0.0103675,0.000,9144.000,0.018,2.045,-218.780,-64.886,915.254,9.477,849.335,-0.276,-9.785,0.033,0.322,-0.008,-0.054,0.045,0.000,0.000,0.000,-0.016,0.694,0.015,0.720,0.0000000,0.0000000,0.000,0.000,0.000,0.000,0,00:00:00,0,0.000,0.000,91520.680,9.474,0.000,0.000,0.351,-9.804,-0.033,-0.032,-0.015,0.002,0.000,0.000
23.495,0,0,-1.347,0.418,-0.277,-1.272,0.557,-3.302,-0.688,0.472,-9.755,0.000,0.000,0.0103675,0.000,9144.000,0.012,2.119,-225.366,-65.861,915.254,9.477,849.335,-0.277,-9.785,0.033,0.322,-0.008,-0.054,0.045,0.000,0.000,0.000,-0.014,0.694,0.017,0.720,0.0000000,0.0000000,0.000,0.000,0.000,0.000,0,00:00:00,0,0.000,0.000,91520.680,9.474,0.000,0.000,0.351,-9.804,-0.033,-0.032,-0.015,0.002,0.000,0.000
23.596,0,0,-1.337,0.431,-0.022,-1.264,0.582,-0.950,-0.618,0.471,-9.869,0.000,0.000,0.0103675,0.000,9144.000,0.011,2.156,-232.051,-66.848,915.230,9.476,849.546,-0.022,-9.895,0.010,0.290,-0.018,0.005,-0.007,0.000,0.000,0.000,-0.016,0.695,0.017,0.719,0.0000000,0.0000000,0.000,0.000,0.000,0.000,0,00:00:00,0,0.000,0.000,91525.367,9.477,0.000,0.000,0.337,-9.834,0.095,0.001,0.008,0.003,0.000,0.000
23.697,0,0,-1.328,0.445,-0.226,-1.292,0.612,-5.306,-0.976,0.533,-9.928,0.000,0.000,0.0103675,0.000,9144.000,0.005,1.905,-238.835,-67.841,915.253,9.477,849.340,-0.226,-9.974,0.053,0.554,-0.012,0.034,0.028,0.000,0.000,0.000,-0.015,0.692,0.019,0.722,0.0000000,0.0000000,0.000,0.000,0.000,0.000,0,00:00:00,0,0.000,0.000,91524.625,9.477,0.000,0.000,0.350,-9.777,-0.047,0.003,0.001,0.001,0.000,0.000
23.798,0,0,-1.320,0.460,0.028,-1.268,0.632,-1.057,-0.453,0.443,-9.755,0.000,0.000,0.0103675,0.000,9144.000,0.016,2.445,-245.717,-68.817,915.226,9.475,849.581,0.028,-9.774,0.007,0.167,0.032,0.008,-0.004,0.000,0.000,0.000,-0.015,0.696,0.017,0.717,0.0000000,0.0000000,0.000,0.000,0.000,0.000,0,00:00:00,0,0.000,0.000,91509.242,9.468,0.000,0.000,0.440,-9.799,0.018,-0.012,0.002,-0.009,0.000,0.000
23.899,0,0,-1.313,0.477,-0.062,-1.279,0.669,-4.335,-0.798,0.618,-9.708,0.000,0.000,0.0103675,0.000,9144.000,0.005,1.690,-252.696,-69.787,915.236,9.476,849.498,-0.062,-9.748,0.189,0.449,0.012,0.022,0.020,0.000,0.000,0.000,-0.011,0.694,0.020,0.720,0.0000000,0.0000000,0.000,0.000,0.000,0.000,0,00:00:00,0,0.000,0.000,91519.930,9.474,0.000,0.000,0.324,-9.847,0.059,-0.023,0.003,-0.017,0.000,0.000
24.000,0,0,-1.306,0.494,0.183,-1.263,0.680,-1.226,-0.528,0.359,-9.861,0.000,0.000,0.0103675,0.000,9144.000,0.014,2.099,-259.773,-70.774,915.208,9.474,849.751,0.183,-9.879,-0.052,0.223,0.019,-0.027,-0.017,0.000,0.000,0.000,-0.014,0.696,0.016,0.718,0.0000000,0.0000000,0.000,0.000,0.000,0.000,0,00:00:00,0,0.000,0.000,91522.344,9.475,0.000,0.000,0.305,-9.802,-0.008,-0.019,0.007,-0.014,0.000,0.000
24.101,0,0,-1.299,0.510,-0.126,-1.255,0.688,-6.495,-0.607,0.354,-9.831,0.000,0.000,0.0103675,0.000,9144.000,0.006,1.774,-266.949,-71.757,915.238,9.476,849.475,-0.126,-9.852,-0.053,0.302,0.002,-0.003,0.009,0.000,0.000,0.000,-0.015,0.696,0.014,0.718,0.0000000,0.0000000,0.000,0.000,0.000,0.000,0,00:00:00,0,0.000,0.000,91522.102,9.475,0.000,0.000,0.363,-9.744,-0.090,-0.004,0.013,0.017,0.000,0.000
24.202,0,0,-1.292,0.526,0.001,-1.254,0.712,-2.450,-0.671,0.514,-9.684,0.000,0.000,0.0103675,0.000,9144.000,0.020,1.774,-274.221,-72.725,915.224,9.475,849.602,0.001,-9.714,0.054,0.350,-0.061,0.006,-0.013,0.000,0.000,0.000,-0.016,0.695,0.018,0.719,0.0000000,0.0000000,0.000,0.000,0.000,0.000,0,00:00:00,0,0.000,0.000,91514.047,9.470,0.000,0.000,0.294,-9.726,0.025,-0.014,0.012,-0.008,0.000,0.000
24.303,0,0,-1.285,0.543,-0.144,-1.248,0.741,-5.046,-0.613,0.565,-9.782,0.000,0.000,0.0103675,0.000,9144.000,0.008,1.902,-281.592,-73.703,915.241,9.476,849.448,-0.144,-9.812,0.076,0.304,-0.025,0.005,-0.001,0.000,0.000,0.000,-0.016,0.696,0.019,0.718,0.0000000,0.0000000,0.000,0.000,0.000,0.000,0,00:00:00,0,0.000,0.000,91518.281,9.473,0.000,0.000,0.338,-9.817,-0.031,0.006,-0.009,-0.008,0.000,0.000
24.404,0,0,-1.279,0.561,0.203,-1.261,0.769,-0.466,-0.796,0.574,-9.862,0.000,0.000,0.0103675,0.000,9144.000,0.016,1.823,-289.060,-74.689,915.208,9.474,849.747,0.203,-9.902,0.084,0.422,0.007,-0.023,0.009,0.000,0.000,0.000,-0.015,0.693,0.020,0.720,0.0000000,0.0000000,0.000,0.000,0.000,0.000,0,00:00:00,0,0.000,0.000,91522.539,9.475,0.000,0.000,0.312,-9.834,0.004,-0.000,0.004,0.008,0.000,0.000
24.505,0,0,-1.275,0.579,0.147,-1.263,0.778,-4.318,-0.692,0.399,-9.831,0.000,0.000,0.0103675,0.000,9144.000,0.005,2.196,-296.628,-75.673,915.217,9.475,849.666,0.147,-9.857,-0.094,0.334,-0.009,-0.003,0.010,0.000,0.000,0.000,-0.018,0.694,0.018,0.720,0.0000000,0.0000000,0.000,0.000,0.000,0.000,0,00:00:00,0,0.000,0.000,91525.461,9.477,0.000,0.000,0.419,-9.693,0.099,-0.011,0.021,0.015,0.000,0.000
24.606,0,0,-1.271,0.597,-0.040,-1.258,0.793,-5.584,-0.622,0.456,-9.803,0.000,0.000,0.0103675,0.000,9144.000,0.014,2.079,-304.293,-76.653,915.235,9.476,849.501,-0.040,-9.829,-0.002,0.305,0.033,0.028,-0.025,0.000,0.000,0.000,-0.017,0.695,0.016,0.718,0.0000000,0.0000000,0.000,0.000,0.000,0.000,0,00:00:00,0,0.000,0.000,91519.055,9.473,0.000,0.000,0.303,-9.811,0.001,0.004,0.014,-0.003,0.000,0.000
24.707,0,0,-1.266,0.614,-0.001,-1.242,0.809,-3.517,-0.505,0.482,-9.643,0.000,0.000,0.0103675,0.000,9144.000,0.017,1.847,-312.055,-77.617,915.234,9.476,849.514,-0.001,-9.666,0.012,0.219,-0.019,-0.046,0.006,0.000,0.000,0.000,-0.017,0.696,0.017,0.717,0.0000000,0.0000000,0.000,0.000,0.000,0.000,0,00:00:00,0,0.000,0.000,91523.453,9.476,0.000,0.000,0.317,-9.778,0.000,0.002,-0.014,0.002,0.000,0.000
24.808,0,0,-1.260,0.631,-0.020,-1.225,0.826,-4.106,-0.492,0.501,-9.643,0.000,0.000,0.0103675,0.000,9144.000,0.011,1.702,-319.913,-78.581,915.234,9.476,849.514,-0.020,-9.666,0.012,0.219,-0.019,-0.046,0.006,0.000,0.000,0.000,-0.017,0.697,0.018,0.717,0.0000000,0.0000000,0.000,0.000,0.000,0.000,0,00:00:00,0,0.000,0.000,91523.453,9.476,0.000,0.000,0.317,-9.778,0.000,0.002,-0.014,0.002,0.000,0.000
24.909,0,0,-1.254,0.648,0.165,-1.237,0.833,-2.241,-0.781,0.411,-9.954,0.000,0.000,0.0103675,0.000,9144.000,0.013,1.629,-327.871,-79.577,915.217,9.475,849.665,0.165,-9.984,-0.039,0.427,0.054,0.004,-0.024,0.000,0.000,0.000,-0.017,0.694,0.015,0.719,0.0000000,0.0000000,0.000,0.000,0.000,0.000,0,00:00:00,0,0.000,0.000,91524.164,9.476,0.000,0.000,0.317,-9.770,0.078,-0.019,-0.018,-0.006,0.000,0.000
25.010,0,0,-1.250,0.663,-0.181,-1.237,0.831,-7.284,-0.648,0.322,-9.756,0.000,0.000,0.0103675,0.000,9144.000,0.008,2.027,-335.926,-80.552,915.256,9.477,849.310,-0.181,-9.777,-0.114,0.320,0.004,0.013,-0.011,0.000,0.000,0.000,-0.018,0.695,0.013,0.719,0.0000000,0.0000000,0.000,0.000,0.000,0.000,0,00:00:00,0,0.000,0.000,91517.172,9.472,0.000,0.000,0.348,-9.876,-0.091,-0.007,-0.013,-0.002,0.000,0.000
25.111,0,0,-1.245,0.678,0.057,-1.228,0.847,-1.836,-0.569,0.519,-9.873,0.000,0.000,0.0103675,0.000,9144.000,0.022,1.912,-344.080,-81.540,915.231,9.476,849.544,0.057,-9.899,0.074,0.280,-0.001,0.032,0.013,0.000,0.000,0.000,-0.015,0.697,0.016,0.717,0.0000000,0.0000000,0.000,0.000,0.000,0.000,0,00:00:00,0,0.000,0.000,91529.438,9.479,0.000,0.000,0.378,-9.867,-0.036,0.015,-0.000,0.006,0.000,0.000
25.212,0,0,-1.242,0.693,0.294,-1.240,0.872,-1.902,-0.775,0.609,-9.852,0.000,0.000,0.0103675,0.000,9144.000,0.007,1.676,-352.332,-82.525,915.205,9.474,849.775,0.294,-9.891,0.199,0.412,0.038,-0.041,-0.005,0.000,0.000,0.000,-0.011,0.694,0.018,0.720,0.0000000,0.0000000,0.000,0.000,0.000,0.000,0,00:00:00,0,0.000,0.000,91522.227,9.475,0.000,0.000,0.322,-9.772,-0.045,-0.002,0.003,0.006,0.000,0.000
25.313,0,0,-1.239,0.709,0.284,-1.257,0.892,-4.263,-0.814,0.573,-9.852,0.000,0.000,0.0103675,0.000,9144.000,0.007,2.148,-360.683,-83.510,915.205,9.474,849.775,0.284,-9.891,0.199,0.412,0.038,-0.041,-0.005,0.000,0.000,0.000,-0.008,0.692,0.019,0.721,0.0000000,0.0000000,0.000,0.000,0.000,0.000,0,00:00:00,0,0.000,0.000,91522.227,9.475,0.000,0.000,0.322,-9.772,-0.045,-0.002,0.003,0.006,0.000,0.000
25.414,0,0,-1.239,0.724,-0.106,-1.271,0.901,-7.896,-0.790,0.465,-9.709,0.000,0.000,0.0103675,0.000,9144.000,0.013,2.383,-369.131,-84.481,915.244,9.476,849.426,-0.106,-9.744,0.141,0.394,0.047,-0.012,0.018,0.000,0.000,0.000,-0.006,0.692,0.017,0.721,0.0000000,0.0000000,0.000,0.000,0.000,0.000,0,00:00:00,0,0.000,0.000,91514.781,9.471,0.000,0.000,0.368,-9.664,-0.036,0.005,-0.013,0.013,0.000,0.000
25.515,0,0,-1.238,0.739,-0.333,-1.244,0.905,-6.405,-0.385,0.429,-9.660,0.000,0.000,0.0103675,0.000,9144.000,0.024,2.380,-377.676,-85.447,915.265,9.478,849.233,-0.333,-9.675,0.121,0.138,0.009,0.033,0.008,0.000,0.000,0.000,-0.006,0.698,0.016,0.716,0.0000000,0.0000000,0.000,0.000,0.000,0.000,0,00:00:00,0,0.000,0.000,91521.711,9.475,0.000,0.000,0.365,-9.801,-0.062,0.002,-0.021,-0.006,0.000,0.000
25.616,0,0,-1.235,0.751,0.048,-1.247,0.880,-0.737,-0.682,0.156,-9.863,0.000,0.000,0.0103675,0.000,9144.000,0.020,1.502,-386.319,-86.433,915.223,9.475,849.609,0.048,-9.879,-0.135,0.372,0.022,0.011,-0.004,0.000,0.000,0.000,-0.010,0.696,0.011,0.718,0.0000000,0.0000000,0.000,0.000,0.000,0.000,0,00:00:00,0,0.000,0.000,91524.133,9.476,0.000,0.000,0.328,-9.858,0.068,-0.007,0.013,-0.021,0.000,0.000
25.717,0,0,-1.233,0.761,0.296,-1.235,0.882,-2.045,-0.531,0.419,-9.762,0.000,0.000,0.0103675,0.000,9144.000,0.005,1.797,-395.060,-87.409,915.194,9.474,849.874,0.296,-9.781,0.182,0.252,0.055,-0.009,0.022,0.000,0.000,0.000,-0.005,0.697,0.012,0.717,0.0000000,0.0000000,0.000,0.000,0.000,0.000,0,00:00:00,0,0.000,0.000,91528.680,9.479,0.000,0.000,0.385,-9.757,-0.059,0.001,-0.010,-0.007,0.000,0.000
25.818,0,0,-1.230,0.770,-0.157,-1.234,0.857,-8.678,-0.634,0.158,-9.746,0.000,0.000,0.0103675,0.000,9144.000,0.008,1.662,-403.899,-88.384,915.245,9.477,849.415,-0.157,-9.762,-0.048,0.327,0.027,-0.007,-0.045,0.000,0.000,0.000,-0.007,0.696,0.008,0.718,0.0000000,0.0000000,0.000,0.000,0.000,0.000,0,00:00:00,0,0.000,0.000,91518.016,9.473,0.000,0.000,0.374,-9.779,-0.102,0.005,0.013,0.005,0.000,0.000
25.919,0,0,-1.229,0.775,0.011,-1.249,0.829,-2.888,-0.794,0.122,-9.871,0.000,0.000,0.0103675,0.000,9144.000,0.026,1.808,-412.836,-89.371,915.224,9.475,849.599,0.011,-9.894,-0.108,0.422,-0.022,-0.012,0.022,0.000,0.000,0.000,-0.010,0.694,0.007,0.720,0.0000000,0.0000000,0.000,0.000,0.000,0.000,0,00:00:00,0,0.000,0.000,91519.227,9.473,0.000,0.000,0.425,-9.750,0.035,0.000,0.008,-0.012,0.000,0.000
26.020,0,0,-1.228,0.777,0.001,-1.251,0.812,-4.612,-0.665,0.247,-9.931,0.000,0.000,0.0103675,0.000,9144.000,0.010,2.157,-421.872,-90.364,915.230,9.476,849.545,0.001,-9.951,0.018,0.316,0.004,-0.009,0.011,0.000,0.000,0.000,-0.008,0.695,0.008,0.719,0.0000000,0.0000000,0.000,0.000,0.000,0.000,0,00:00:00,0,0.000,0.000,91523.672,9.476,0.000,0.000,0.428,-9.796,0.009,-0.008,-0.006,0.000,0.000,0.000
26.121,0,0,-1.227,0.778,0.070,-1.250,0.802,-3.921,-0.633,0.308,-9.903,0.000,0.000,0.0103675,0.000,9144.000,0.014,2.012,-431.008,-91.354,915.222,9.475,849.621,0.070,-9.922,0.086,0.307,0.008,0.002,-0.001,0.000,0.000,0.000,-0.006,0.695,0.009,0.719,0.0000000,0.0000000,0.000,0.000,0.000,0.000,0,00:00:00,0,0.000,0.000,91522.320,9.475,0.000,0.000,0.305,-9.809,0.024,0.020,0.005,0.002,0.000,0.000
26.222,0,0,-1.225,0.778,0.025,-1.218,0.793,-5.040,-0.327,0.323,-9.913,0.000,0.000,0.0103675,0.000,9144.000,0.012,1.888,-440.242,-92.346,915.225,9.475,849.593,0.025,-9.922,0.098,0.117,-0.004,0.019,-0.006,0.000,0.000,0.000,-0.006,0.699,0.010,0.715,0.0000000,0.0000000,0.000,0.000,0.000,0.000,0,00:00:00,0,0.000,0.000,91534.008,9.482,0.000,0.000,0.345,-9.812,0.058,0.013,0.003,-0.015,0.000,0.000
26.323,0,0,-1.221,0.777,-0.034,-1.208,0.783,-5.223,-0.541,0.308,-9.648,0.000,0.000,0.0103675,0.000,9144.000,0.016,1.228,-449.573,-93.311,915.228,9.476,849.567,-0.034,-9.663,0.114,0.301,0.030,0.021,0.013,0.000,0.000,0.000,-0.003,0.698,0.011,0.716,0.0000000,0.0000000,0.000,0.000,0.000,0.000,0,00:00:00,0,0.000,0.000,91524.781,9.477,0.000,0.000,0.283,-9.802,0.003,0.011,0.011,0.002,0.000,0.000
26.424,0,0,-1.216,0.775,-0.255,-1.195,0.761,-6.788,-0.511,0.184,-9.722,0.000,0.000,0.0103675,0.000,9144.000,0.016,1.445,-459.002,-94.283,915.256,9.477,849.314,-0.255,-9.734,-0.043,0.243,-0.036,-0.050,-0.000,0.000,0.000,0.000,-0.007,0.697,0.009,0.717,0.0000000,0.0000000,0.000,0.000,0.000,0.000,0,00:00:00,0,0.000,0.000,91531.969,9.481,0.000,0.000,0.312,-9.836,-0.035,-0.011,-0.008,0.006,0.000,0.000
26.525,0,0,-1.210,0.771,-0.218,-1.172,0.738,-4.413,-0.409,0.181,-9.816,0.000,0.000,0.0103675,0.000,9144.000,0.021,1.583,-468.528,-95.264,915.257,9.477,849.308,-0.218,-9.824,-0.053,0.182,-0.005,-0.002,0.016,0.000,0.000,0.000,-0.009,0.699,0.008,0.715,0.0000000,0.0000000,0.000,0.000,0.000,0.000,0,00:00:00,0,0.000,0.000,91511.211,9.469,0.000,0.000,0.265,-9.871,-0.012,-0.013,-0.007,-0.000,0.000,0.000
26.626,0,0,-1.203,0.765,0.080,-1.157,0.729,-2.009,-0.482,0.316,-9.780,0.000,0.000,0.0103675,0.000,9144.000,0.014,1.327,-478.152,-96.242,915.222,9.475,849.617,0.080,-9.794,0.065,0.248,-0.017,0.004,0.009,0.000,0.000,0.000,-0.008,0.699,0.010,0.715,0.0000000,0.0000000,0.000,0.000,0.000,0.000,0,00:00:00,0,0.000,0.000,91532.305,9.481,0.000,0.000,0.415,-9.822,0.013,-0.014,0.002,0.003,0.000,0.000
26.727,0,0,-1.195,0.760,0.044,-1.142,0.722,-5.199,-0.486,0.333,-9.779,0.000,0.000,0.0103675,0.000,9144.000,0.007,1.379,-487.874,-97.220,915.222,9.475,849.617,0.044,-9.794,0.065,0.248,-0.017,0.004,0.009,0.000,0.000,0.000,-0.008,0.698,0.012,0.716,0.0000000,0.0000000,0.000,0.000,0.000,0.000,0,00:00:00,0,0.000,0.000,91532.305,9.481,0.000,0.000,0.415,-9.822,0.013,-0.014,0.002,0.003,0.000,0.000
