State - Time (s),State - Stage,State - Stage,State - PX (m),State - PY (m),State - PZ (m),State - VX (m/s),State - VY (m/s),State - VZ (m/s),State - AX (m/s/s),State - AY (m/s/s),State - AZ (m/s/s),State - Actuation Angle (deg),State - Acutal Angle (deg),State - CdA,State - Est Apo (m),State - Target Apogee (m),State - Mach Number,State - Tilt [deg],State - Pos - Accel Integrated [m],State - Velo - Accel Integrated [m/s],MockBarometer - Pres (hPa),MockBarometer - Temp (C),MockBarometer - Alt ASL (m),MockBarometer - Alt AGL (m),MockIMU - AccX (m/s^2),MockIMU - AccY (m/s^2),MockIMU - AccZ (m/s^2),MockIMU - GyroX (rad/s),MockIMU - GyroY (rad/s),MockIMU - GyroZ (rad/s),MockIMU - MagX (uT),MockIMU - MagY (uT),MockIMU - MagZ (uT),MockIMU - OriX,MockIMU - OriY,MockIMU - OriZ,MockIMU - OriW,MockGPS - Lat,MockGPS - Lon,MockGPS - Alt (m),MockGPS - Disp X (m),MockGPS - Disp Y (m),MockGPS - Disp Z (m),MockGPS - Fix Quality,MockGPS - Time of Day,E5 - Rel Steps,MockBR - Battery Voltage (V),MockBR - ALT (m),MockBR - PRES (Pa),MockBR - TEMP (C),MockBR - VEL (m/s),MockBR - ANG (deg),MockBR - ACCX (m/s^2),MockBR - ACCY (m/s^2),MockBR - ACCZ (m/s^2),MockBR - GYROX (rad/s),MockBR - GYROY (rad/s),MockBR - GYROZ (rad/s),MockBR - ROLL (deg),MockBR - TILT (deg)
19.508,0,0,0.000,0.000,0.000,0.000,0.000,0.000,0.000,0.000,0.000,0.000,0.000,0.0103675,0.000,9144.000,0.000,0.000,0.098,0.981,0.000,0.000,44307.690,0.000,0.000,0.000,0.000,0.000,0.000,0.000,0.000,0.000,0.000,0.000,0.000,0.000,1.000,0.0000000,0.0000000,0.000,0.000,0.000,0.000,0,00:00:00,-791,0.000,0.000,0.000,0.000,0.000,0.000,0.000,0.000,0.000,0.000,0.000,0.000,0.000,0.000
19.609,0,0,-0.000,-0.000,-5369.820,-0.724,-0.003,-551.193,-7.204,-0.031,-6.654,0.000,0.000,0.0103675,0.000,9144.000,0.000,90.000,0.228,1.297,915.189,9.473,849.921,-5369.938,-9.803,-0.038,0.254,-0.001,-0.016,-0.004,0.000,0.000,0.000,-0.001,0.376,-0.000,0.926,0.0000000,0.0000000,0.000,0.000,0.000,0.000,0,00:00:00,-791,0.000,0.000,91522.062,9.475,0.000,0.000,0.327,-9.884,0.038,-0.002,0.001,0.003,0.000,0.000
19.710,0,0,-0.047,-0.000,-4315.022,-1.146,0.001,-438.695,-4.227,0.036,-8.745,0.000,0.000,0.0103675,0.000,9144.000,1.639,45.788,0.368,1.403,915.256,9.477,849.313,-3227.165,-9.708,-0.012,0.325,-0.014,-0.009,0.039,0.000,0.000,0.000,-0.002,0.546,0.002,0.838,0.0000000,0.0000000,0.000,0.000,0.000,0.000,0,00:00:00,-791,0.000,0.000,91523.492,9.476,0.000,0.000,0.334,-9.824,0.029,0.019,-0.013,0.009,0.000,0.000
19.811,0,0,-0.116,0.000,-3663.748,-1.400,0.006,-366.755,-2.574,0.053,-9.151,0.000,0.000,0.0103675,0.000,9144.000,1.304,23.879,0.515,1.469,915.232,9.476,849.526,-2315.072,-9.497,0.032,0.415,0.021,-0.006,-0.027,0.000,0.000,0.000,-0.001,0.621,0.001,0.784,0.0000000,0.0000000,0.000,0.000,0.000,0.000,0,00:00:00,-791,0.000,0.000,91526.484,9.478,0.000,0.000,0.338,-9.799,0.001,-0.000,-0.009,0.009,0.000,0.000
19.912,0,0,-0.197,0.001,-3212.079,-1.564,0.023,-312.649,-1.699,0.175,-9.521,0.000,0.000,0.0103675,0.000,9144.000,1.090,13.209,0.665,1.498,915.249,9.477,849.373,-1806.795,-9.664,0.116,0.396,-0.041,0.002,-0.008,0.000,0.000,0.000,0.000,0.658,0.004,0.753,0.0000000,0.0000000,0.000,0.000,0.000,0.000,0,00:00:00,-791,0.000,0.000,91522.359,9.475,0.000,0.000,0.338,-9.794,0.068,0.016,-0.013,0.001,0.000,0.000
20.013,0,0,-0.286,0.003,-2875.281,-1.671,0.024,-266.545,-1.131,0.008,-9.769,0.000,0.000,0.0103675,0.000,9144.000,0.929,7.774,0.815,1.502,915.209,9.474,849.734,-1481.673,-9.830,-0.025,0.309,0.021,-0.007,-0.023,0.000,0.000,0.000,-0.001,0.677,0.001,0.736,0.0000000,0.0000000,0.000,0.000,0.000,0.000,0,00:00:00,-791,0.000,0.000,91521.742,9.475,0.000,0.000,0.357,-9.744,0.011,-0.003,-0.006,-0.007,0.000,0.000
20.114,0,0,-0.379,0.004,-2610.894,-1.751,0.023,-223.315,-0.878,-0.015,-9.795,0.000,0.000,0.0103675,0.000,9144.000,0.792,4.806,0.965,1.503,915.209,9.474,849.734,-1256.082,-9.830,-0.025,0.309,0.021,-0.007,-0.023,0.000,0.000,0.000,-0.001,0.686,-0.000,0.727,0.0000000,0.0000000,0.000,0.000,0.000,0.000,0,00:00:00,-791,0.000,0.000,91521.742,9.475,0.000,0.000,0.357,-9.744,0.011,-0.003,-0.006,-0.007,0.000,0.000
20.215,0,0,-0.472,0.006,-2394.703,-1.764,0.037,-180.000,-0.224,0.141,-9.832,0.000,0.000,0.0103675,0.000,9144.000,0.664,3.321,1.115,1.501,915.254,9.477,849.332,-1090.542,-9.835,0.119,-0.038,-0.013,0.009,-0.035,0.000,0.000,0.000,0.000,0.698,0.002,0.716,0.0000000,0.0000000,0.000,0.000,0.000,0.000,0,00:00:00,-791,0.000,0.000,91524.523,9.477,0.000,0.000,0.350,-9.775,-0.030,0.006,-0.006,-0.001,0.000,0.000
20.316,0,0,-0.566,0.009,-2211.485,-1.827,0.043,-134.768,-0.730,0.060,-9.709,0.000,0.000,0.0103675,0.000,9144.000,0.535,1.525,1.267,1.511,915.226,9.475,849.584,-963.141,-9.728,0.020,0.395,-0.018,-0.019,-0.004,0.000,0.000,0.000,-0.001,0.695,0.002,0.719,0.0000000,0.0000000,0.000,0.000,0.000,0.000,0,00:00:00,-791,0.000,0.000,91519.953,9.474,0.000,0.000,0.361,-9.827,-0.041,-0.006,0.008,0.013,0.000,0.000
20.417,0,0,-0.660,0.012,-2051.259,-1.849,0.051,-86.612,-0.341,0.086,-9.713,0.000,0.000,0.0103675,0.000,9144.000,0.401,1.978,1.419,1.521,915.253,9.477,849.340,-862.791,-9.719,0.007,0.117,-0.042,0.003,-0.020,0.000,0.000,0.000,-0.003,0.699,0.003,0.715,0.0000000,0.0000000,0.000,0.000,0.000,0.000,0,00:00:00,-791,0.000,0.000,91518.969,9.473,0.000,0.000,0.336,-9.765,0.080,-0.010,0.002,-0.018,0.000,0.000
20.518,0,0,-0.756,0.015,-1916.716,-1.898,0.056,-38.363,-0.625,0.053,-9.503,0.000,0.000,0.0103675,0.000,9144.000,0.258,1.324,1.574,1.552,915.217,9.475,849.668,-862.464,-9.517,-0.026,0.346,-0.000,0.010,0.031,0.000,0.000,0.000,-0.003,0.697,0.003,0.717,0.0000000,0.0000000,0.000,0.000,0.000,0.000,0,00:00:00,-791,0.000,0.000,91527.320,9.478,0.000,0.000,0.337,-9.834,0.026,-0.004,0.009,0.023,0.000,0.000
20.619,0,0,-0.852,0.019,-1799.669,-1.931,0.050,10.102,-0.493,-0.061,-9.781,0.000,0.000,0.0103675,0.000,9144.000,0.114,1.676,1.729,1.555,915.266,9.478,849.223,-862.909,-9.790,-0.139,0.239,0.001,0.016,-0.020,0.000,0.000,0.000,-0.006,0.698,0.000,0.716,0.0000000,0.0000000,0.000,0.000,0.000,0.000,0,00:00:00,-791,0.000,0.000,91521.742,9.475,0.000,0.000,0.361,-9.882,-0.000,-0.014,0.007,0.008,0.000,0.000
20.720,0,0,-0.949,0.022,-1694.627,-1.975,0.055,58.608,-0.620,0.060,-9.911,0.000,0.000,0.0103675,0.000,9144.000,0.031,1.489,1.884,1.545,915.221,9.475,849.631,-862.500,-9.926,-0.021,0.326,-0.002,-0.003,0.006,0.000,0.000,0.000,-0.005,0.697,0.001,0.717,0.0000000,0.0000000,0.000,0.000,0.000,0.000,0,00:00:00,-791,0.000,0.000,91512.766,9.470,0.000,0.000,0.358,-9.700,0.047,-0.017,-0.004,0.001,0.000,0.000
20.821,0,0,-1.047,0.025,-1598.114,-2.030,0.053,106.614,-0.753,-0.014,-9.797,0.000,0.000,0.0103675,0.000,9144.000,0.174,1.695,2.038,1.546,915.205,9.474,849.775,-862.356,-9.817,-0.076,0.407,0.017,0.003,0.002,0.000,0.000,0.000,-0.005,0.694,0.000,0.719,0.0000000,0.0000000,0.000,0.000,0.000,0.000,0,00:00:00,-791,0.000,0.000,91515.383,9.471,0.000,0.000,0.306,-9.892,0.092,0.015,-0.009,-0.014,0.000,0.000
20.922,0,0,-1.147,0.028,-1507.964,-2.074,0.066,153.294,-0.694,0.133,-9.852,0.000,0.000,0.0103675,0.000,9144.000,0.317,2.025,2.193,1.542,915.246,9.477,849.406,-862.725,-9.871,0.077,0.355,0.008,0.026,-0.017,0.000,0.000,0.000,-0.002,0.695,0.002,0.719,0.0000000,0.0000000,0.000,0.000,0.000,0.000,0,00:00:00,-791,0.000,0.000,91519.117,9.473,0.000,0.000,0.387,-9.781,-0.064,-0.010,0.005,-0.007,0.000,0.000
21.023,0,0,-1.246,0.033,-1422.815,-2.109,0.081,197.809,-0.632,0.156,-9.654,0.000,0.000,0.0103675,0.000,9144.000,0.456,1.970,2.348,1.557,915.220,9.475,849.638,-862.493,-9.670,0.118,0.329,0.019,0.053,-0.025,0.000,0.000,0.000,0.000,0.696,0.003,0.718,0.0000000,0.0000000,0.000,0.000,0.000,0.000,0,00:00:00,-791,0.000,0.000,91527.234,9.478,0.000,0.000,0.398,-9.782,-0.044,-0.011,-0.012,0.002,0.000,0.000
21.124,0,0,-1.343,0.038,-1342.061,-2.138,0.094,239.177,-0.618,0.138,-9.655,0.000,0.000,0.0103675,0.000,9144.000,0.588,1.805,2.506,1.573,915.220,9.475,849.638,-862.493,-9.670,0.118,0.329,0.019,0.053,-0.025,0.000,0.000,0.000,0.002,0.696,0.003,0.718,0.0000000,0.0000000,0.000,0.000,0.000,0.000,0,00:00:00,-791,0.000,0.000,91527.234,9.478,0.000,0.000,0.398,-9.782,-0.044,-0.011,-0.012,0.002,0.000,0.000
21.225,0,0,-1.437,0.045,-1265.584,-2.144,0.114,276.477,-0.438,0.203,-9.650,0.000,0.000,0.0103675,0.000,9144.000,0.711,1.723,2.664,1.589,915.261,9.477,849.268,-862.864,-9.658,0.182,0.190,-0.000,-0.022,0.026,0.000,0.000,0.000,0.004,0.698,0.006,0.716,0.0000000,0.0000000,0.000,0.000,0.000,0.000,0,00:00:00,-791,0.000,0.000,91522.688,9.475,0.000,0.000,0.419,-9.844,-0.090,0.011,0.010,0.011,0.000,0.000
21.326,0,0,-1.527,0.052,-1193.497,-2.159,0.117,308.961,-0.580,0.050,-9.776,0.000,0.000,0.0103675,0.000,9144.000,0.822,1.490,2.824,1.592,915.272,9.478,849.171,-862.961,-9.789,0.036,0.309,0.007,0.020,-0.015,0.000,0.000,0.000,0.003,0.697,0.003,0.717,0.0000000,0.0000000,0.000,0.000,0.000,0.000,0,00:00:00,-791,0.000,0.000,91524.047,9.476,0.000,0.000,0.234,-9.841,-0.128,-0.000,0.005,0.001,0.000,0.000
21.427,0,0,-1.613,0.059,-1126.038,-2.167,0.122,336.134,-0.562,0.064,-9.753,0.000,0.000,0.0103675,0.000,9144.000,0.918,1.591,2.983,1.598,915.223,9.475,849.615,-862.516,-9.765,0.019,0.281,-0.032,-0.011,0.016,0.000,0.000,0.000,0.001,0.697,0.004,0.717,0.0000000,0.0000000,0.000,0.000,0.000,0.000,0,00:00:00,-791,0.000,0.000,91524.023,9.476,0.000,0.000,0.378,-9.801,-0.038,-0.003,0.008,-0.010,0.000,0.000
21.528,0,0,-1.694,0.067,-956.482,-2.169,0.129,442.021,-0.567,0.096,-9.752,0.000,0.000,0.0103675,0.000,9144.000,0.999,1.651,3.144,1.604,915.223,9.475,849.615,0.063,-9.765,0.019,0.281,-0.032,-0.011,0.016,0.000,0.000,0.000,-0.001,0.697,0.004,0.717,0.0000000,0.0000000,0.000,0.000,0.000,0.000,0,00:00:00,-791,0.000,0.000,91524.023,9.476,0.000,0.000,0.378,-9.801,-0.038,-0.003,0.008,-0.010,0.000,0.000
21.629,0,0,-1.769,0.074,-795.911,-2.182,0.135,533.207,-0.730,0.079,-9.818,0.000,0.000,0.0103675,0.000,9144.000,1.314,1.681,3.304,1.603,915.261,9.477,849.272,-0.210,-9.838,0.016,0.395,0.013,0.011,-0.014,0.000,0.000,0.000,-0.001,0.695,0.003,0.719,0.0000000,0.0000000,0.000,0.000,0.000,0.000,0,00:00:00,-791,0.000,0.000,91517.516,9.472,0.000,0.000,0.339,-9.714,-0.042,0.006,-0.006,0.018,0.000,0.000
21.730,0,0,-1.838,0.081,-645.631,-2.172,0.141,609.179,-0.557,0.094,-9.804,0.000,0.000,0.0103675,0.000,9144.000,1.585,1.958,3.464,1.603,915.235,9.476,849.500,-0.015,-9.816,0.042,0.272,0.010,0.036,-0.008,0.000,0.000,0.000,-0.001,0.697,0.003,0.717,0.0000000,0.0000000,0.000,0.000,0.000,0.000,0,00:00:00,-791,0.000,0.000,91526.172,9.478,0.000,0.000,0.346,-9.849,-0.038,0.017,-0.003,-0.024,0.000,0.000
21.831,0,0,-1.899,0.089,-506.756,-2.161,0.151,669.921,-0.607,0.127,-9.871,0.000,0.000,0.0103675,0.000,9144.000,1.811,1.668,3.624,1.597,915.239,9.476,849.469,-0.071,-9.886,0.065,0.314,-0.007,0.014,0.018,0.000,0.000,0.000,-0.000,0.697,0.004,0.718,0.0000000,0.0000000,0.000,0.000,0.000,0.000,0,00:00:00,-791,0.000,0.000,91520.531,9.474,0.000,0.000,0.346,-9.758,-0.050,-0.001,-0.008,0.006,0.000,0.000
21.932,0,0,-1.955,0.096,-380.038,-2.172,0.156,715.960,-0.889,0.086,-9.699,0.000,0.000,0.0103675,0.000,9144.000,1.991,1.703,3.785,1.608,915.267,9.478,849.212,-0.331,-9.727,0.026,0.500,0.002,0.010,0.012,0.000,0.000,0.000,-0.000,0.693,0.004,0.721,0.0000000,0.0000000,0.000,0.000,0.000,0.000,0,00:00:00,-791,0.000,0.000,91515.867,9.471,0.000,0.000,0.403,-9.703,0.100,-0.016,-0.014,-0.007,0.000,0.000
22.033,0,0,-2.004,0.103,-265.731,-2.155,0.160,748.258,-0.660,0.082,-9.862,0.000,0.000,0.0103675,0.000,9144.000,2.128,2.294,3.945,1.603,915.215,9.475,849.683,0.150,-9.880,0.028,0.311,0.006,0.005,0.008,0.000,0.000,0.000,-0.000,0.694,0.003,0.720,0.0000000,0.0000000,0.000,0.000,0.000,0.000,0,00:00:00,-791,0.000,0.000,91519.945,9.474,0.000,0.000,0.391,-9.812,0.015,0.007,-0.001,0.022,0.000,0.000
22.134,0,0,-2.044,0.110,-163.926,-2.130,0.163,767.956,-0.638,0.076,-9.864,0.000,0.000,0.0103675,0.000,9144.000,2.224,2.033,4.105,1.598,915.215,9.475,849.683,0.160,-9.880,0.028,0.311,0.006,0.005,0.008,0.000,0.000,0.000,-0.000,0.695,0.003,0.719,0.0000000,0.0000000,0.000,0.000,0.000,0.000,0,00:00:00,-791,0.000,0.000,91519.945,9.474,0.000,0.000,0.391,-9.812,0.015,0.007,-0.001,0.022,0.000,0.000
22.235,0,0,-2.077,0.116,-74.356,-2.100,0.164,776.395,-0.627,0.070,-9.864,0.000,0.000,0.0103675,0.000,9144.000,2.283,1.902,4.264,1.592,915.215,9.475,849.683,0.166,-9.880,0.028,0.311,0.006,0.005,0.008,0.000,0.000,0.000,-0.000,0.696,0.003,0.718,0.0000000,0.0000000,0.000,0.000,0.000,0.000,0,00:00:00,-791,0.000,0.000,91519.945,9.474,0.000,0.000,0.391,-9.812,0.015,0.007,-0.001,0.022,0.000,0.000
22.336,0,0,-2.102,0.122,3.397,-2.094,0.162,774.938,-0.910,0.032,-9.702,0.000,0.000,0.0103675,0.000,9144.000,2.308,1.837,4.425,1.603,915.278,9.479,849.111,-0.365,-9.732,-0.030,0.499,-0.021,-0.012,0.002,0.000,0.000,0.000,-0.002,0.692,0.002,0.722,0.0000000,0.0000000,0.000,0.000,0.000,0.000,0,00:00:00,-791,0.000,0.000,91513.258,9.470,0.000,0.000,0.314,-9.737,0.045,-0.005,-0.005,-0.002,0.000,0.000
22.437,0,0,-2.121,0.127,70.136,-2.088,0.168,765.073,-0.954,0.122,-9.856,0.000,0.000,0.0103675,0.000,9144.000,2.304,2.422,4.584,1.599,915.222,9.475,849.624,0.120,-9.889,0.057,0.509,0.002,0.033,0.047,0.000,0.000,0.000,-0.000,0.691,0.004,0.723,0.0000000,0.0000000,0.000,0.000,0.000,0.000,0,00:00:00,-791,0.000,0.000,91528.055,9.479,0.000,0.000,0.321,-9.866,0.072,0.010,-0.020,-0.001,0.000,0.000
22.538,0,0,-2.134,0.132,126.536,-2.045,0.163,748.104,-0.610,0.014,-9.649,0.000,0.000,0.0103675,0.000,9144.000,2.274,2.589,4.746,1.615,915.234,9.476,849.512,0.014,-9.665,-0.064,0.258,-0.019,-0.012,-0.021,0.000,0.000,0.000,-0.003,0.694,0.002,0.720,0.0000000,0.0000000,0.000,0.000,0.000,0.000,0,00:00:00,-791,0.000,0.000,91517.625,9.472,0.000,0.000,0.297,-9.787,-0.036,0.006,0.001,0.001,0.000,0.000
22.639,0,0,-2.138,0.136,173.445,-1.982,0.160,725.266,-0.445,0.040,-9.823,0.000,0.000,0.0103675,0.000,9144.000,2.224,2.093,4.907,1.613,915.223,9.475,849.608,0.105,-9.832,0.003,0.178,0.045,0.002,0.022,0.000,0.000,0.000,-0.001,0.697,0.001,0.717,0.0000000,0.0000000,0.000,0.000,0.000,0.000,0,00:00:00,-791,0.000,0.000,91523.469,9.476,0.000,0.000,0.300,-9.663,-0.001,-0.011,0.008,-0.009,0.000,0.000
22.740,0,0,-2.134,0.138,211.709,-1.937,0.137,697.739,-0.636,-0.161,-9.582,0.000,0.000,0.0103675,0.000,9144.000,2.156,1.559,5.071,1.636,915.214,9.475,849.696,0.207,-9.598,-0.167,0.322,0.029,-0.051,0.008,0.000,0.000,0.000,-0.003,0.695,-0.002,0.719,0.0000000,0.0000000,0.000,0.000,0.000,0.000,0,00:00:00,-791,0.000,0.000,91527.477,9.478,0.000,0.000,0.398,-9.749,0.008,0.013,0.019,0.001,0.000,0.000
22.841,0,0,-2.124,0.138,242.106,-1.899,0.130,666.464,-0.724,0.008,-9.709,0.000,0.000,0.0103675,0.000,9144.000,2.074,1.887,5.235,1.646,915.249,9.477,849.373,-0.087,-9.729,0.025,0.366,0.022,-0.031,-0.051,0.000,0.000,0.000,-0.001,0.694,-0.002,0.720,0.0000000,0.0000000,0.000,0.000,0.000,0.000,0,00:00:00,-791,0.000,0.000,91515.680,9.471,0.000,0.000,0.365,-9.793,-0.049,-0.008,0.011,0.017,0.000,0.000
22.942,0,0,-2.108,0.137,265.548,-1.843,0.111,632.425,-0.551,-0.117,-9.848,0.000,0.000,0.0103675,0.000,9144.000,1.981,2.110,5.400,1.642,915.207,9.474,849.760,0.321,-9.860,-0.126,0.255,-0.028,0.023,-0.016,0.000,0.000,0.000,-0.004,0.696,-0.003,0.718,0.0000000,0.0000000,0.000,0.000,0.000,0.000,0,00:00:00,-791,0.000,0.000,91526.516,9.478,0.000,0.000,0.339,-9.781,-0.075,0.013,0.003,-0.012,0.000,0.000
23.043,0,0,-2.086,0.134,282.726,-1.783,0.094,596.375,-0.504,-0.099,-9.715,0.000,0.000,0.0103675,0.000,9144.000,1.880,1.729,5.565,1.652,915.223,9.475,849.613,0.169,-9.725,-0.104,0.243,0.005,0.011,0.018,0.000,0.000,0.000,-0.004,0.697,-0.003,0.717,0.0000000,0.0000000,0.000,0.000,0.000,0.000,0,00:00:00,-791,0.000,0.000,91523.578,9.476,0.000,0.000,0.342,-9.791,-0.052,-0.003,0.007,-0.002,0.000,0.000
23.144,0,0,-2.059,0.131,294.374,-1.736,0.096,558.985,-0.639,0.087,-9.853,0.000,0.000,0.0103675,0.000,9144.000,1.773,1.547,5.730,1.648,915.234,9.476,849.515,0.066,-9.868,0.064,0.341,-0.016,0.009,0.007,0.000,0.000,0.000,-0.001,0.696,0.000,0.718,0.0000000,0.0000000,0.000,0.000,0.000,0.000,0,00:00:00,-791,0.000,0.000,91518.727,9.473,0.000,0.000,0.345,-9.796,-0.022,-0.011,-0.022,0.009,0.000,0.000
23.245,0,0,-2.029,0.127,301.210,-1.691,0.088,520.923,-0.643,-0.007,-9.547,0.000,0.000,0.0103675,0.000,9144.000,1.662,1.736,5.897,1.674,915.210,9.474,849.730,0.239,-9.563,-0.042,0.335,-0.015,0.009,-0.030,0.000,0.000,0.000,-0.003,0.696,-0.000,0.718,0.0000000,0.0000000,0.000,0.000,0.000,0.000,0,00:00:00,-791,0.000,0.000,91532.578,9.481,0.000,0.000,0.328,-9.803,0.100,-0.001,0.008,0.013,0.000,0.000
23.346,0,0,-1.995,0.123,303.748,-1.641,0.079,482.563,-0.581,-0.027,-9.712,0.000,0.000,0.0103675,0.000,9144.000,1.549,1.845,6.065,1.684,915.280,9.479,849.093,-0.391,-9.725,-0.037,0.283,0.027,0.000,0.012,0.000,0.000,0.000,-0.002,0.696,-0.001,0.718,0.0000000,0.0000000,0.000,0.000,0.000,0.000,0,00:00:00,-791,0.000,0.000,91529.133,9.479,0.000,0.000,0.296,-9.835,0.008,0.004,0.005,0.004,0.000,0.000
23.447,0,0,-1.959,0.119,302.719,-1.604,0.084,444.474,-0.697,0.112,-9.744,0.000,0.000,0.0103675,0.000,9144.000,1.435,1.756,6.234,1.690,915.232,9.476,849.527,0.042,-9.762,0.104,0.363,0.006,-0.008,0.022,0.000,0.000,0.000,0.001,0.695,0.002,0.719,0.0000000,0.0000000,0.000,0.000,0.000,0.000,0,00:00:00,-791,0.000,0.000,91523.367,9.476,0.000,0.000,0.210,-9.790,-0.088,-0.006,0.022,0.001,0.000,0.000
23.548,0,0,-1.922,0.116,298.600,-1.564,0.079,406.965,-0.656,0.012,-9.881,0.000,0.000,0.0103675,0.000,9144.000,1.321,1.965,6.403,1.683,915.223,9.475,849.611,0.136,-9.897,0.003,0.328,-0.003,0.010,-0.005,0.000,0.000,0.000,0.001,0.695,0.001,0.719,0.0000000,0.0000000,0.000,0.000,0.000,0.000,0,00:00:00,-791,0.000,0.000,91519.297,9.473,0.000,0.000,0.314,-9.859,0.016,0.009,-0.020,0.007,0.000,0.000
23.649,0,0,-1.884,0.111,291.821,-1.530,0.058,370.334,-0.689,-0.141,-9.701,0.000,0.000,0.0103675,0.000,9144.000,1.210,1.902,6.572,1.694,915.249,9.477,849.379,-0.130,-9.719,-0.134,0.358,0.015,0.016,0.015,0.000,0.000,0.000,-0.002,0.695,-0.002,0.719,0.0000000,0.0000000,0.000,0.000,0.000,0.000,0,00:00:00,-791,0.000,0.000,91519.992,9.474,0.000,0.000,0.400,-9.829,-0.074,0.005,-0.012,-0.022,0.000,0.000
23.750,0,0,-1.847,0.105,282.886,-1.511,0.036,334.869,-0.812,-0.162,-9.652,0.000,0.000,0.0103675,0.000,9144.000,1.101,1.959,6.743,1.710,915.228,9.476,849.571,0.043,-9.676,-0.182,0.436,-0.034,0.012,-0.016,0.000,0.000,0.000,-0.006,0.693,-0.003,0.721,0.0000000,0.0000000,0.000,0.000,0.000,0.000,0,00:00:00,-791,0.000,0.000,91523.961,9.476,0.000,0.000,0.409,-9.748,-0.027,-0.012,0.005,-0.005,0.000,0.000
23.851,0,0,-1.810,0.098,272.157,-1.477,0.032,300.751,-0.655,0.014,-9.531,0.000,0.000,0.0103675,0.000,9144.000,0.995,2.236,6.917,1.738,915.238,9.476,849.476,-0.042,-9.548,-0.011,0.315,-0.001,0.006,0.002,0.000,0.000,0.000,-0.003,0.694,-0.001,0.720,0.0000000,0.0000000,0.000,0.000,0.000,0.000,0,00:00:00,-791,0.000,0.000,91530.125,9.480,0.000,0.000,0.454,-9.811,0.040,0.000,-0.007,0.011,0.000,0.000
23.952,0,0,-1.772,0.092,259.974,-1.425,0.031,268.101,-0.451,0.037,-9.697,0.000,0.000,0.0103675,0.000,9144.000,0.894,2.044,7.092,1.749,915.255,9.477,849.320,-0.253,-9.706,0.055,0.190,0.046,0.014,-0.037,0.000,0.000,0.000,-0.000,0.698,-0.001,0.717,0.0000000,0.0000000,0.000,0.000,0.000,0.000,0,00:00:00,-791,0.000,0.000,91524.781,9.477,0.000,0.000,0.272,-9.743,-0.059,-0.004,-0.009,0.002,0.000,0.000
24.053,0,0,-1.732,0.086,246.694,-1.372,0.025,237.085,-0.408,-0.008,-9.699,0.000,0.000,0.0103675,0.000,9144.000,0.797,1.542,7.268,1.760,915.255,9.477,849.320,-0.246,-9.706,0.055,0.190,0.046,0.014,-0.037,0.000,0.000,0.000,0.002,0.699,-0.002,0.715,0.0000000,0.0000000,0.000,0.000,0.000,0.000,0,00:00:00,-791,0.000,0.000,91524.781,9.477,0.000,0.000,0.272,-9.743,-0.059,-0.004,-0.009,0.002,0.000,0.000
24.154,0,0,-1.694,0.080,232.641,-1.384,0.022,207.804,-1.042,0.012,-9.885,0.000,0.000,0.0103675,0.000,9144.000,0.705,1.290,7.443,1.753,915.227,9.476,849.571,0.022,-9.920,0.072,0.619,-0.003,-0.007,-0.014,0.000,0.000,0.000,0.003,0.692,-0.001,0.722,0.0000000,0.0000000,0.000,0.000,0.000,0.000,0,00:00:00,-791,0.000,0.000,91528.766,9.479,0.000,0.000,0.326,-9.761,0.082,-0.003,0.008,-0.004,0.000,0.000
24.255,0,0,-1.659,0.074,218.019,-1.364,0.018,180.319,-0.700,-0.003,-9.660,0.000,0.000,0.0103675,0.000,9144.000,0.618,2.450,7.620,1.768,915.237,9.476,849.489,-0.066,-9.679,0.065,0.342,0.012,0.040,0.032,0.000,0.000,0.000,0.005,0.694,-0.000,0.720,0.0000000,0.0000000,0.000,0.000,0.000,0.000,0,00:00:00,-791,0.000,0.000,91524.500,9.477,0.000,0.000,0.320,-9.717,0.092,-0.000,0.001,0.001,0.000,0.000
24.356,0,0,-1.627,0.068,203.079,-1.363,-0.006,154.641,-0.866,-0.204,-9.851,0.000,0.000,0.0103675,0.000,9144.000,0.536,2.121,7.796,1.764,915.230,9.476,849.545,-0.007,-9.879,-0.149,0.461,-0.020,0.013,-0.020,0.000,0.000,0.000,-0.000,0.692,-0.004,0.722,0.0000000,0.0000000,0.000,0.000,0.000,0.000,0,00:00:00,-791,0.000,0.000,91520.320,9.474,0.000,0.000,0.308,-9.842,-0.021,-0.003,-0.004,-0.013,0.000,0.000
24.457,0,0,-1.596,0.060,188.045,-1.339,-0.022,130.831,-0.628,-0.121,-9.740,0.000,0.000,0.0103675,0.000,9144.000,0.460,2.360,7.973,1.771,915.205,9.474,849.778,0.235,-9.757,-0.054,0.280,0.015,-0.017,0.028,0.000,0.000,0.000,0.001,0.694,-0.004,0.720,0.0000000,0.0000000,0.000,0.000,0.000,0.000,0,00:00:00,-791,0.000,0.000,91524.102,9.476,0.000,0.000,0.430,-9.808,0.046,-0.007,-0.008,-0.011,0.000,0.000
24.558,0,0,-1.566,0.052,172.976,-1.318,-0.024,108.773,-0.634,0.006,-9.840,0.000,0.000,0.0103675,0.000,9144.000,0.389,2.050,8.150,1.768,915.265,9.478,849.234,-0.319,-9.855,0.108,0.303,0.038,-0.007,0.006,0.000,0.000,0.000,0.005,0.695,-0.002,0.719,0.0000000,0.0000000,0.000,0.000,0.000,0.000,0,00:00:00,-791,0.000,0.000,91524.125,9.476,0.000,0.000,0.364,-9.828,0.058,0.006,-0.002,0.005,0.000,0.000
24.659,0,0,-1.536,0.045,158.127,-1.283,-0.028,88.541,-0.472,-0.012,-9.799,0.000,0.000,0.0103675,0.000,9144.000,0.323,1.925,8.327,1.769,915.250,9.477,849.370,-0.160,-9.807,0.073,0.205,-0.018,-0.001,-0.015,0.000,0.000,0.000,0.005,0.697,-0.001,0.717,0.0000000,0.0000000,0.000,0.000,0.000,0.000,0,00:00:00,-791,0.000,0.000,91529.422,9.479,0.000,0.000,0.374,-9.704,-0.004,-0.014,0.005,0.004,0.000,0.000
24.760,0,0,-1.507,0.038,143.550,-1.272,-0.032,70.046,-0.699,-0.024,-9.650,0.000,0.000,0.0103675,0.000,9144.000,0.263,1.564,8.506,1.785,915.294,9.479,848.971,-0.546,-9.668,0.084,0.384,0.027,0.017,0.006,0.000,0.000,0.000,0.007,0.695,-0.002,0.719,0.0000000,0.0000000,0.000,0.000,0.000,0.000,0,00:00:00,-791,0.000,0.000,91527.703,9.478,0.000,0.000,0.403,-9.690,-0.023,-0.007,0.015,0.003,0.000,0.000
24.861,0,0,-1.479,0.031,129.469,-1.239,-0.030,53.310,-0.470,0.042,-9.691,0.000,0.000,0.0103675,0.000,9144.000,0.208,1.870,8.685,1.797,915.245,9.477,849.414,-0.113,-9.699,0.139,0.213,-0.012,0.015,0.003,0.000,0.000,0.000,0.007,0.698,0.000,0.716,0.0000000,0.0000000,0.000,0.000,0.000,0.000,0,00:00:00,-791,0.000,0.000,91519.094,9.473,0.000,0.000,0.332,-9.797,-0.015,0.010,0.008,0.012,0.000,0.000
24.962,0,0,-1.452,0.025,115.883,-1.221,-0.037,38.189,-0.591,-0.065,-9.827,0.000,0.000,0.0103675,0.000,9144.000,0.159,1.522,8.865,1.795,915.268,9.478,849.209,-0.275,-9.839,0.045,0.314,0.012,0.023,0.002,0.000,0.000,0.000,0.007,0.697,-0.001,0.717,0.0000000,0.0000000,0.000,0.000,0.000,0.000,0,00:00:00,-791,0.000,0.000,91527.172,9.478,0.000,0.000,0.335,-9.785,-0.031,0.011,0.009,-0.011,0.000,0.000
25.063,0,0,-1.426,0.019,102.907,-1.218,-0.056,24.668,-0.734,-0.173,-9.759,0.000,0.000,0.0103675,0.000,9144.000,0.114,1.609,9.045,1.800,915.255,9.477,849.321,-0.133,-9.781,-0.059,0.385,0.004,-0.040,0.031,0.000,0.000,0.000,0.005,0.694,-0.003,0.720,0.0000000,0.0000000,0.000,0.000,0.000,0.000,0,00:00:00,-791,0.000,0.000,91522.250,9.475,0.000,0.000,0.341,-9.743,-0.147,0.002,0.012,-0.007,0.000,0.000
25.164,0,0,-1.402,0.012,90.590,-1.207,-0.060,12.655,-0.629,-0.035,-9.795,0.000,0.000,0.0103675,0.000,9144.000,0.073,2.045,9.225,1.802,915.241,9.476,849.445,-0.014,-9.810,0.063,0.303,-0.015,0.002,0.024,0.000,0.000,0.000,0.006,0.695,-0.002,0.719,0.0000000,0.0000000,0.000,0.000,0.000,0.000,0,00:00:00,-791,0.000,0.000,91515.430,9.471,0.000,0.000,0.245,-9.740,0.018,-0.005,0.027,0.009,0.000,0.000
25.265,0,0,-1.379,0.005,78.964,-1.188,-0.066,2.072,-0.543,-0.055,-9.707,0.000,0.000,0.0103675,0.000,9144.000,0.038,1.902,9.406,1.812,915.236,9.476,849.490,0.054,-9.719,0.069,0.256,0.028,0.004,-0.015,0.000,0.000,0.000,0.007,0.697,-0.003,0.717,0.0000000,0.0000000,0.000,0.000,0.000,0.000,0,00:00:00,-791,0.000,0.000,91529.383,9.479,0.000,0.000,0.443,-9.846,-0.070,-0.005,-0.011,-0.002,0.000,0.000
25.366,0,0,-1.358,-0.002,68.033,-1.198,-0.081,-7.215,-0.816,-0.156,-9.910,0.000,0.000,0.0103675,0.000,9144.000,0.007,1.693,9.586,1.802,915.242,9.476,849.437,-0.044,-9.934,-0.031,0.446,-0.001,-0.003,0.016,0.000,0.000,0.000,0.005,0.694,-0.004,0.720,0.0000000,0.0000000,0.000,0.000,0.000,0.000,0,00:00:00,-791,0.000,0.000,91524.562,9.477,0.000,0.000,0.355,-9.795,0.046,0.011,0.007,-0.003,0.000,0.000
25.467,0,0,-1.339,-0.010,57.827,-1.191,-0.080,-15.243,-0.642,0.008,-9.754,0.000,0.000,0.0103675,0.000,9144.000,0.022,2.140,9.767,1.808,915.239,9.476,849.469,-0.037,-9.770,0.116,0.306,-0.014,-0.001,0.006,0.000,0.000,0.000,0.007,0.695,-0.002,0.719,0.0000000,0.0000000,0.000,0.000,0.000,0.000,0,00:00:00,-791,0.000,0.000,91526.641,9.478,0.000,0.000,0.211,-9.778,0.083,0.004,-0.007,-0.002,0.000,0.000
25.568,0,0,-1.322,-0.017,48.354,-1.204,-0.108,-22.114,-0.830,-0.283,-9.702,0.000,0.000,0.0103675,0.000,9144.000,0.045,1.970,9.949,1.818,915.242,9.476,849.438,-0.031,-9.729,-0.177,0.456,-0.004,0.039,0.036,0.000,0.000,0.000,0.002,0.693,-0.005,0.721,0.0000000,0.0000000,0.000,0.000,0.000,0.000,0,00:00:00,-791,0.000,0.000,91533.633,9.482,0.000,0.000,0.336,-9.785,0.032,-0.008,-0.004,0.001,0.000,0.000
25.669,0,0,-1.307,-0.026,39.589,-1.189,-0.118,-27.944,-0.541,-0.113,-9.770,0.000,0.000,0.0103675,0.000,9144.000,0.066,2.213,10.131,1.822,915.260,9.477,849.275,-0.192,-9.783,0.030,0.230,0.037,-0.015,-0.041,0.000,0.000,0.000,0.004,0.696,-0.006,0.718,0.0000000,0.0000000,0.000,0.000,0.000,0.000,0,00:00:00,-791,0.000,0.000,91528.984,9.479,0.000,0.000,0.307,-9.851,0.101,0.020,-0.004,-0.010,0.000,0.000
25.770,0,0,-1.292,-0.035,31.554,-1.172,-0.131,-32.789,-0.508,-0.150,-9.771,0.000,0.000,0.0103675,0.000,9144.000,0.083,1.824,10.314,1.826,915.260,9.477,849.275,-0.132,-9.783,0.030,0.230,0.037,-0.015,-0.041,0.000,0.000,0.000,0.006,0.697,-0.007,0.717,0.0000000,0.0000000,0.000,0.000,0.000,0.000,0,00:00:00,-791,0.000,0.000,91528.984,9.479,0.000,0.000,0.307,-9.851,0.101,0.020,-0.004,-0.010,0.000,0.000
25.871,0,0,-1.277,-0.045,24.318,-1.166,-0.154,-36.665,-0.616,-0.249,-9.714,0.000,0.000,0.0103675,0.000,9144.000,0.098,1.630,10.497,1.836,915.187,9.473,849.941,0.540,-9.731,-0.077,0.317,-0.006,-0.005,0.045,0.000,0.000,0.000,0.005,0.696,-0.007,0.718,0.0000000,0.0000000,0.000,0.000,0.000,0.000,0,00:00:00,-791,0.000,0.000,91515.711,9.471,0.000,0.000,0.382,-9.907,-0.030,0.007,0.017,0.003,0.000,0.000
25.972,0,0,-1.263,-0.055,17.730,-1.166,-0.171,-39.771,-0.665,-0.196,-9.776,0.000,0.000,0.0103675,0.000,9144.000,0.109,1.763,10.681,1.839,915.211,9.475,849.725,0.334,-9.794,-0.004,0.349,0.019,0.016,-0.028,0.000,0.000,0.000,0.006,0.696,-0.008,0.718,0.0000000,0.0000000,0.000,0.000,0.000,0.000,0,00:00:00,-791,0.000,0.000,91524.477,9.477,0.000,0.000,0.293,-9.744,0.006,-0.000,0.019,-0.006,0.000,0.000
26.073,0,0,-1.251,-0.067,11.760,-1.152,-0.195,-42.188,-0.518,-0.271,-9.851,0.000,0.000,0.0103675,0.000,9144.000,0.118,1.856,10.865,1.835,915.238,9.476,849.473,0.082,-9.865,-0.062,0.245,0.017,0.017,0.047,0.000,0.000,0.000,0.007,0.697,-0.008,0.717,0.0000000,0.0000000,0.000,0.000,0.000,0.000,0,00:00:00,-791,0.000,0.000,91533.383,9.482,0.000,0.000,0.279,-9.850,0.029,-0.008,-0.004,-0.003,0.000,0.000
26.174,0,0,-1.238,-0.080,6.351,-1.152,-0.228,-44.013,-0.648,-0.369,-9.948,0.000,0.000,0.0103675,0.000,9144.000,0.125,1.590,11.047,1.821,915.291,9.479,848.996,-0.382,-9.969,-0.172,0.340,-0.017,-0.008,-0.008,0.000,0.000,0.000,0.003,0.696,-0.011,0.718,0.0000000,0.0000000,0.000,0.000,0.000,0.000,0,00:00:00,-791,0.000,0.000,91527.391,9.478,0.000,0.000,0.323,-9.836,0.099,-0.001,0.002,0.007,0.000,0.000
26.275,0,0,-1.228,-0.095,1.541,-1.154,-0.259,-45.251,-0.665,-0.354,-9.947,0.000,0.000,0.0103675,0.000,9144.000,0.131,1.794,11.228,1.808,915.291,9.479,848.996,-0.382,-9.969,-0.172,0.340,-0.017,-0.008,-0.008,0.000,0.000,0.000,0.001,0.695,-0.011,0.719,0.0000000,0.0000000,0.000,0.000,0.000,0.000,0,00:00:00,-791,0.000,0.000,91527.391,9.478,0.000,0.000,0.323,-9.836,0.099,-0.001,0.002,0.007,0.000,0.000
26.376,0,0,-1.219,-0.110,-2.646,-1.172,-0.267,-45.922,-0.823,-0.138,-9.845,0.000,0.000,0.0103675,0.000,9144.000,0.135,1.896,11.408,1.804,915.249,9.477,849.379,0.012,-9.871,0.042,0.429,0.002,-0.036,0.009,0.000,0.000,0.000,0.005,0.693,-0.008,0.721,0.0000000,0.0000000,0.000,0.000,0.000,0.000,0,00:00:00,-791,0.000,0.000,91520.602,9.474,0.000,0.000,0.359,-9.824,-0.063,0.006,-0.017,0.006,0.000,0.000
26.477,0,0,-1.213,-0.125,-6.244,-1.198,-0.287,-46.100,-0.890,-0.268,-9.824,0.000,0.000,0.0103675,0.000,9144.000,0.137,2.294,11.588,1.803,915.204,9.474,849.781,0.445,-9.856,-0.080,0.471,0.008,0.025,0.004,0.000,0.000,0.000,0.004,0.692,-0.009,0.722,0.0000000,0.0000000,0.000,0.000,0.000,0.000,0,00:00:00,-791,0.000,0.000,91532.781,9.481,0.000,0.000,0.346,-9.828,0.061,0.002,0.007,-0.003,0.000,0.000
26.578,0,0,-1.210,-0.140,-9.356,-1.225,-0.308,-45.901,-0.902,-0.277,-9.823,0.000,0.000,0.0103675,0.000,9144.000,0.137,2.446,11.769,1.801,915.204,9.474,849.781,0.424,-9.856,-0.080,0.471,0.008,0.025,0.004,0.000,0.000,0.000,0.004,0.691,-0.009,0.722,0.0000000,0.0000000,0.000,0.000,0.000,0.000,0,00:00:00,-791,0.000,0.000,91532.781,9.481,0.000,0.000,0.346,-9.828,0.061,0.002,0.007,-0.003,0.000,0.000
26.679,0,0,-1.209,-0.156,-12.007,-1.236,-0.318,-45.354,-0.744,-0.181,-9.638,0.000,0.000,0.0103675,0.000,9144.000,0.136,2.521,11.950,1.819,915.200,9.474,849.819,0.472,-9.661,0.019,0.354,0.011,-0.003,0.010,0.000,0.000,0.000,0.006,0.693,-0.008,0.721,0.0000000,0.0000000,0.000,0.000,0.000,0.000,0,00:00:00,-791,0.000,0.000,91521.602,9.475,0.000,0.000,0.301,-9.864,0.015,-0.000,-0.010,-0.013,0.000,0.000
26.780,0,0,-1.208,-0.170,-14.258,-1.232,-0.320,-44.556,-0.591,-0.111,-9.698,0.000,0.000,0.0103675,0.000,9144.000,0.135,2.320,12.133,1.830,915.212,9.475,849.715,0.338,-9.713,0.058,0.264,-0.030,0.005,0.029,0.000,0.000,0.000,0.007,0.695,-0.005,0.719,0.0000000,0.0000000,0.000,0.000,0.000,0.000,0,00:00:00,-791,0.000,0.000,91522.406,9.475,0.000,0.000,0.359,-9.818,-0.011,0.001,-0.007,0.011,0.000,0.000
26.881,0,0,-1.207,-0.184,-16.105,-1.227,-0.320,-43.526,-0.590,-0.094,-9.798,0.000,0.000,0.0103675,0.000,9144.000,0.133,1.925,12.317,1.831,915.190,9.473,849.910,0.480,-9.812,0.079,0.291,0.000,0.024,-0.035,0.000,0.000,0.000,0.008,0.696,-0.005,0.718,0.0000000,0.0000000,0.000,0.000,0.000,0.000,0,00:00:00,-791,0.000,0.000,91522.500,9.475,0.000,0.000,0.345,-9.810,0.065,-0.001,-0.007,-0.002,0.000,0.000
26.982,0,0,-1.206,-0.195,-17.616,-1.224,-0.315,-42.317,-0.600,-0.059,-9.735,0.000,0.000,0.0103675,0.000,9144.000,0.129,1.744,12.500,1.839,915.194,9.474,849.870,0.388,-9.749,0.063,0.300,-0.050,-0.002,0.016,0.000,0.000,0.000,0.007,0.696,-0.002,0.718,0.0000000,0.0000000,0.000,0.000,0.000,0.000,0,00:00:00,-791,0.000,0.000,91529.055,9.479,0.000,0.000,0.404,-9.858,-0.037,0.000,0.002,0.012,0.000,0.000
27.083,0,0,-1.206,-0.206,-18.860,-1.252,-0.326,-41.006,-0.916,-0.215,-9.813,0.000,0.000,0.0103675,0.000,9144.000,0.126,1.761,12.684,1.838,915.232,9.476,849.535,0.038,-9.844,-0.093,0.514,-0.005,0.011,-0.011,0.000,0.000,0.000,0.003,0.692,-0.005,0.721,0.0000000,0.0000000,0.000,0.000,0.000,0.000,0,00:00:00,-791,0.000,0.000,91526.023,9.477,0.000,0.000,0.366,-9.770,-0.017,0.012,0.003,-0.004,0.000,0.000
27.184,0,0,-1.208,-0.217,-19.787,-1.266,-0.331,-39.564,-0.767,-0.166,-9.873,0.000,0.000,0.0103675,0.000,9144.000,0.122,2.344,12.867,1.832,915.214,9.475,849.695,0.243,-9.897,-0.046,0.386,-0.004,0.025,-0.017,0.000,0.000,0.000,0.003,0.693,-0.006,0.721,0.0000000,0.0000000,0.000,0.000,0.000,0.000,0,00:00:00,-791,0.000,0.000,91518.453,9.473,0.000,0.000,0.287,-9.801,0.032,-0.001,-0.006,-0.006,0.000,0.000
27.285,0,0,-1.211,-0.227,-20.452,-1.278,-0.335,-38.035,-0.756,-0.162,-9.874,0.000,0.000,0.0103675,0.000,9144.000,0.118,2.216,13.050,1.826,915.214,9.475,849.695,0.293,-9.897,-0.046,0.386,-0.004,0.025,-0.017,0.000,0.000,0.000,0.002,0.694,-0.006,0.720,0.0000000,0.0000000,0.000,0.000,0.000,0.000,0,00:00:00,-791,0.000,0.000,91518.453,9.473,0.000,0.000,0.287,-9.801,0.032,-0.001,-0.006,-0.006,0.000,0.000
27.386,0,0,-1.215,-0.237,-20.947,-1.282,-0.334,-36.494,-0.675,-0.115,-9.873,0.000,0.000,0.0103675,0.000,9144.000,0.113,2.152,13.232,1.819,915.258,9.477,849.292,-0.105,-9.891,0.026,0.330,0.027,0.012,-0.014,0.000,0.000,0.000,0.004,0.695,-0.006,0.719,0.0000000,0.0000000,0.000,0.000,0.000,0.000,0,00:00:00,-791,0.000,0.000,91517.484,9.472,0.000,0.000,0.228,-9.819,-0.064,-0.000,0.001,0.013,0.000,0.000
27.487,0,0,-1.218,-0.245,-21.205,-1.269,-0.337,-34.874,-0.515,-0.154,-9.680,0.000,0.000,0.0103675,0.000,9144.000,0.109,1.999,13.415,1.832,915.229,9.476,849.554,0.126,-9.692,-0.011,0.237,0.006,0.018,0.026,0.000,0.000,0.000,0.005,0.697,-0.005,0.717,0.0000000,0.0000000,0.000,0.000,0.000,0.000,0,00:00:00,-791,0.000,0.000,91525.727,9.477,0.000,0.000,0.338,-9.706,-0.029,0.001,0.003,-0.005,0.000,0.000
27.588,0,0,-1.219,-0.253,-21.292,-1.253,-0.340,-33.248,-0.485,-0.159,-9.681,0.000,0.000,0.0103675,0.000,9144.000,0.104,1.646,13.600,1.845,915.229,9.476,849.554,0.091,-9.692,-0.011,0.237,0.006,0.018,0.026,0.000,0.000,0.000,0.006,0.698,-0.005,0.716,0.0000000,0.0000000,0.000,0.000,0.000,0.000,0,00:00:00,-791,0.000,0.000,91525.727,9.477,0.000,0.000,0.338,-9.706,-0.029,0.001,0.003,-0.005,0.000,0.000
27.689,0,0,-1.218,-0.261,-21.232,-1.236,-0.342,-31.636,-0.470,-0.164,-9.682,0.000,0.000,0.0103675,0.000,9144.000,0.099,1.469,13.785,1.858,915.229,9.476,849.554,0.037,-9.692,-0.011,0.237,0.006,0.018,0.026,0.000,0.000,0.000,0.006,0.699,-0.005,0.716,0.0000000,0.0000000,0.000,0.000,0.000,0.000,0,00:00:00,-791,0.000,0.000,91525.727,9.477,0.000,0.000,0.338,-9.706,-0.029,0.001,0.003,-0.005,0.000,0.000
27.790,0,0,-1.217,-0.267,-21.013,-1.242,-0.340,-30.040,-0.693,-0.117,-9.831,0.000,0.000,0.0103675,0.000,9144.000,0.094,1.381,13.971,1.856,915.202,9.474,849.802,0.242,-9.849,0.019,0.380,-0.020,-0.009,-0.009,0.000,0.000,0.000,0.005,0.696,-0.005,0.718,0.0000000,0.0000000,0.000,0.000,0.000,0.000,0,00:00:00,-791,0.000,0.000,91519.898,9.474,0.000,0.000,0.330,-9.790,-0.108,-0.001,-0.005,-0.006,0.000,0.000
27.891,0,0,-1.217,-0.273,-20.691,-1.244,-0.339,-28.479,-0.667,-0.135,-9.741,0.000,0.000,0.0103675,0.000,9144.000,0.089,1.822,14.157,1.863,915.206,9.474,849.765,0.207,-9.759,0.002,0.335,0.003,-0.021,0.018,0.000,0.000,0.000,0.005,0.695,-0.005,0.719,0.0000000,0.0000000,0.000,0.000,0.000,0.000,0,00:00:00,-791,0.000,0.000,91525.875,9.477,0.000,0.000,0.310,-9.765,0.043,0.001,0.004,0.012,0.000,0.000
27.992,0,0,-1.217,-0.279,-20.280,-1.248,-0.338,-26.970,-0.679,-0.138,-9.740,0.000,0.000,0.0103675,0.000,9144.000,0.085,1.954,14.344,1.870,915.206,9.474,849.765,0.193,-9.759,0.002,0.335,0.003,-0.021,0.018,0.000,0.000,0.000,0.006,0.695,-0.005,0.719,0.0000000,0.0000000,0.000,0.000,0.000,0.000,0,00:00:00,-791,0.000,0.000,91525.875,9.477,0.000,0.000,0.310,-9.765,0.043,0.001,0.004,0.012,0.000,0.000
28.093,0,0,-1.217,-0.283,-19.797,-1.253,-0.337,-25.520,-0.684,-0.140,-9.740,0.000,0.000,0.0103675,0.000,9144.000,0.080,2.019,14.532,1.877,915.206,9.474,849.765,0.187,-9.759,0.002,0.335,0.003,-0.021,0.018,0.000,0.000,0.000,0.006,0.694,-0.005,0.720,0.0000000,0.0000000,0.000,0.000,0.000,0.000,0,00:00:00,-791,0.000,0.000,91525.875,9.477,0.000,0.000,0.310,-9.765,0.043,0.001,0.004,0.012,0.000,0.000
28.194,0,0,-1.217,-0.287,-19.303,-1.248,-0.322,-24.177,-0.593,-0.001,-9.798,0.000,0.000,0.0103675,0.000,9144.000,0.076,2.052,14.720,1.878,915.236,9.476,849.496,-0.152,-9.812,0.125,0.277,-0.016,-0.002,0.008,0.000,0.000,0.000,0.007,0.696,-0.002,0.718,0.0000000,0.0000000,0.000,0.000,0.000,0.000,0,00:00:00,-791,0.000,0.000,91522.688,9.475,0.000,0.000,0.415,-9.785,-0.016,0.011,0.001,-0.005,0.000,0.000
28.295,0,0,-1.218,-0.289,-18.789,-1.254,-0.315,-22.921,-0.703,-0.082,-9.798,0.000,0.000,0.0103675,0.000,9144.000,0.072,1.843,14.908,1.879,915.250,9.477,849.369,-0.349,-9.817,0.028,0.359,-0.016,-0.013,0.005,0.000,0.000,0.000,0.006,0.695,-0.002,0.719,0.0000000,0.0000000,0.000,0.000,0.000,0.000,0,00:00:00,-791,0.000,0.000,91522.406,9.475,0.000,0.000,0.415,-9.775,0.033,-0.005,0.002,0.003,0.000,0.000
28.396,0,0,-1.218,-0.290,-18.201,-1.258,-0.294,-21.691,-0.672,0.055,-9.654,0.000,0.000,0.0103675,0.000,9144.000,0.068,2.007,15.097,1.895,915.222,9.475,849.622,-0.087,-9.671,0.129,0.332,-0.036,-0.013,-0.041,0.000,0.000,0.000,0.005,0.694,-0.000,0.719,0.0000000,0.0000000,0.000,0.000,0.000,0.000,0,00:00:00,-791,0.000,0.000,91520.695,9.474,0.000,0.000,0.331,-9.734,0.107,0.003,-0.003,-0.002,0.000,0.000
28.497,0,0,-1.219,-0.289,-17.548,-1.264,-0.284,-20.534,-0.700,-0.046,-9.959,0.000,0.000,0.0103675,0.000,9144.000,0.065,2.023,15.285,1.880,915.191,9.473,849.900,0.214,-9.977,-0.001,0.353,-0.033,0.012,-0.017,0.000,0.000,0.000,0.003,0.695,-0.001,0.719,0.0000000,0.0000000,0.000,0.000,0.000,0.000,0,00:00:00,-791,0.000,0.000,91529.820,9.480,0.000,0.000,0.305,-9.809,-0.063,-0.002,-0.013,-0.016,0.000,0.000
28.598,0,0,-1.221,-0.288,-16.943,-1.270,-0.277,-19.484,-0.708,-0.088,-9.792,0.000,0.000,0.0103675,0.000,9144.000,0.061,1.993,15.473,1.881,915.240,9.476,849.458,-0.206,-9.811,-0.049,0.364,-0.009,0.017,-0.023,0.000,0.000,0.000,0.000,0.695,-0.002,0.719,0.0000000,0.0000000,0.000,0.000,0.000,0.000,0,00:00:00,-791,0.000,0.000,91528.406,9.479,0.000,0.000,0.304,-9.820,0.013,-0.004,0.007,0.008,0.000,0.000
28.699,0,0,-1.223,-0.286,-16.375,-1.269,-0.272,-18.552,-0.634,-0.104,-9.909,0.000,0.000,0.0103675,0.000,9144.000,0.058,2.011,15.660,1.872,915.276,9.478,849.134,-0.503,-9.925,-0.041,0.294,0.025,-0.039,-0.002,0.000,0.000,0.000,0.001,0.695,-0.003,0.719,0.0000000,0.0000000,0.000,0.000,0.000,0.000,0,00:00:00,-791,0.000,0.000,91535.695,9.483,0.000,0.000,0.439,-9.705,-0.081,-0.000,0.012,-0.005,0.000,0.000
28.800,0,0,-1.224,-0.284,-15.725,-1.272,-0.279,-17.620,-0.668,-0.219,-9.805,0.000,0.000,0.0103675,0.000,9144.000,0.055,1.965,15.848,1.872,915.212,9.475,849.707,0.061,-9.824,-0.125,0.321,0.031,-0.040,0.019,0.000,0.000,0.000,0.001,0.694,-0.006,0.720,0.0000000,0.0000000,0.000,0.000,0.000,0.000,0,00:00:00,-791,0.000,0.000,91526.219,9.478,0.000,0.000,0.307,-9.731,-0.086,-0.008,0.008,0.017,0.000,0.000
28.901,0,0,-1.226,-0.284,-15.132,-1.268,-0.286,-16.791,-0.607,-0.215,-9.710,0.000,0.000,0.0103675,0.000,9144.000,0.053,2.035,16.036,1.882,915.251,9.477,849.361,-0.270,-9.726,-0.169,0.296,-0.050,0.013,-0.012,0.000,0.000,0.000,-0.003,0.696,-0.006,0.718,0.0000000,0.0000000,0.000,0.000,0.000,0.000,0,00:00:00,-791,0.000,0.000,91528.453,9.479,0.000,0.000,0.387,-9.792,0.043,-0.004,0.022,-0.004,0.000,0.000
29.002,0,0,-1.227,-0.282,-14.543,-1.274,-0.266,-16.027,-0.704,0.047,-9.701,0.000,0.000,0.0103675,0.000,9144.000,0.050,1.850,16.225,1.893,915.246,9.477,849.400,-0.221,-9.720,0.058,0.362,-0.033,-0.010,0.033,0.000,0.000,0.000,-0.000,0.695,-0.001,0.719,0.0000000,0.0000000,0.000,0.000,0.000,0.000,0,00:00:00,-791,0.000,0.000,91518.609,9.473,0.000,0.000,0.340,-9.861,0.003,-0.009,-0.004,-0.007,0.000,0.000
29.103,0,0,-1.228,-0.279,-13.960,-1.265,-0.250,-15.328,-0.559,0.011,-9.733,0.000,0.000,0.0103675,0.000,9144.000,0.048,2.019,16.415,1.901,915.236,9.476,849.498,-0.146,-9.746,0.014,0.253,-0.006,-0.018,0.011,0.000,0.000,0.000,0.000,0.696,-0.000,0.718,0.0000000,0.0000000,0.000,0.000,0.000,0.000,0,00:00:00,-791,0.000,0.000,91524.648,9.477,0.000,0.000,0.428,-9.785,-0.019,-0.007,0.001,0.005,0.000,0.000
29.204,0,0,-1.228,-0.275,-13.395,-1.255,-0.234,-14.695,-0.541,0.017,-9.734,0.000,0.000,0.0103675,0.000,9144.000,0.046,1.803,16.606,1.908,915.236,9.476,849.498,-0.126,-9.746,0.014,0.253,-0.006,-0.018,0.011,0.000,0.000,0.000,0.000,0.697,0.001,0.717,0.0000000,0.0000000,0.000,0.000,0.000,0.000,0,00:00:00,-791,0.000,0.000,91524.648,9.477,0.000,0.000,0.428,-9.785,-0.019,-0.007,0.001,0.005,0.000,0.000
29.305,0,0,-1.228,-0.270,-12.855,-1.273,-0.219,-14.130,-0.825,0.009,-9.743,0.000,0.000,0.0103675,0.000,9144.000,0.044,1.695,16.797,1.915,915.240,9.476,849.459,-0.133,-9.767,0.007,0.458,-0.000,0.012,-0.016,0.000,0.000,0.000,0.000,0.694,0.000,0.720,0.0000000,0.0000000,0.000,0.000,0.000,0.000,0,00:00:00,-791,0.000,0.000,91522.406,9.475,0.000,0.000,0.344,-9.704,0.030,-0.000,-0.001,-0.012,0.000,0.000
29.406,0,0,-1.231,-0.264,-12.335,-1.303,-0.199,-13.627,-0.944,0.059,-9.796,0.000,0.000,0.0103675,0.000,9144.000,0.042,2.156,16.989,1.916,915.231,9.476,849.542,-0.083,-9.828,0.060,0.506,0.008,-0.003,0.041,0.000,0.000,0.000,0.002,0.691,0.002,0.723,0.0000000,0.0000000,0.000,0.000,0.000,0.000,0,00:00:00,-791,0.000,0.000,91519.141,9.473,0.000,0.000,0.308,-9.882,0.086,-0.022,-0.004,0.004,0.000,0.000
29.507,0,0,-1.234,-0.257,-11.896,-1.288,-0.194,-13.220,-0.502,-0.086,-9.768,0.000,0.000,0.0103675,0.000,9144.000,0.041,2.560,17.181,1.920,915.268,9.478,849.208,-0.451,-9.779,-0.079,0.187,0.003,-0.007,0.009,0.000,0.000,0.000,-0.000,0.696,-0.001,0.718,0.0000000,0.0000000,0.000,0.000,0.000,0.000,0,00:00:00,-791,0.000,0.000,91523.312,9.476,0.000,0.000,0.360,-9.743,0.005,-0.005,-0.005,-0.004,0.000,0.000
