State - Time (s),State - Stage,State - Stage,State - PX (m),State - PY (m),State - PZ (m),State - VX (m/s),State - VY (m/s),State - VZ (m/s),State - AX (m/s/s),State - AY (m/s/s),State - AZ (m/s/s),State - Actuation Angle (deg),State - Acutal Angle (deg),State - CdA,State - Est Apo (m),State - Target Apogee (m),State - Mach Number,State - Tilt [deg],State - Pos - Accel Integrated [m],State - Velo - Accel Integrated [m/s],MockBarometer - Pres (hPa),MockBarometer - Temp (C),MockBarometer - Alt ASL (m),MockBarometer - Alt AGL (m),MockIMU - AccX (m/s^2),MockIMU - AccY (m/s^2),MockIMU - AccZ (m/s^2),MockIMU - GyroX (rad/s),MockIMU - GyroY (rad/s),MockIMU - GyroZ (rad/s),MockIMU - MagX (uT),MockIMU - MagY (uT),MockIMU - MagZ (uT),MockIMU - OriX,MockIMU - OriY,MockIMU - OriZ,MockIMU - OriW,MockGPS - Lat,MockGPS - Lon,MockGPS - Alt (m),MockGPS - Disp X (m),MockGPS - Disp Y (m),MockGPS - Disp Z (m),MockGPS - Fix Quality,MockGPS - Time of Day,E5 - Rel Steps,MockBR - Battery Voltage (V),MockBR - ALT (m),MockBR - PRES (Pa),MockBR - TEMP (C),MockBR - VEL (m/s),MockBR - ANG (deg),MockBR - ACCX (m/s^2),MockBR - ACCY (m/s^2),MockBR - ACCZ (m/s^2),MockBR - GYROX (rad/s),MockBR - GYROY (rad/s),MockBR - GYROZ (rad/s),MockBR - ROLL (deg),MockBR - TILT (deg)
19.922,0,0,-1617.654,2.813,-1098.283,-162.399,0.282,-110.258,-8.152,0.014,-5.535,0.000,0.000,0.0116870,0.000,9144.000,0.483,4.000,0.171,0.855,911.501,9.256,883.300,0.000,-9.778,0.029,1.213,-0.003,-0.039,-0.006,0.000,0.000,0.000,0.001,0.352,-0.001,0.936,0.0000000,0.0000000,0.000,0.000,0.000,0.000,0,00:00:00,-1032,0.000,0.000,91144.070,9.253,0.000,0.000,1.081,-9.747,0.003,-0.003,0.005,-0.005,0.000,0.000
20.123,0,0,-0.168,0.000,0.260,2.174,-0.021,0.668,-5.460,-0.077,-7.958,0.000,0.000,0.0116870,0.000,9144.000,0.007,48.756,0.416,1.225,911.438,9.253,883.865,0.283,-9.587,-0.031,1.117,0.023,-0.019,0.008,0.000,0.000,0.000,0.002,0.516,-0.002,0.856,0.0000000,0.0000000,0.000,0.000,0.000,0.000,0,00:00:00,-1032,0.000,0.000,91159.102,9.262,0.000,0.000,0.986,-9.684,-0.005,0.015,-0.008,0.009,0.000,0.000
20.324,0,0,0.093,-0.003,0.202,1.376,-0.044,-1.106,-3.923,-0.116,-8.818,0.000,0.000,0.0116870,0.000,9144.000,0.006,27.810,0.701,1.424,911.438,9.253,883.865,0.188,-9.587,-0.031,1.117,0.023,-0.019,0.008,0.000,0.000,0.000,0.003,0.592,-0.003,0.806,0.0000000,0.0000000,0.000,0.000,0.000,0.000,0,00:00:00,-1032,0.000,0.000,91159.102,9.262,0.000,0.000,0.986,-9.684,-0.005,0.015,-0.008,0.009,0.000,0.000
20.525,0,0,0.200,-0.008,-0.146,0.730,-0.046,-2.963,-3.157,-0.012,-9.275,0.000,0.000,0.0116870,0.000,9144.000,0.005,17.337,1.007,1.531,911.463,9.254,883.638,-0.029,-9.729,0.041,1.159,-0.023,0.011,-0.016,0.000,0.000,0.000,0.002,0.629,-0.002,0.777,0.0000000,0.0000000,0.000,0.000,0.000,0.000,0,00:00:00,-1032,0.000,0.000,91149.789,9.256,0.000,0.000,0.974,-9.766,0.047,-0.008,-0.009,-0.003,0.000,0.000
20.726,0,0,0.218,-0.015,-0.720,0.227,-0.075,-4.834,-2.457,-0.147,-9.510,0.000,0.000,0.0116870,0.000,9144.000,0.005,12.002,1.325,1.591,911.480,9.255,883.484,-0.147,-9.774,-0.079,0.979,0.006,0.016,0.001,0.000,0.000,0.000,0.001,0.651,-0.004,0.759,0.0000000,0.0000000,0.000,0.000,0.000,0.000,0,00:00:00,-1032,0.000,0.000,91141.250,9.251,0.000,0.000,0.949,-9.683,0.069,0.012,-0.009,-0.011,0.000,0.000
20.927,0,0,0.175,-0.022,-1.499,-0.180,-0.062,-6.640,-1.991,0.061,-9.546,0.000,0.000,0.0116870,0.000,9144.000,0.005,8.771,1.654,1.644,911.491,9.256,883.388,-0.202,-9.713,0.026,0.861,-0.048,0.034,0.024,0.000,0.000,0.000,-0.001,0.664,0.002,0.747,0.0000000,0.0000000,0.000,0.000,0.000,0.000,0,00:00:00,-1032,0.000,0.000,91140.438,9.251,0.000,0.000,0.973,-9.676,0.043,-0.004,-0.015,0.007,0.000,0.000
21.128,0,0,0.078,-0.030,-2.385,-0.602,-0.087,-8.319,-2.085,-0.131,-9.692,0.000,0.000,0.0116870,0.000,9144.000,0.005,6.720,1.988,1.667,911.462,9.254,883.651,0.052,-9.861,-0.167,1.017,0.000,0.008,0.026,0.000,0.000,0.000,-0.003,0.667,-0.000,0.745,0.0000000,0.0000000,0.000,0.000,0.000,0.000,0,00:00:00,-1032,0.000,0.000,91145.258,9.253,0.000,0.000,0.973,-9.810,0.064,0.006,0.000,0.018,0.000,0.000
21.329,0,0,-0.072,-0.042,-3.438,-1.031,-0.108,-9.795,-2.149,-0.111,-9.564,0.000,0.000,0.0116870,0.000,9144.000,0.006,6.257,2.331,1.717,911.499,9.256,883.316,-0.247,-9.742,-0.108,1.088,0.022,0.004,0.023,0.000,0.000,0.000,-0.002,0.667,-0.002,0.745,0.0000000,0.0000000,0.000,0.000,0.000,0.000,0,00:00:00,-1032,0.000,0.000,91132.461,9.246,0.000,0.000,1.057,-9.721,0.041,0.002,-0.010,0.003,0.000,0.000
21.530,0,0,-0.271,-0.053,-4.481,-1.442,-0.100,-10.986,-2.110,0.023,-9.597,0.000,0.000,0.0116870,0.000,9144.000,0.007,6.292,2.683,1.759,911.491,9.256,883.386,-0.158,-9.768,-0.006,1.071,-0.016,0.023,-0.005,0.000,0.000,0.000,-0.003,0.668,0.000,0.744,0.0000000,0.0000000,0.000,0.000,0.000,0.000,0,00:00:00,-1032,0.000,0.000,91146.078,9.254,0.000,0.000,1.026,-9.701,0.007,-0.004,-0.007,0.012,0.000,0.000
21.731,0,0,-0.514,-0.063,-5.393,-1.848,-0.106,-11.808,-2.161,-0.043,-9.531,0.000,0.000,0.0116870,0.000,9144.000,0.008,6.144,3.046,1.815,911.466,9.254,883.615,0.064,-9.713,-0.014,1.085,0.028,-0.025,-0.016,0.000,0.000,0.000,-0.001,0.667,-0.002,0.745,0.0000000,0.0000000,0.000,0.000,0.000,0.000,0,00:00:00,-1032,0.000,0.000,91151.703,9.257,0.000,0.000,1.053,-9.771,-0.019,-0.002,0.003,-0.010,0.000,0.000
21.932,0,0,-0.796,-0.071,-6.169,-2.261,-0.096,-12.327,-2.305,0.028,-9.501,0.000,0.000,0.0116870,0.000,9144.000,0.009,6.402,3.421,1.877,911.475,9.255,883.535,-0.016,-9.704,0.090,1.187,0.019,0.005,-0.012,0.000,0.000,0.000,0.003,0.665,-0.002,0.747,0.0000000,0.0000000,0.000,0.000,0.000,0.000,0,00:00:00,-1032,0.000,0.000,91153.680,9.258,0.000,0.000,1.037,-9.769,-0.022,-0.016,0.000,0.003,0.000,0.000
22.133,0,0,-1.104,-0.081,-6.832,-2.609,-0.129,-12.674,-2.120,-0.193,-9.673,0.000,0.000,0.0116870,0.000,9144.000,0.010,6.662,3.802,1.904,911.510,9.257,883.216,-0.335,-9.845,-0.137,1.072,-0.003,0.049,0.028,0.000,0.000,0.000,0.001,0.668,-0.003,0.744,0.0000000,0.0000000,0.000,0.000,0.000,0.000,0,00:00:00,-1032,0.000,0.000,91161.719,9.263,0.000,0.000,1.012,-9.750,0.045,0.004,0.025,0.006,0.000,0.000
22.334,0,0,-1.419,-0.092,-7.188,-2.862,-0.139,-12.694,-1.815,-0.087,-9.548,0.000,0.000,0.0116870,0.000,9144.000,0.010,6.154,4.193,1.956,911.459,9.254,883.682,0.131,-9.683,-0.034,0.844,-0.003,-0.037,-0.016,0.000,0.000,0.000,-0.000,0.671,-0.004,0.742,0.0000000,0.0000000,0.000,0.000,0.000,0.000,0,00:00:00,-1032,0.000,0.000,91137.734,9.249,0.000,0.000,0.990,-9.773,-0.076,0.011,-0.001,-0.001,0.000,0.000
22.535,0,0,-1.727,-0.105,-7.381,-3.129,-0.161,-12.602,-2.071,-0.154,-9.576,0.000,0.000,0.0116870,0.000,9144.000,0.011,5.781,4.594,2.003,911.455,9.253,883.714,0.163,-9.740,-0.012,1.066,0.048,0.010,0.008,0.000,0.000,0.000,0.004,0.669,-0.006,0.743,0.0000000,0.0000000,0.000,0.000,0.000,0.000,0,00:00:00,-1032,0.000,0.000,91147.594,9.255,0.000,0.000,1.040,-9.699,0.018,-0.004,-0.000,-0.004,0.000,0.000
22.736,0,0,-2.016,-0.123,-7.523,-3.282,-0.234,-12.512,-1.699,-0.419,-9.590,0.000,0.000,0.0116870,0.000,9144.000,0.012,5.955,5.003,2.047,911.481,9.255,883.481,-0.069,-9.709,-0.260,0.832,0.000,0.041,-0.026,0.000,0.000,0.000,-0.001,0.674,-0.011,0.738,0.0000000,0.0000000,0.000,0.000,0.000,0.000,0,00:00:00,-1032,0.000,0.000,91149.797,9.256,0.000,0.000,1.011,-9.719,0.031,-0.005,-0.008,-0.005,0.000,0.000
22.937,0,0,-2.272,-0.150,-7.587,-3.383,-0.305,-12.402,-1.631,-0.430,-9.601,0.000,0.000,0.0116870,0.000,9144.000,0.012,5.188,5.421,2.089,911.481,9.255,883.481,-0.069,-9.709,-0.260,0.832,0.000,0.041,-0.026,0.000,0.000,0.000,-0.004,0.677,-0.014,0.736,0.0000000,0.0000000,0.000,0.000,0.000,0.000,0,00:00:00,-1032,0.000,0.000,91149.797,9.256,0.000,0.000,1.011,-9.719,0.031,-0.005,-0.008,-0.005,0.000,0.000
23.138,0,0,-2.490,-0.175,-7.523,-3.447,-0.271,-12.255,-1.614,0.079,-9.702,0.000,0.000,0.0116870,0.000,9144.000,0.012,4.803,5.843,2.111,911.446,9.253,883.794,0.244,-9.799,0.203,0.820,-0.017,0.023,-0.019,0.000,0.000,0.000,0.003,0.678,-0.006,0.735,0.0000000,0.0000000,0.000,0.000,0.000,0.000,0,00:00:00,-1032,0.000,0.000,91147.539,9.255,0.000,0.000,0.967,-9.680,0.100,0.017,0.007,-0.017,0.000,0.000
23.339,0,0,-2.672,-0.192,-7.581,-3.530,-0.277,-12.233,-1.855,-0.132,-9.663,0.000,0.000,0.0116870,0.000,9144.000,0.012,4.659,6.271,2.140,911.501,9.256,883.293,-0.258,-9.792,0.044,0.973,0.026,-0.004,-0.022,0.000,0.000,0.000,0.005,0.674,-0.007,0.738,0.0000000,0.0000000,0.000,0.000,0.000,0.000,0,00:00:00,-1032,0.000,0.000,91150.273,9.256,0.000,0.000,1.040,-9.762,-0.049,-0.001,0.003,-0.001,0.000,0.000
23.540,0,0,-2.826,-0.207,-7.580,-3.604,-0.283,-12.149,-1.935,-0.146,-9.469,0.000,0.000,0.0116870,0.000,9144.000,0.013,5.193,6.713,2.208,911.485,9.255,883.439,-0.111,-9.611,0.082,1.024,0.030,0.029,-0.008,0.000,0.000,0.000,0.009,0.673,-0.008,0.740,0.0000000,0.0000000,0.000,0.000,0.000,0.000,0,00:00:00,-1032,0.000,0.000,91154.930,9.259,0.000,0.000,1.012,-9.752,0.053,-0.004,0.006,-0.004,0.000,0.000
23.741,0,0,-2.954,-0.223,-7.490,-3.659,-0.331,-12.041,-1.938,-0.367,-9.590,0.000,0.000,0.0116870,0.000,9144.000,0.013,5.468,7.163,2.252,911.450,9.253,883.760,0.209,-9.740,-0.091,0.984,0.021,-0.007,0.005,0.000,0.000,0.000,0.009,0.671,-0.011,0.741,0.0000000,0.0000000,0.000,0.000,0.000,0.000,0,00:00:00,-1032,0.000,0.000,91147.531,9.255,0.000,0.000,0.947,-9.751,0.047,-0.007,0.019,0.010,0.000,0.000
23.942,0,0,-3.057,-0.243,-7.558,-3.669,-0.371,-12.098,-1.788,-0.334,-9.725,0.000,0.000,0.0116870,0.000,9144.000,0.013,5.658,7.617,2.270,911.508,9.257,883.236,-0.339,-9.855,0.006,0.867,0.032,-0.007,-0.002,0.000,0.000,0.000,0.011,0.673,-0.013,0.739,0.0000000,0.0000000,0.000,0.000,0.000,0.000,0,00:00:00,-1032,0.000,0.000,91141.664,9.251,0.000,0.000,0.899,-9.749,-0.001,-0.002,-0.016,0.001,0.000,0.000
24.143,0,0,-3.142,-0.263,-7.474,-3.735,-0.376,-11.982,-2.126,-0.176,-9.439,0.000,0.000,0.0116870,0.000,9144.000,0.013,5.385,8.086,2.344,911.454,9.253,883.725,0.215,-9.612,0.120,1.113,-0.005,-0.014,0.061,0.000,0.000,0.000,0.015,0.668,-0.008,0.744,0.0000000,0.0000000,0.000,0.000,0.000,0.000,0,00:00:00,-1032,0.000,0.000,91151.289,9.257,0.000,0.000,1.022,-9.762,0.004,0.003,0.002,-0.007,0.000,0.000
24.344,0,0,-3.216,-0.278,-7.406,-3.776,-0.360,-11.917,-2.044,-0.084,-9.549,0.000,0.000,0.0116870,0.000,9144.000,0.013,6.074,8.565,2.396,911.459,9.254,883.680,0.189,-9.712,0.148,1.007,-0.029,-0.027,0.042,0.000,0.000,0.000,0.015,0.668,-0.004,0.744,0.0000000,0.0000000,0.000,0.000,0.000,0.000,0,00:00:00,-1032,0.000,0.000,91149.797,9.256,0.000,0.000,1.038,-9.834,-0.065,-0.012,0.004,-0.004,0.000,0.000
24.545,0,0,-3.279,-0.289,-7.396,-3.795,-0.362,-11.915,-1.968,-0.174,-9.606,0.000,0.000,0.0116870,0.000,9144.000,0.013,6.155,9.053,2.437,911.477,9.255,883.515,0.016,-9.759,0.011,0.971,-0.031,0.006,-0.010,0.000,0.000,0.000,0.010,0.670,-0.005,0.742,0.0000000,0.0000000,0.000,0.000,0.000,0.000,0,00:00:00,-1032,0.000,0.000,91145.703,9.254,0.000,0.000,0.961,-9.763,0.017,0.014,-0.001,-0.003,0.000,0.000
24.746,0,0,-3.335,-0.297,-7.370,-3.845,-0.348,-11.928,-2.149,-0.098,-9.756,0.000,0.000,0.0116870,0.000,9144.000,0.014,5.886,9.542,2.448,911.467,9.254,883.602,0.104,-9.927,0.067,1.123,-0.016,0.035,-0.027,0.000,0.000,0.000,0.007,0.669,-0.005,0.743,0.0000000,0.0000000,0.000,0.000,0.000,0.000,0,00:00:00,-1032,0.000,0.000,91151.688,9.257,0.000,0.000,1.113,-9.778,-0.038,0.002,-0.008,-0.011,0.000,0.000
24.947,0,0,-3.386,-0.301,-7.402,-3.861,-0.327,-11.952,-1.999,-0.065,-9.598,0.000,0.000,0.0116870,0.000,9144.000,0.014,5.968,10.040,2.490,911.488,9.255,883.417,-0.091,-9.752,0.090,1.005,0.000,0.008,0.019,0.000,0.000,0.000,0.009,0.670,-0.003,0.742,0.0000000,0.0000000,0.000,0.000,0.000,0.000,0,00:00:00,-1032,0.000,0.000,91149.055,9.256,0.000,0.000,1.015,-9.696,-0.052,0.027,0.005,0.011,0.000,0.000
25.148,0,0,-3.428,-0.299,-7.509,-3.849,-0.287,-12.024,-1.873,0.030,-9.577,0.000,0.000,0.0116870,0.000,9144.000,0.014,5.878,10.548,2.537,911.520,9.257,883.124,-0.398,-9.713,0.118,0.940,-0.038,0.029,-0.027,0.000,0.000,0.000,0.006,0.672,-0.001,0.740,0.0000000,0.0000000,0.000,0.000,0.000,0.000,0,00:00:00,-1032,0.000,0.000,91148.086,9.255,0.000,0.000,0.989,-9.798,-0.021,0.004,0.008,-0.002,0.000,0.000
25.349,0,0,-3.462,-0.293,-7.450,-3.850,-0.283,-11.951,-1.948,-0.146,-9.525,0.000,0.000,0.0116870,0.000,9144.000,0.014,5.539,11.066,2.594,911.457,9.254,883.694,0.174,-9.672,-0.050,0.988,0.001,-0.008,-0.001,0.000,0.000,0.000,0.004,0.671,-0.003,0.742,0.0000000,0.0000000,0.000,0.000,0.000,0.000,0,00:00:00,-1032,0.000,0.000,91148.219,9.255,0.000,0.000,0.989,-9.717,-0.032,-0.009,-0.010,0.010,0.000,0.000
25.550,0,0,-3.491,-0.287,-7.372,-3.852,-0.271,-11.897,-1.966,-0.100,-9.651,0.000,0.000,0.0116870,0.000,9144.000,0.014,5.728,11.591,2.625,911.446,9.253,883.798,0.273,-9.799,-0.004,0.997,-0.005,0.012,-0.027,0.000,0.000,0.000,0.002,0.671,-0.004,0.741,0.0000000,0.0000000,0.000,0.000,0.000,0.000,0,00:00:00,-1032,0.000,0.000,91149.938,9.256,0.000,0.000,1.114,-9.749,0.037,0.005,0.003,-0.012,0.000,0.000
25.751,0,0,-3.517,-0.283,-7.415,-3.864,-0.282,-11.944,-2.020,-0.216,-9.667,0.000,0.000,0.0116870,0.000,9144.000,0.014,5.702,12.122,2.654,911.491,9.256,883.388,-0.151,-9.823,-0.123,1.039,-0.004,0.018,0.003,0.000,0.000,0.000,0.000,0.671,-0.006,0.742,0.0000000,0.0000000,0.000,0.000,0.000,0.000,0,00:00:00,-1032,0.000,0.000,91154.969,9.259,0.000,0.000,1.039,-9.841,-0.048,-0.008,-0.015,0.005,0.000,0.000
25.952,0,0,-3.540,-0.279,-7.411,-3.860,-0.266,-11.956,-1.948,-0.073,-9.706,0.000,0.000,0.0116870,0.000,9144.000,0.014,5.769,12.657,2.675,911.475,9.255,883.528,0.019,-9.853,0.005,0.959,-0.000,-0.022,0.038,0.000,0.000,0.000,0.003,0.670,-0.003,0.742,0.0000000,0.0000000,0.000,0.000,0.000,0.000,0,00:00:00,-1032,0.000,0.000,91149.414,9.256,0.000,0.000,0.980,-9.708,-0.041,0.008,-0.005,-0.005,0.000,0.000
26.153,0,0,-3.562,-0.275,-7.374,-3.890,-0.278,-11.899,-2.127,-0.214,-9.482,0.000,0.000,0.0116870,0.000,9144.000,0.014,5.790,13.205,2.741,911.456,9.254,883.705,0.145,-9.659,-0.062,1.083,0.033,-0.027,-0.025,0.000,0.000,0.000,0.003,0.667,-0.007,0.745,0.0000000,0.0000000,0.000,0.000,0.000,0.000,0,00:00:00,-1032,0.000,0.000,91145.883,9.254,0.000,0.000,1.064,-9.676,0.095,0.000,-0.007,0.003,0.000,0.000
26.354,0,0,-3.583,-0.276,-7.430,-3.876,-0.312,-11.939,-1.909,-0.320,-9.581,0.000,0.000,0.0116870,0.000,9144.000,0.014,6.250,13.762,2.786,911.495,9.256,883.353,-0.207,-9.729,-0.157,0.932,0.006,0.009,0.020,0.000,0.000,0.000,0.002,0.670,-0.009,0.742,0.0000000,0.0000000,0.000,0.000,0.000,0.000,0,00:00:00,-1032,0.000,0.000,91146.172,9.254,0.000,0.000,0.990,-9.793,0.008,-0.020,-0.011,-0.008,0.000,0.000
26.555,0,0,-3.597,-0.281,-7.408,-3.852,-0.335,-11.930,-1.873,-0.270,-9.662,0.000,0.000,0.0116870,0.000,9144.000,0.014,5.811,14.326,2.816,911.467,9.254,883.605,0.064,-9.800,-0.114,0.947,-0.002,0.035,0.022,0.000,0.000,0.000,0.002,0.673,-0.008,0.740,0.0000000,0.0000000,0.000,0.000,0.000,0.000,0,00:00:00,-1032,0.000,0.000,91144.750,9.253,0.000,0.000,1.003,-9.765,-0.002,0.006,-0.007,0.001,0.000,0.000
26.756,0,0,-3.609,-0.289,-7.460,-3.870,-0.357,-11.950,-2.083,-0.268,-9.516,0.000,0.000,0.0116870,0.000,9144.000,0.014,5.462,14.901,2.875,911.496,9.256,883.339,-0.214,-9.682,-0.052,1.101,0.028,0.019,-0.027,0.000,0.000,0.000,0.004,0.670,-0.011,0.742,0.0000000,0.0000000,0.000,0.000,0.000,0.000,0,00:00:00,-1032,0.000,0.000,91149.625,9.256,0.000,0.000,0.980,-9.739,-0.061,0.020,-0.014,-0.004,0.000,0.000
26.957,0,0,-3.621,-0.299,-7.482,-3.871,-0.371,-11.980,-2.003,-0.236,-9.706,0.000,0.000,0.0116870,0.000,9144.000,0.014,5.867,15.480,2.896,911.487,9.255,883.420,-0.125,-9.860,0.028,1.020,0.029,0.023,0.019,0.000,0.000,0.000,0.009,0.671,-0.010,0.742,0.0000000,0.0000000,0.000,0.000,0.000,0.000,0,00:00:00,-1032,0.000,0.000,91146.141,9.254,0.000,0.000,1.020,-9.752,-0.022,0.002,-0.010,-0.000,0.000,0.000
27.158,0,0,-3.631,-0.313,-7.477,-3.868,-0.419,-11.968,-1.987,-0.412,-9.610,0.000,0.000,0.0116870,0.000,9144.000,0.014,5.755,16.067,2.936,911.485,9.255,883.445,-0.034,-9.772,-0.099,0.992,0.024,-0.021,-0.002,0.000,0.000,0.000,0.009,0.670,-0.014,0.742,0.0000000,0.0000000,0.000,0.000,0.000,0.000,0,00:00:00,-1032,0.000,0.000,91150.539,9.256,0.000,0.000,1.066,-9.706,-0.030,-0.002,-0.011,0.022,0.000,0.000
27.359,0,0,-3.646,-0.328,-7.439,-3.952,-0.424,-11.919,-2.430,-0.206,-9.538,0.000,0.000,0.0116870,0.000,9144.000,0.015,5.897,16.665,2.990,911.467,9.254,883.608,0.089,-9.755,0.046,1.325,-0.027,0.046,0.016,0.000,0.000,0.000,0.009,0.665,-0.009,0.746,0.0000000,0.0000000,0.000,0.000,0.000,0.000,0,00:00:00,-1032,0.000,0.000,91166.258,9.266,0.000,0.000,1.057,-9.725,0.067,-0.001,0.001,0.011,0.000,0.000
27.560,0,0,-3.674,-0.340,-7.412,-4.044,-0.416,-11.884,-2.486,-0.146,-9.525,0.000,0.000,0.0116870,0.000,9144.000,0.015,6.556,17.274,3.047,911.467,9.254,883.608,0.053,-9.755,0.046,1.325,-0.027,0.046,0.016,0.000,0.000,0.000,0.008,0.663,-0.006,0.748,0.0000000,0.0000000,0.000,0.000,0.000,0.000,0,00:00:00,-1032,0.000,0.000,91166.258,9.266,0.000,0.000,1.057,-9.725,0.067,-0.001,0.001,0.011,0.000,0.000
27.761,0,0,-3.711,-0.346,-7.441,-4.122,-0.372,-11.890,-2.439,0.028,-9.492,0.000,0.000,0.0116870,0.000,9144.000,0.015,6.886,17.896,3.111,911.494,9.256,883.361,-0.157,-9.720,0.144,1.249,-0.030,0.003,0.030,0.000,0.000,0.000,0.009,0.662,-0.001,0.749,0.0000000,0.0000000,0.000,0.000,0.000,0.000,0,00:00:00,-1032,0.000,0.000,91155.406,9.259,0.000,0.000,0.951,-9.738,-0.084,-0.016,-0.024,0.007,0.000,0.000
27.962,0,0,-3.749,-0.349,-7.540,-4.140,-0.390,-11.945,-2.158,-0.287,-9.483,0.000,0.000,0.0116870,0.000,9144.000,0.016,7.088,18.532,3.176,911.523,9.258,883.093,-0.454,-9.674,-0.120,1.029,0.019,-0.029,0.002,0.000,0.000,0.000,0.006,0.664,-0.006,0.747,0.0000000,0.0000000,0.000,0.000,0.000,0.000,0,00:00:00,-1032,0.000,0.000,91152.977,9.258,0.000,0.000,1.049,-9.778,0.023,0.010,-0.003,0.004,0.000,0.000
28.163,0,0,-3.778,-0.350,-7.534,-4.090,-0.348,-11.921,-1.837,0.020,-9.522,0.000,0.000,0.0116870,0.000,9144.000,0.016,6.748,19.178,3.234,911.486,9.255,883.433,-0.112,-9.658,0.144,0.860,-0.018,0.015,0.009,0.000,0.000,0.000,0.008,0.670,-0.002,0.742,0.0000000,0.0000000,0.000,0.000,0.000,0.000,0,00:00:00,-1032,0.000,0.000,91150.883,9.257,0.000,0.000,1.067,-9.759,0.072,0.002,0.002,0.009,0.000,0.000
28.364,0,0,-3.797,-0.343,-7.505,-4.083,-0.307,-11.925,-2.063,0.011,-9.745,0.000,0.000,0.0116870,0.000,9144.000,0.016,5.832,19.828,3.247,911.479,9.255,883.495,-0.018,-9.906,0.201,1.024,0.036,-0.033,-0.003,0.000,0.000,0.000,0.012,0.669,-0.003,0.743,0.0000000,0.0000000,0.000,0.000,0.000,0.000,0,00:00:00,-1032,0.000,0.000,91141.336,9.251,0.000,0.000,0.997,-9.769,-0.008,0.015,-0.015,-0.007,0.000,0.000
28.565,0,0,-3.812,-0.336,-7.495,-4.078,-0.324,-11.913,-2.082,-0.268,-9.589,0.000,0.000,0.0116870,0.000,9144.000,0.016,6.054,20.486,3.291,911.484,9.255,883.452,-0.069,-9.760,-0.037,1.054,0.020,0.005,0.009,0.000,0.000,0.000,0.011,0.669,-0.007,0.744,0.0000000,0.0000000,0.000,0.000,0.000,0.000,0,00:00:00,-1032,0.000,0.000,91145.891,9.254,0.000,0.000,1.090,-9.750,0.071,0.002,0.001,0.004,0.000,0.000
28.766,0,0,-3.823,-0.333,-7.493,-4.065,-0.349,-11.909,-2.046,-0.310,-9.588,0.000,0.000,0.0116870,0.000,9144.000,0.016,6.078,21.153,3.335,911.490,9.256,883.397,-0.098,-9.756,-0.065,1.013,0.003,-0.019,-0.006,0.000,0.000,0.000,0.008,0.668,-0.010,0.744,0.0000000,0.0000000,0.000,0.000,0.000,0.000,0,00:00:00,-1032,0.000,0.000,91152.328,9.258,0.000,0.000,1.002,-9.719,-0.021,0.014,-0.002,-0.007,0.000,0.000
28.967,0,0,-3.831,-0.335,-7.491,-4.063,-0.374,-11.901,-2.108,-0.307,-9.564,0.000,0.000,0.0116870,0.000,9144.000,0.016,6.114,21.830,3.384,911.490,9.256,883.396,-0.100,-9.741,-0.071,1.050,-0.009,-0.027,-0.013,0.000,0.000,0.000,0.006,0.667,-0.011,0.745,0.0000000,0.0000000,0.000,0.000,0.000,0.000,0,00:00:00,-1032,0.000,0.000,91146.266,9.254,0.000,0.000,0.950,-9.716,0.035,-0.017,0.021,0.003,0.000,0.000
29.168,0,0,-3.838,-0.340,-7.393,-4.084,-0.396,-11.824,-2.223,-0.298,-9.571,0.000,0.000,0.0116870,0.000,9144.000,0.016,6.286,22.516,3.432,911.446,9.253,883.799,0.271,-9.764,-0.087,1.127,-0.016,-0.011,-0.007,0.000,0.000,0.000,0.004,0.666,-0.010,0.746,0.0000000,0.0000000,0.000,0.000,0.000,0.000,0,00:00:00,-1032,0.000,0.000,91139.883,9.250,0.000,0.000,1.038,-9.789,0.073,-0.015,-0.006,-0.004,0.000,0.000
29.369,0,0,-3.845,-0.348,-7.487,-4.069,-0.416,-11.917,-2.055,-0.292,-9.656,0.000,0.000,0.0116870,0.000,9144.000,0.016,6.500,23.209,3.463,911.522,9.257,883.107,-0.412,-9.825,-0.035,1.011,0.027,0.008,0.017,0.000,0.000,0.000,0.007,0.668,-0.011,0.744,0.0000000,0.0000000,0.000,0.000,0.000,0.000,0,00:00:00,-1032,0.000,0.000,91142.203,9.252,0.000,0.000,1.011,-9.740,0.059,-0.010,0.004,-0.026,0.000,0.000
29.570,0,0,-3.845,-0.358,-7.436,-4.012,-0.437,-11.847,-1.838,-0.302,-9.424,0.000,0.000,0.0116870,0.000,9144.000,0.016,6.144,23.917,3.540,911.469,9.254,883.589,0.089,-9.565,-0.076,0.882,-0.014,-0.014,-0.009,0.000,0.000,0.000,0.005,0.671,-0.011,0.742,0.0000000,0.0000000,0.000,0.000,0.000,0.000,0,00:00:00,-1032,0.000,0.000,91150.055,9.256,0.000,0.000,1.097,-9.747,0.016,-0.007,0.000,0.019,0.000,0.000
29.771,0,0,-3.836,-0.367,-7.421,-3.969,-0.425,-11.818,-1.909,-0.140,-9.458,0.000,0.000,0.0116870,0.000,9144.000,0.016,5.782,24.639,3.611,911.483,9.255,883.464,-0.034,-9.602,0.071,0.951,-0.004,-0.006,0.006,0.000,0.000,0.000,0.008,0.671,-0.008,0.742,0.0000000,0.0000000,0.000,0.000,0.000,0.000,0,00:00:00,-1032,0.000,0.000,91147.789,9.255,0.000,0.000,0.935,-9.766,-0.011,0.000,-0.010,-0.018,0.000,0.000
29.972,0,0,-3.827,-0.372,-7.327,-3.985,-0.407,-11.753,-2.195,-0.119,-9.553,0.000,0.000,0.0116870,0.000,9144.000,0.016,5.755,25.371,3.662,911.453,9.253,883.730,0.276,-9.738,0.091,1.126,0.006,-0.029,0.033,0.000,0.000,0.000,0.011,0.667,-0.006,0.745,0.0000000,0.0000000,0.000,0.000,0.000,0.000,0,00:00:00,-1032,0.000,0.000,91143.094,9.252,0.000,0.000,1.002,-9.707,-0.103,0.009,0.015,-0.020,0.000,0.000
30.173,0,0,-3.817,-0.376,-7.293,-3.938,-0.422,-11.793,-1.874,-0.280,-9.821,0.000,0.000,0.0116870,0.000,9144.000,0.016,6.341,26.103,3.660,911.474,9.255,883.542,0.115,-9.964,-0.040,0.877,0.009,-0.015,-0.000,0.000,0.000,0.000,0.009,0.671,-0.008,0.742,0.0000000,0.0000000,0.000,0.000,0.000,0.000,0,00:00:00,-1032,0.000,0.000,91141.242,9.251,0.000,0.000,0.959,-9.717,0.020,0.005,-0.005,0.000,0.000,0.000
30.374,0,0,-3.801,-0.382,-7.189,-3.895,-0.443,-11.738,-1.889,-0.316,-9.629,0.000,0.000,0.0116870,0.000,9144.000,0.016,5.771,26.843,3.696,911.437,9.252,883.873,0.432,-9.772,-0.045,0.939,0.015,0.003,-0.006,0.000,0.000,0.000,0.009,0.672,-0.011,0.741,0.0000000,0.0000000,0.000,0.000,0.000,0.000,0,00:00:00,-1032,0.000,0.000,91149.664,9.256,0.000,0.000,0.990,-9.719,0.029,-0.005,-0.001,-0.011,0.000,0.000
30.575,0,0,-3.782,-0.388,-7.254,-3.869,-0.437,-11.837,-1.960,-0.189,-9.731,0.000,0.000,0.0116870,0.000,9144.000,0.016,5.611,27.585,3.712,911.502,9.256,883.284,-0.142,-9.879,0.058,0.995,-0.017,0.008,-0.035,0.000,0.000,0.000,0.008,0.671,-0.010,0.741,0.0000000,0.0000000,0.000,0.000,0.000,0.000,0,00:00:00,-1032,0.000,0.000,91146.992,9.254,0.000,0.000,1.139,-9.696,0.022,-0.002,-0.002,-0.016,0.000,0.000
30.776,0,0,-3.762,-0.392,-7.318,-3.845,-0.426,-11.921,-1.962,-0.162,-9.732,0.000,0.000,0.0116870,0.000,9144.000,0.016,5.635,28.331,3.728,911.502,9.256,883.284,-0.147,-9.879,0.058,0.995,-0.017,0.008,-0.035,0.000,0.000,0.000,0.007,0.671,-0.009,0.741,0.0000000,0.0000000,0.000,0.000,0.000,0.000,0,00:00:00,-1032,0.000,0.000,91146.992,9.254,0.000,0.000,1.139,-9.696,0.022,-0.002,-0.002,-0.016,0.000,0.000
30.977,0,0,-3.744,-0.396,-7.284,-3.846,-0.438,-11.923,-2.073,-0.275,-9.757,0.000,0.000,0.0116870,0.000,9144.000,0.016,5.647,29.078,3.738,911.462,9.254,883.646,0.217,-9.920,-0.096,1.076,-0.023,0.019,0.005,0.000,0.000,0.000,0.004,0.670,-0.008,0.742,0.0000000,0.0000000,0.000,0.000,0.000,0.000,0,00:00:00,-1032,0.000,0.000,91150.539,9.256,0.000,0.000,1.031,-9.707,-0.049,0.004,-0.004,-0.002,0.000,0.000
31.178,0,0,-3.729,-0.398,-7.271,-3.855,-0.423,-11.889,-2.106,-0.146,-9.480,0.000,0.000,0.0116870,0.000,9144.000,0.016,5.808,29.839,3.804,911.466,9.254,883.617,0.153,-9.652,0.057,1.075,0.018,-0.015,0.001,0.000,0.000,0.000,0.007,0.668,-0.008,0.744,0.0000000,0.0000000,0.000,0.000,0.000,0.000,0,00:00:00,-1032,0.000,0.000,91154.891,9.259,0.000,0.000,1.011,-9.736,-0.020,-0.004,0.025,0.012,0.000,0.000
31.379,0,0,-3.716,-0.399,-7.312,-3.831,-0.428,-11.964,-1.939,-0.248,-9.818,0.000,0.000,0.0116870,0.000,9144.000,0.016,6.169,30.600,3.803,911.492,9.256,883.374,-0.040,-9.965,-0.047,0.952,-0.003,0.018,0.016,0.000,0.000,0.000,0.007,0.671,-0.008,0.741,0.0000000,0.0000000,0.000,0.000,0.000,0.000,0,00:00:00,-1032,0.000,0.000,91141.836,9.251,0.000,0.000,1.003,-9.744,-0.005,0.010,-0.015,-0.010,0.000,0.000
31.580,0,0,-3.703,-0.399,-7.254,-3.827,-0.406,-11.856,-2.025,-0.109,-9.297,0.000,0.000,0.0116870,0.000,9144.000,0.016,5.711,31.381,3.905,911.454,9.253,883.726,0.314,-9.458,0.113,1.035,0.019,-0.010,-0.006,0.000,0.000,0.000,0.010,0.669,-0.007,0.743,0.0000000,0.0000000,0.000,0.000,0.000,0.000,0,00:00:00,-1032,0.000,0.000,91147.547,9.255,0.000,0.000,1.088,-9.737,-0.013,-0.002,-0.003,-0.009,0.000,0.000
31.781,0,0,-3.689,-0.399,-7.116,-3.792,-0.433,-11.772,-1.868,-0.354,-9.659,0.000,0.000,0.0116870,0.000,9144.000,0.016,6.038,32.168,3.935,911.417,9.251,884.063,0.640,-9.801,-0.139,0.914,-0.008,0.012,0.035,0.000,0.000,0.000,0.007,0.672,-0.008,0.741,0.0000000,0.0000000,0.000,0.000,0.000,0.000,0,00:00:00,-1032,0.000,0.000,91152.102,9.257,0.000,0.000,1.001,-9.737,-0.004,-0.017,-0.001,-0.006,0.000,0.000
31.982,0,0,-3.671,-0.403,-7.018,-3.752,-0.455,-11.732,-1.831,-0.334,-9.666,0.000,0.000,0.0116870,0.000,9144.000,0.016,5.616,32.960,3.964,911.417,9.251,884.063,0.577,-9.801,-0.139,0.914,-0.008,0.012,0.035,0.000,0.000,0.000,0.005,0.673,-0.009,0.740,0.0000000,0.0000000,0.000,0.000,0.000,0.000,0,00:00:00,-1032,0.000,0.000,91152.102,9.257,0.000,0.000,1.001,-9.737,-0.004,-0.017,-0.001,-0.006,0.000,0.000
32.183,0,0,-3.651,-0.409,-7.103,-3.729,-0.464,-11.815,-1.900,-0.270,-9.562,0.000,0.000,0.0116870,0.000,9144.000,0.016,5.405,33.763,4.014,911.486,9.255,883.435,-0.062,-9.705,-0.059,0.960,0.007,-0.012,-0.009,0.000,0.000,0.000,0.005,0.672,-0.010,0.741,0.0000000,0.0000000,0.000,0.000,0.000,0.000,0,00:00:00,-1032,0.000,0.000,91151.461,9.257,0.000,0.000,0.991,-9.698,0.039,0.002,-0.013,-0.000,0.000,0.000
32.384,0,0,-3.632,-0.414,-7.180,-3.715,-0.454,-11.869,-1.940,-0.179,-9.502,0.000,0.000,0.0116870,0.000,9144.000,0.016,5.595,34.578,4.076,911.483,9.255,883.462,-0.073,-9.649,-0.032,0.986,-0.032,0.001,0.005,0.000,0.000,0.000,0.003,0.671,-0.007,0.741,0.0000000,0.0000000,0.000,0.000,0.000,0.000,0,00:00:00,-1032,0.000,0.000,91149.938,9.256,0.000,0.000,0.971,-9.672,0.072,-0.008,0.004,0.001,0.000,0.000
32.585,0,0,-3.614,-0.414,-7.188,-3.706,-0.418,-11.885,-1.955,-0.050,-9.623,0.000,0.000,0.0116870,0.000,9144.000,0.017,5.709,35.401,4.113,911.459,9.254,883.676,0.158,-9.771,0.035,0.977,-0.029,-0.012,0.009,0.000,0.000,0.000,0.003,0.671,-0.003,0.742,0.0000000,0.0000000,0.000,0.000,0.000,0.000,0,00:00:00,-1032,0.000,0.000,91142.750,9.252,0.000,0.000,1.006,-9.674,-0.033,-0.005,0.001,-0.005,0.000,0.000
32.786,0,0,-3.596,-0.407,-7.235,-3.674,-0.370,-11.927,-1.827,0.014,-9.610,0.000,0.000,0.0116870,0.000,9144.000,0.017,5.778,36.232,4.153,911.477,9.255,883.510,0.003,-9.740,0.078,0.904,-0.006,0.014,0.019,0.000,0.000,0.000,0.005,0.673,-0.001,0.740,0.0000000,0.0000000,0.000,0.000,0.000,0.000,0,00:00:00,-1032,0.000,0.000,91160.023,9.262,0.000,0.000,1.031,-9.738,-0.012,-0.027,0.002,0.004,0.000,0.000
32.987,0,0,-3.577,-0.395,-7.264,-3.666,-0.343,-11.930,-1.940,-0.084,-9.519,0.000,0.000,0.0116870,0.000,9144.000,0.017,5.460,37.074,4.211,911.470,9.254,883.580,0.049,-9.663,-0.064,0.999,-0.023,0.013,0.021,0.000,0.000,0.000,0.001,0.672,-0.000,0.741,0.0000000,0.0000000,0.000,0.000,0.000,0.000,0,00:00:00,-1032,0.000,0.000,91148.547,9.255,0.000,0.000,1.047,-9.767,-0.048,-0.005,-0.018,0.002,0.000,0.000
33.188,0,0,-3.564,-0.382,-7.245,-3.695,-0.333,-11.926,-2.111,-0.160,-9.666,0.000,0.000,0.0116870,0.000,9144.000,0.017,5.612,37.922,4.240,911.454,9.253,883.725,0.211,-9.834,-0.101,1.099,0.012,0.008,-0.033,0.000,0.000,0.000,-0.001,0.669,-0.004,0.743,0.0000000,0.0000000,0.000,0.000,0.000,0.000,0,00:00:00,-1032,0.000,0.000,91149.938,9.256,0.000,0.000,0.861,-9.734,0.023,0.000,0.014,-0.010,0.000,0.000
33.389,0,0,-3.552,-0.370,-7.337,-3.657,-0.328,-11.990,-1.779,-0.180,-9.590,0.000,0.000,0.0116870,0.000,9144.000,0.017,5.947,38.779,4.284,911.496,9.256,883.340,-0.201,-9.715,-0.141,0.867,-0.008,0.018,0.019,0.000,0.000,0.000,-0.002,0.673,-0.004,0.740,0.0000000,0.0000000,0.000,0.000,0.000,0.000,0,00:00:00,-1032,0.000,0.000,91145.773,9.254,0.000,0.000,0.914,-9.797,0.005,-0.005,0.020,0.005,0.000,0.000
33.590,0,0,-3.539,-0.357,-7.498,-3.659,-0.288,-12.097,-1.962,0.003,-9.594,0.000,0.000,0.0116870,0.000,9144.000,0.017,5.418,39.644,4.327,911.530,9.258,883.032,-0.522,-9.742,-0.026,0.995,-0.034,-0.018,0.005,0.000,0.000,0.000,-0.003,0.671,-0.001,0.742,0.0000000,0.0000000,0.000,0.000,0.000,0.000,0,00:00:00,-1032,0.000,0.000,91146.695,9.254,0.000,0.000,1.032,-9.736,-0.003,0.005,-0.003,-0.025,0.000,0.000
33.791,0,0,-3.526,-0.342,-7.484,-3.628,-0.286,-12.093,-1.797,-0.183,-9.779,0.000,0.000,0.0116870,0.000,9144.000,0.017,5.728,40.511,4.333,911.459,9.254,883.673,0.059,-9.905,-0.183,0.867,0.012,-0.010,-0.009,0.000,0.000,0.000,-0.005,0.673,-0.004,0.740,0.0000000,0.0000000,0.000,0.000,0.000,0.000,0,00:00:00,-1032,0.000,0.000,91139.086,9.250,0.000,0.000,1.010,-9.687,0.012,0.002,0.006,0.005,0.000,0.000
33.992,0,0,-3.510,-0.327,-7.539,-3.597,-0.247,-12.119,-1.786,0.015,-9.668,0.000,0.000,0.0116870,0.000,9144.000,0.017,5.421,41.383,4.362,911.484,9.255,883.451,-0.196,-9.791,0.070,0.891,0.026,0.009,-0.049,0.000,0.000,0.000,-0.001,0.674,-0.004,0.739,0.0000000,0.0000000,0.000,0.000,0.000,0.000,0,00:00:00,-1032,0.000,0.000,91142.422,9.252,0.000,0.000,0.964,-9.779,-0.003,-0.003,0.012,0.007,0.000,0.000
34.193,0,0,-3.497,-0.310,-7.615,-3.627,-0.234,-12.154,-2.084,-0.105,-9.648,0.000,0.000,0.0116870,0.000,9144.000,0.017,5.262,42.262,4.394,911.499,9.256,883.314,-0.323,-9.812,-0.082,1.079,-0.016,-0.026,0.008,0.000,0.000,0.000,-0.002,0.670,-0.003,0.743,0.0000000,0.0000000,0.000,0.000,0.000,0.000,0,00:00:00,-1032,0.000,0.000,91144.781,9.253,0.000,0.000,1.023,-9.718,0.018,-0.004,0.008,0.000,0.000,0.000
34.394,0,0,-3.490,-0.290,-7.605,-3.634,-0.179,-12.103,-1.966,0.111,-9.567,0.000,0.000,0.0116870,0.000,9144.000,0.017,5.919,43.150,4.443,911.473,9.255,883.547,-0.048,-9.718,0.108,0.975,-0.009,-0.010,-0.007,0.000,0.000,0.000,0.000,0.670,0.000,0.742,0.0000000,0.0000000,0.000,0.000,0.000,0.000,0,00:00:00,-1032,0.000,0.000,91148.305,9.255,0.000,0.000,1.073,-9.760,0.046,-0.013,0.004,-0.002,0.000,0.000
34.595,0,0,-3.485,-0.266,-7.647,-3.648,-0.144,-12.113,-1.992,0.025,-9.639,0.000,0.000,0.0116870,0.000,9144.000,0.017,5.880,44.046,4.477,911.493,9.256,883.370,-0.264,-9.791,0.053,1.005,0.022,0.010,0.034,0.000,0.000,0.000,0.004,0.670,0.001,0.742,0.0000000,0.0000000,0.000,0.000,0.000,0.000,0,00:00:00,-1032,0.000,0.000,91140.508,9.251,0.000,0.000,1.022,-9.757,0.043,-0.009,-0.020,-0.002,0.000,0.000
34.796,0,0,-3.483,-0.240,-7.591,-3.658,-0.095,-12.030,-1.980,0.114,-9.537,0.000,0.000,0.0116870,0.000,9144.000,0.017,5.814,44.952,4.531,911.454,9.253,883.726,0.069,-9.691,0.106,0.990,-0.017,-0.014,0.001,0.000,0.000,0.000,0.003,0.670,0.003,0.743,0.0000000,0.0000000,0.000,0.000,0.000,0.000,0,00:00:00,-1032,0.000,0.000,91153.125,9.258,0.000,0.000,1.072,-9.716,0.118,-0.002,0.001,0.018,0.000,0.000
