State - Time (s),State - Stage,State - Stage,State - PX (m),State - PY (m),State - PZ (m),State - VX (m/s),State - VY (m/s),State - VZ (m/s),State - AX (m/s/s),State - AY (m/s/s),State - AZ (m/s/s),State - Actuation Angle (deg),State - Acutal Angle (deg),State - CdA,State - Est Apo (m),State - Target Apogee (m),State - Mach Number,State - Tilt [deg],State - Pos - Accel Integrated [m],State - Velo - Accel Integrated [m/s],MockBarometer - Pres (hPa),MockBarometer - Temp (C),MockBarometer - Alt ASL (m),MockBarometer - Alt AGL (m),MockIMU - AccX (m/s^2),MockIMU - AccY (m/s^2),MockIMU - AccZ (m/s^2),MockIMU - GyroX (rad/s),MockIMU - GyroY (rad/s),MockIMU - GyroZ (rad/s),MockIMU - MagX (uT),MockIMU - MagY (uT),MockIMU - MagZ (uT),MockIMU - OriX,MockIMU - OriY,MockIMU - OriZ,MockIMU - OriW,MockGPS - Lat,MockGPS - Lon,MockGPS - Alt (m),MockGPS - Disp X (m),MockGPS - Disp Y (m),MockGPS - Disp Z (m),MockGPS - Fix Quality,MockGPS - Time of Day,E5 - Rel Steps,MockBR - Battery Voltage (V),MockBR - ALT (m),MockBR - PRES (Pa),MockBR - TEMP (C),MockBR - VEL (m/s),MockBR - ANG (deg),MockBR - ACCX (m/s^2),MockBR - ACCY (m/s^2),MockBR - ACCZ (m/s^2),MockBR - GYROX (rad/s),MockBR - GYROY (rad/s),MockBR - GYROZ (rad/s),MockBR - ROLL (deg),MockBR - TILT (deg)
26.853,0,0,-2763.029,-32.431,-2095.870,-205.789,-2.415,-156.099,-7.664,-0.090,-5.813,0.000,0.000,0.0116870,0.000,9144.000,0.612,4.000,0.040,0.400,911.480,9.255,883.490,0.000,-9.579,-0.103,0.872,0.010,-0.008,-0.002,0.000,0.000,0.000,-0.003,0.361,-0.000,0.932,0.0000000,0.0000000,0.000,0.000,0.000,0.000,0,00:00:00,-1006,0.000,0.000,91145.109,9.253,0.000,0.000,1.002,-9.693,-0.001,0.005,-0.003,-0.010,0.000,0.000
26.954,0,0,-0.086,-0.001,0.090,1.001,0.012,0.362,-5.372,-0.059,-8.142,0.000,0.000,0.0116870,0.000,9144.000,0.003,47.621,0.097,0.567,911.457,9.254,883.695,0.103,-9.693,-0.084,1.092,0.002,0.012,-0.017,0.000,0.000,0.000,-0.005,0.523,-0.001,0.853,0.0000000,0.0000000,0.000,0.000,0.000,0.000,0,00:00:00,-1006,0.000,0.000,91146.203,9.254,0.000,0.000,0.983,-9.766,0.008,0.018,-0.010,0.000,0.000,0.000
27.055,0,0,-0.002,0.000,0.083,0.605,0.014,-0.547,-3.927,0.016,-9.003,0.000,0.000,0.0116870,0.000,9144.000,0.003,26.991,0.161,0.647,911.454,9.253,883.722,0.086,-9.756,-0.035,1.139,-0.020,-0.029,-0.022,0.000,0.000,0.000,-0.005,0.595,0.000,0.803,0.0000000,0.0000000,0.000,0.000,0.000,0.000,0,00:00:00,-1006,0.000,0.000,91144.508,9.253,0.000,0.000,1.060,-9.719,0.034,0.002,-0.004,0.005,0.000,0.000
27.156,0,0,0.028,0.002,-0.064,0.273,0.037,-1.475,-3.274,0.229,-9.146,0.000,0.000,0.0116870,0.000,9144.000,0.002,16.908,0.233,0.714,911.486,9.255,883.434,-0.151,-9.634,0.164,1.254,0.008,-0.043,0.024,0.000,0.000,0.000,0.000,0.627,0.004,0.779,0.0000000,0.0000000,0.000,0.000,0.000,0.000,0,00:00:00,-1006,0.000,0.000,91155.336,9.259,0.000,0.000,1.008,-9.734,0.023,0.019,0.027,0.024,0.000,0.000
27.257,0,0,0.032,0.004,-0.221,0.019,0.042,-2.426,-2.510,0.054,-9.459,0.000,0.000,0.0116870,0.000,9144.000,0.002,12.286,0.308,0.749,911.484,9.255,883.454,-0.105,-9.736,0.020,0.992,0.023,0.002,-0.015,0.000,0.000,0.000,0.000,0.649,0.002,0.761,0.0000000,0.0000000,0.000,0.000,0.000,0.000,0,00:00:00,-1006,0.000,0.000,91142.055,9.251,0.000,0.000,1.006,-9.753,0.015,-0.010,0.011,-0.003,0.000,0.000
27.358,0,0,0.018,0.007,-0.403,-0.210,0.048,-3.372,-2.263,0.060,-9.477,0.000,0.000,0.0116870,0.000,9144.000,0.002,9.046,0.386,0.782,911.469,9.254,883.590,0.026,-9.691,0.026,1.010,-0.000,0.005,0.008,0.000,0.000,0.000,0.000,0.659,0.002,0.752,0.0000000,0.0000000,0.000,0.000,0.000,0.000,0,00:00:00,-1006,0.000,0.000,91147.977,9.255,0.000,0.000,1.049,-9.782,-0.035,-0.003,-0.006,-0.000,0.000,0.000
27.459,0,0,-0.012,0.010,-0.650,-0.424,0.053,-4.313,-2.120,0.050,-9.495,0.000,0.000,0.0116870,0.000,9144.000,0.003,7.482,0.467,0.814,911.469,9.254,883.588,0.020,-9.677,0.011,1.003,-0.016,0.011,-0.059,0.000,0.000,0.000,-0.002,0.665,0.001,0.747,0.0000000,0.0000000,0.000,0.000,0.000,0.000,0,00:00:00,-1006,0.000,0.000,91142.555,9.252,0.000,0.000,1.037,-9.707,0.004,0.011,0.009,0.007,0.000,0.000
27.560,0,0,-0.055,0.014,-1.001,-0.615,0.064,-5.256,-1.902,0.112,-9.553,0.000,0.000,0.0116870,0.000,9144.000,0.003,6.668,0.551,0.839,911.504,9.256,883.266,-0.264,-9.700,0.040,0.894,-0.032,-0.011,0.008,0.000,0.000,0.000,-0.002,0.669,0.003,0.743,0.0000000,0.0000000,0.000,0.000,0.000,0.000,0,00:00:00,-1006,0.000,0.000,91142.703,9.252,0.000,0.000,1.023,-9.784,-0.014,0.006,0.013,-0.003,0.000,0.000
27.661,0,0,-0.111,0.017,-1.366,-0.823,0.053,-6.185,-2.072,-0.108,-9.641,0.000,0.000,0.0116870,0.000,9144.000,0.004,5.997,0.637,0.856,911.476,9.255,883.524,-0.005,-9.804,-0.196,1.051,-0.027,0.014,-0.006,0.000,0.000,0.000,-0.007,0.669,0.001,0.743,0.0000000,0.0000000,0.000,0.000,0.000,0.000,0,00:00:00,-1006,0.000,0.000,91141.492,9.251,0.000,0.000,1.052,-9.739,0.138,-0.003,0.004,0.008,0.000,0.000
27.762,0,0,-0.180,0.019,-1.785,-1.030,0.044,-7.091,-2.074,-0.088,-9.641,0.000,0.000,0.0116870,0.000,9144.000,0.004,6.018,0.724,0.873,911.476,9.255,883.524,-0.004,-9.804,-0.196,1.051,-0.027,0.014,-0.006,0.000,0.000,0.000,-0.010,0.669,-0.000,0.743,0.0000000,0.0000000,0.000,0.000,0.000,0.000,0,00:00:00,-1006,0.000,0.000,91141.492,9.251,0.000,0.000,1.052,-9.739,0.138,-0.003,0.004,0.008,0.000,0.000
27.863,0,0,-0.263,0.022,-2.283,-1.235,0.064,-7.972,-2.068,0.201,-9.600,0.000,0.000,0.0116870,0.000,9144.000,0.005,6.028,0.813,0.894,911.506,9.257,883.251,-0.278,-9.767,0.069,1.041,-0.017,-0.004,-0.028,0.000,0.000,0.000,-0.007,0.669,0.003,0.744,0.0000000,0.0000000,0.000,0.000,0.000,0.000,0,00:00:00,-1006,0.000,0.000,91144.195,9.253,0.000,0.000,0.969,-9.762,0.009,0.000,-0.002,-0.005,0.000,0.000
27.964,0,0,-0.358,0.026,-2.812,-1.439,0.070,-8.794,-2.086,0.066,-9.420,0.000,0.000,0.0116870,0.000,9144.000,0.005,6.067,0.907,0.933,911.503,9.256,883.279,-0.250,-9.591,-0.051,1.053,0.010,-0.018,-0.021,0.000,0.000,0.000,-0.007,0.668,0.003,0.744,0.0000000,0.0000000,0.000,0.000,0.000,0.000,0,00:00:00,-1006,0.000,0.000,91145.891,9.254,0.000,0.000,1.103,-9.761,-0.035,-0.005,-0.010,-0.011,0.000,0.000
28.065,0,0,-0.466,0.030,-3.355,-1.646,0.067,-9.589,-2.124,-0.029,-9.707,0.000,0.000,0.0116870,0.000,9144.000,0.006,6.217,1.001,0.943,911.491,9.256,883.392,-0.137,-9.877,-0.124,1.074,0.024,0.025,0.002,0.000,0.000,0.000,-0.007,0.668,0.001,0.744,0.0000000,0.0000000,0.000,0.000,0.000,0.000,0,00:00:00,-1006,0.000,0.000,91150.133,9.256,0.000,0.000,1.093,-9.826,-0.012,-0.002,0.012,-0.018,0.000,0.000
28.166,0,0,-0.585,0.034,-3.882,-1.828,0.086,-10.288,-1.909,0.195,-9.539,0.000,0.000,0.0116870,0.000,9144.000,0.006,6.138,1.098,0.970,911.457,9.254,883.700,0.171,-9.685,0.100,0.934,0.008,0.004,-0.004,0.000,0.000,0.000,-0.003,0.670,0.004,0.742,0.0000000,0.0000000,0.000,0.000,0.000,0.000,0,00:00:00,-1006,0.000,0.000,91158.508,9.261,0.000,0.000,1.013,-9.740,-0.044,-0.015,0.003,0.015,0.000,0.000
28.267,0,0,-0.713,0.040,-4.414,-2.003,0.104,-10.918,-1.881,0.192,-9.545,0.000,0.000,0.0116870,0.000,9144.000,0.007,5.812,1.198,0.997,911.457,9.254,883.700,0.171,-9.685,0.100,0.934,0.008,0.004,-0.004,0.000,0.000,0.000,-0.001,0.671,0.005,0.741,0.0000000,0.0000000,0.000,0.000,0.000,0.000,0,00:00:00,-1006,0.000,0.000,91158.508,9.261,0.000,0.000,1.013,-9.740,-0.044,-0.015,0.003,0.015,0.000,0.000
28.368,0,0,-0.850,0.047,-4.940,-2.193,0.118,-11.463,-2.061,0.149,-9.453,0.000,0.000,0.0116870,0.000,9144.000,0.007,5.648,1.301,1.033,911.458,9.254,883.684,0.156,-9.616,0.050,1.074,-0.010,0.027,-0.018,0.000,0.000,0.000,-0.002,0.670,0.005,0.743,0.0000000,0.0000000,0.000,0.000,0.000,0.000,0,00:00:00,-1006,0.000,0.000,91141.422,9.251,0.000,0.000,0.993,-9.733,0.011,0.014,-0.003,-0.002,0.000,0.000
28.469,0,0,-0.997,0.055,-5.487,-2.389,0.136,-11.954,-2.167,0.187,-9.436,0.000,0.000,0.0116870,0.000,9144.000,0.008,5.933,1.408,1.070,911.501,9.256,883.301,-0.228,-9.619,0.083,1.111,-0.005,-0.030,-0.013,0.000,0.000,0.000,-0.001,0.667,0.006,0.745,0.0000000,0.0000000,0.000,0.000,0.000,0.000,0,00:00:00,-1006,0.000,0.000,91145.273,9.253,0.000,0.000,1.015,-9.775,-0.063,-0.005,-0.002,0.008,0.000,0.000
28.570,0,0,-1.152,0.064,-5.984,-2.561,0.136,-12.371,-1.999,0.016,-9.672,0.000,0.000,0.0116870,0.000,9144.000,0.008,6.347,1.517,1.084,911.485,9.255,883.440,-0.089,-9.827,-0.080,0.978,0.002,0.007,-0.005,0.000,0.000,0.000,-0.004,0.669,0.003,0.743,0.0000000,0.0000000,0.000,0.000,0.000,0.000,0,00:00:00,-1006,0.000,0.000,91143.969,9.253,0.000,0.000,0.976,-9.752,-0.006,0.019,0.004,0.015,0.000,0.000
28.671,0,0,-1.313,0.072,-6.453,-2.732,0.141,-12.702,-2.047,0.074,-9.544,0.000,0.000,0.0116870,0.000,9144.000,0.009,5.996,1.628,1.111,911.498,9.256,883.321,-0.208,-9.707,-0.025,1.024,-0.003,-0.026,0.011,0.000,0.000,0.000,-0.004,0.669,0.003,0.744,0.0000000,0.0000000,0.000,0.000,0.000,0.000,0,00:00:00,-1006,0.000,0.000,91150.641,9.257,0.000,0.000,1.129,-9.738,0.056,-0.007,0.002,0.007,0.000,0.000
28.772,0,0,-1.478,0.080,-6.871,-2.896,0.147,-12.952,-2.054,0.078,-9.542,0.000,0.000,0.0116870,0.000,9144.000,0.009,6.083,1.741,1.137,911.498,9.256,883.321,-0.208,-9.707,-0.025,1.024,-0.003,-0.026,0.011,0.000,0.000,0.000,-0.004,0.668,0.003,0.744,0.0000000,0.0000000,0.000,0.000,0.000,0.000,0,00:00:00,-1006,0.000,0.000,91150.641,9.257,0.000,0.000,1.129,-9.738,0.056,-0.007,0.002,0.007,0.000,0.000
28.873,0,0,-1.646,0.088,-7.225,-3.033,0.155,-13.126,-1.868,0.111,-9.598,0.000,0.000,0.0116870,0.000,9144.000,0.010,6.127,1.857,1.159,911.493,9.256,883.371,-0.134,-9.735,0.036,0.914,0.035,0.032,0.020,0.000,0.000,0.000,-0.002,0.671,0.004,0.741,0.0000000,0.0000000,0.000,0.000,0.000,0.000,0,00:00:00,-1006,0.000,0.000,91150.773,9.257,0.000,0.000,1.013,-9.782,-0.038,0.014,-0.006,-0.002,0.000,0.000
28.974,0,0,-1.815,0.096,-7.510,-3.196,0.155,-13.220,-2.224,0.033,-9.564,0.000,0.000,0.0116870,0.000,9144.000,0.010,5.653,1.975,1.183,911.485,9.255,883.443,-0.021,-9.749,-0.049,1.172,-0.009,0.006,0.005,0.000,0.000,0.000,-0.003,0.668,0.003,0.745,0.0000000,0.0000000,0.000,0.000,0.000,0.000,0,00:00:00,-1006,0.000,0.000,91155.938,9.260,0.000,0.000,0.957,-9.818,0.059,-0.001,0.004,0.006,0.000,0.000
29.075,0,0,-1.984,0.104,-7.709,-3.309,0.165,-13.251,-1.817,0.135,-9.720,0.000,0.000,0.0116870,0.000,9144.000,0.010,6.236,2.095,1.192,911.461,9.254,883.663,0.233,-9.850,0.063,0.872,0.014,0.042,0.003,0.000,0.000,0.000,-0.001,0.672,0.004,0.740,0.0000000,0.0000000,0.000,0.000,0.000,0.000,0,00:00:00,-1006,0.000,0.000,91139.789,9.250,0.000,0.000,1.051,-9.626,0.005,0.008,-0.002,-0.008,0.000,0.000
29.176,0,0,-2.150,0.112,-7.911,-3.425,0.183,-13.264,-1.958,0.223,-9.528,0.000,0.000,0.0116870,0.000,9144.000,0.011,5.529,2.217,1.220,911.501,9.256,883.295,-0.161,-9.677,0.185,1.001,0.044,-0.002,-0.005,0.000,0.000,0.000,0.003,0.671,0.005,0.742,0.0000000,0.0000000,0.000,0.000,0.000,0.000,0,00:00:00,-1006,0.000,0.000,91150.508,9.256,0.000,0.000,1.111,-9.729,-0.017,-0.004,0.018,0.005,0.000,0.000
29.277,0,0,-2.311,0.121,-8.082,-3.528,0.185,-13.245,-1.930,0.066,-9.437,0.000,0.000,0.0116870,0.000,9144.000,0.011,5.722,2.342,1.258,911.511,9.257,883.208,-0.273,-9.583,0.004,0.977,-0.029,0.014,0.024,0.000,0.000,0.000,0.001,0.671,0.004,0.742,0.0000000,0.0000000,0.000,0.000,0.000,0.000,0,00:00:00,-1006,0.000,0.000,91144.305,9.253,0.000,0.000,0.937,-9.796,0.067,0.005,0.008,0.014,0.000,0.000
29.378,0,0,-2.466,0.129,-8.130,-3.633,0.178,-13.143,-2.059,-0.024,-9.508,0.000,0.000,0.0116870,0.000,9144.000,0.011,5.734,2.471,1.288,911.444,9.253,883.811,0.320,-9.671,-0.082,1.047,0.005,-0.029,0.047,0.000,0.000,0.000,-0.001,0.669,0.003,0.743,0.0000000,0.0000000,0.000,0.000,0.000,0.000,0,00:00:00,-1006,0.000,0.000,91139.203,9.250,0.000,0.000,1.058,-9.663,0.042,0.016,0.010,0.011,0.000,0.000
29.479,0,0,-2.616,0.135,-8.159,-3.744,0.165,-13.027,-2.222,-0.065,-9.372,0.000,0.000,0.0116870,0.000,9144.000,0.012,6.041,2.604,1.332,911.457,9.254,883.694,0.232,-9.561,-0.107,1.159,0.011,0.018,0.012,0.000,0.000,0.000,-0.003,0.666,0.000,0.746,0.0000000,0.0000000,0.000,0.000,0.000,0.000,0,00:00:00,-1006,0.000,0.000,91142.172,9.252,0.000,0.000,1.005,-9.764,-0.032,0.014,-0.013,-0.006,0.000,0.000
29.580,0,0,-2.761,0.138,-8.165,-3.846,0.151,-12.908,-2.253,-0.077,-9.364,0.000,0.000,0.0116870,0.000,9144.000,0.012,6.424,2.742,1.376,911.457,9.254,883.694,0.215,-9.561,-0.107,1.159,0.011,0.018,0.012,0.000,0.000,0.000,-0.004,0.665,-0.001,0.747,0.0000000,0.0000000,0.000,0.000,0.000,0.000,0,00:00:00,-1006,0.000,0.000,91142.172,9.252,0.000,0.000,1.005,-9.764,-0.032,0.014,-0.013,-0.006,0.000,0.000
29.681,0,0,-2.898,0.141,-8.131,-3.925,0.149,-12.789,-2.121,0.044,-9.504,0.000,0.000,0.0116870,0.000,9144.000,0.012,6.616,2.883,1.407,911.444,9.253,883.813,0.354,-9.682,0.049,1.041,0.046,-0.025,0.005,0.000,0.000,0.000,0.000,0.666,-0.000,0.746,0.0000000,0.0000000,0.000,0.000,0.000,0.000,0,00:00:00,-1006,0.000,0.000,91156.312,9.260,0.000,0.000,0.977,-9.694,-0.073,-0.004,0.013,-0.003,0.000,0.000
29.782,0,0,-3.025,0.143,-8.067,-3.981,0.148,-12.658,-2.006,0.064,-9.457,0.000,0.000,0.0116870,0.000,9144.000,0.013,6.449,3.027,1.442,911.432,9.252,883.921,0.482,-9.616,0.061,0.993,-0.009,0.033,-0.018,0.000,0.000,0.000,0.001,0.669,0.001,0.744,0.0000000,0.0000000,0.000,0.000,0.000,0.000,0,00:00:00,-1006,0.000,0.000,91150.336,9.256,0.000,0.000,1.016,-9.636,0.094,-0.001,-0.000,0.000,0.000,0.000
29.883,0,0,-3.144,0.144,-8.064,-4.049,0.132,-12.592,-2.215,-0.092,-9.472,0.000,0.000,0.0116870,0.000,9144.000,0.013,6.079,3.175,1.476,911.483,9.255,883.456,0.005,-9.661,-0.096,1.130,-0.010,-0.040,-0.013,0.000,0.000,0.000,-0.002,0.666,-0.001,0.746,0.0000000,0.0000000,0.000,0.000,0.000,0.000,0,00:00:00,-1006,0.000,0.000,91152.516,9.258,0.000,0.000,0.991,-9.777,0.023,-0.006,0.003,-0.016,0.000,0.000
29.984,0,0,-3.253,0.144,-8.038,-4.106,0.117,-12.523,-2.191,-0.076,-9.497,0.000,0.000,0.0116870,0.000,9144.000,0.013,6.491,3.325,1.507,911.471,9.254,883.573,0.105,-9.684,-0.053,1.100,0.022,-0.011,-0.034,0.000,0.000,0.000,-0.002,0.666,-0.003,0.746,0.0000000,0.0000000,0.000,0.000,0.000,0.000,0,00:00:00,-1006,0.000,0.000,91143.055,9.252,0.000,0.000,1.107,-9.733,0.062,0.006,0.011,0.006,0.000,0.000
30.085,0,0,-3.354,0.142,-8.056,-4.156,0.107,-12.513,-2.213,-0.029,-9.648,0.000,0.000,0.0116870,0.000,9144.000,0.013,6.516,3.478,1.523,911.504,9.256,883.274,-0.220,-9.835,-0.022,1.117,-0.020,0.021,-0.031,0.000,0.000,0.000,-0.002,0.666,-0.002,0.746,0.0000000,0.0000000,0.000,0.000,0.000,0.000,0,00:00:00,-1006,0.000,0.000,91151.516,9.257,0.000,0.000,1.043,-9.721,0.079,-0.005,0.013,-0.002,0.000,0.000
30.186,0,0,-3.446,0.139,-7.961,-4.207,0.110,-12.422,-2.292,0.104,-9.659,0.000,0.000,0.0116870,0.000,9144.000,0.013,6.438,3.631,1.538,911.423,9.252,884.003,0.549,-9.858,0.095,1.172,-0.005,0.012,0.013,0.000,0.000,0.000,0.001,0.665,0.001,0.746,0.0000000,0.0000000,0.000,0.000,0.000,0.000,0,00:00:00,-1006,0.000,0.000,91148.578,9.255,0.000,0.000,0.939,-9.667,-0.101,0.003,0.007,0.003,0.000,0.000
30.287,0,0,-3.529,0.135,-7.926,-4.246,0.078,-12.374,-2.249,-0.250,-9.513,0.000,0.000,0.0116870,0.000,9144.000,0.013,6.573,3.788,1.568,911.470,9.254,883.574,0.169,-9.709,-0.241,1.140,-0.002,0.004,-0.020,0.000,0.000,0.000,-0.005,0.665,-0.004,0.747,0.0000000,0.0000000,0.000,0.000,0.000,0.000,0,00:00:00,-1006,0.000,0.000,91154.773,9.259,0.000,0.000,1.094,-9.761,-0.096,0.004,0.006,0.011,0.000,0.000
30.388,0,0,-3.605,0.131,-7.923,-4.276,0.079,-12.354,-2.222,0.085,-9.490,0.000,0.000,0.0116870,0.000,9144.000,0.014,6.623,3.948,1.600,911.493,9.256,883.373,-0.044,-9.681,0.088,1.124,0.010,0.024,0.021,0.000,0.000,0.000,-0.000,0.666,-0.000,0.746,0.0000000,0.0000000,0.000,0.000,0.000,0.000,0,00:00:00,-1006,0.000,0.000,91146.164,9.254,0.000,0.000,0.888,-9.773,-0.005,-0.008,-0.004,0.011,0.000,0.000
30.489,0,0,-3.670,0.127,-7.954,-4.246,0.094,-12.384,-1.669,0.210,-9.690,0.000,0.000,0.0116870,0.000,9144.000,0.014,6.555,4.109,1.612,911.514,9.257,883.176,-0.281,-9.805,0.199,0.746,-0.008,0.007,-0.016,0.000,0.000,0.000,0.003,0.673,0.003,0.740,0.0000000,0.0000000,0.000,0.000,0.000,0.000,0,00:00:00,-1006,0.000,0.000,91153.938,9.258,0.000,0.000,1.034,-9.786,-0.028,-0.012,-0.003,0.001,0.000,0.000
30.590,0,0,-3.725,0.123,-7.931,-4.255,0.078,-12.376,-2.110,-0.090,-9.723,0.000,0.000,0.0116870,0.000,9144.000,0.014,5.434,4.272,1.621,911.470,9.254,883.581,0.099,-9.888,-0.067,1.101,0.029,-0.000,-0.006,0.000,0.000,0.000,0.001,0.670,-0.001,0.743,0.0000000,0.0000000,0.000,0.000,0.000,0.000,0,00:00:00,-1006,0.000,0.000,91137.922,9.249,0.000,0.000,0.909,-9.825,-0.019,-0.007,-0.006,0.013,0.000,0.000
30.691,0,0,-3.773,0.119,-7.958,-4.264,0.074,-12.388,-2.139,0.032,-9.529,0.000,0.000,0.0116870,0.000,9144.000,0.014,5.893,4.436,1.649,911.500,9.256,883.304,-0.228,-9.702,0.050,1.113,0.001,0.037,0.018,0.000,0.000,0.000,0.002,0.668,0.000,0.744,0.0000000,0.0000000,0.000,0.000,0.000,0.000,0,00:00:00,-1006,0.000,0.000,91140.531,9.251,0.000,0.000,1.040,-9.763,-0.040,0.009,0.002,0.006,0.000,0.000
30.792,0,0,-3.814,0.114,-7.943,-4.249,0.059,-12.388,-1.933,-0.090,-9.711,0.000,0.000,0.0116870,0.000,9144.000,0.014,6.113,4.602,1.659,911.461,9.254,883.656,0.065,-9.857,-0.044,0.950,0.021,0.018,-0.008,0.000,0.000,0.000,0.001,0.671,-0.002,0.742,0.0000000,0.0000000,0.000,0.000,0.000,0.000,0,00:00:00,-1006,0.000,0.000,91155.227,9.259,0.000,0.000,0.986,-9.826,-0.026,-0.007,-0.008,-0.003,0.000,0.000
30.893,0,0,-3.846,0.108,-7.933,-4.229,0.042,-12.392,-1.903,-0.113,-9.717,0.000,0.000,0.0116870,0.000,9144.000,0.014,5.755,4.769,1.668,911.461,9.254,883.656,0.056,-9.857,-0.044,0.950,0.021,0.018,-0.008,0.000,0.000,0.000,0.001,0.672,-0.003,0.741,0.0000000,0.0000000,0.000,0.000,0.000,0.000,0,00:00:00,-1006,0.000,0.000,91155.227,9.259,0.000,0.000,0.986,-9.826,-0.026,-0.007,-0.008,-0.003,0.000,0.000
30.994,0,0,-3.873,0.100,-7.935,-4.222,0.007,-12.393,-2.046,-0.289,-9.591,0.000,0.000,0.0116870,0.000,9144.000,0.014,5.576,4.938,1.690,911.467,9.254,883.602,-0.011,-9.753,-0.187,1.052,0.023,-0.012,-0.022,0.000,0.000,0.000,-0.001,0.670,-0.007,0.743,0.0000000,0.0000000,0.000,0.000,0.000,0.000,0,00:00:00,-1006,0.000,0.000,91154.992,9.259,0.000,0.000,1.038,-9.740,-0.052,0.001,0.018,-0.004,0.000,0.000
31.095,0,0,-3.894,0.090,-7.937,-4.197,-0.013,-12.394,-1.888,-0.147,-9.589,0.000,0.000,0.0116870,0.000,9144.000,0.013,5.901,5.109,1.712,911.471,9.254,883.571,-0.002,-9.730,-0.049,0.932,0.001,0.004,0.004,0.000,0.000,0.000,0.000,0.671,-0.006,0.741,0.0000000,0.0000000,0.000,0.000,0.000,0.000,0,00:00:00,-1006,0.000,0.000,91151.914,9.257,0.000,0.000,1.020,-9.766,0.030,-0.024,0.001,0.007,0.000,0.000
31.196,0,0,-3.910,0.080,-7.976,-4.184,-0.020,-12.433,-2.011,-0.027,-9.693,0.000,0.000,0.0116870,0.000,9144.000,0.013,5.673,5.282,1.724,911.491,9.256,883.388,-0.257,-9.847,0.055,1.021,-0.012,-0.002,-0.010,0.000,0.000,0.000,0.002,0.670,-0.004,0.742,0.0000000,0.0000000,0.000,0.000,0.000,0.000,0,00:00:00,-1006,0.000,0.000,91150.617,9.257,0.000,0.000,0.953,-9.683,0.037,0.016,-0.015,0.002,0.000,0.000
31.297,0,0,-3.924,0.071,-8.037,-4.188,-0.021,-12.479,-2.185,0.025,-9.629,0.000,0.000,0.0116870,0.000,9144.000,0.013,5.802,5.456,1.742,911.505,9.256,883.263,-0.418,-9.808,0.131,1.132,0.026,-0.003,-0.041,0.000,0.000,0.000,0.005,0.668,-0.003,0.744,0.0000000,0.0000000,0.000,0.000,0.000,0.000,0,00:00:00,-1006,0.000,0.000,91154.188,9.259,0.000,0.000,1.008,-9.742,0.040,0.006,0.021,-0.004,0.000,0.000
31.398,0,0,-3.935,0.061,-8.026,-4.191,-0.034,-12.451,-2.172,-0.092,-9.458,0.000,0.000,0.0116870,0.000,9144.000,0.014,6.201,5.634,1.777,911.457,9.254,883.694,0.057,-9.641,0.024,1.105,0.011,-0.008,-0.010,0.000,0.000,0.000,0.005,0.667,-0.004,0.745,0.0000000,0.0000000,0.000,0.000,0.000,0.000,0,00:00:00,-1006,0.000,0.000,91159.523,9.262,0.000,0.000,1.080,-9.764,0.067,-0.013,-0.011,0.005,0.000,0.000
31.499,0,0,-3.944,0.052,-8.023,-4.164,-0.045,-12.463,-1.872,-0.079,-9.785,0.000,0.000,0.0116870,0.000,9144.000,0.013,6.392,5.812,1.780,911.468,9.254,883.597,0.012,-9.924,0.002,0.876,-0.038,-0.024,0.018,0.000,0.000,0.000,0.004,0.671,-0.002,0.742,0.0000000,0.0000000,0.000,0.000,0.000,0.000,0,00:00:00,-1006,0.000,0.000,91145.109,9.253,0.000,0.000,1.014,-9.869,-0.066,-0.002,-0.010,-0.004,0.000,0.000
31.600,0,0,-3.950,0.043,-8.022,-4.166,-0.050,-12.457,-2.169,-0.026,-9.596,0.000,0.000,0.0116870,0.000,9144.000,0.013,5.786,5.992,1.801,911.470,9.254,883.574,0.000,-9.772,0.060,1.138,0.007,0.043,-0.013,0.000,0.000,0.000,0.004,0.669,-0.002,0.744,0.0000000,0.0000000,0.000,0.000,0.000,0.000,0,00:00:00,-1006,0.000,0.000,91144.492,9.253,0.000,0.000,1.060,-9.783,0.039,0.000,0.006,0.005,0.000,0.000
31.701,0,0,-3.955,0.034,-8.027,-4.153,-0.060,-12.460,-2.015,-0.079,-9.643,0.000,0.000,0.0116870,0.000,9144.000,0.013,6.091,6.173,1.818,911.480,9.255,883.489,-0.034,-9.800,0.003,1.005,-0.009,0.008,-0.020,0.000,0.000,0.000,0.003,0.669,-0.003,0.743,0.0000000,0.0000000,0.000,0.000,0.000,0.000,0,00:00:00,-1006,0.000,0.000,91133.617,9.246,0.000,0.000,1.021,-9.731,0.021,-0.005,-0.019,-0.001,0.000,0.000
31.802,0,0,-3.960,0.025,-8.028,-4.161,-0.068,-12.435,-2.218,-0.073,-9.402,0.000,0.000,0.0116870,0.000,9144.000,0.014,5.949,6.359,1.859,911.480,9.255,883.484,-0.013,-9.591,0.015,1.156,0.012,0.004,0.017,0.000,0.000,0.000,0.004,0.667,-0.003,0.745,0.0000000,0.0000000,0.000,0.000,0.000,0.000,0,00:00:00,-1006,0.000,0.000,91151.336,9.257,0.000,0.000,1.074,-9.782,0.049,0.005,0.009,-0.011,0.000,0.000
31.903,0,0,-3.964,0.016,-8.054,-4.163,-0.080,-12.437,-2.149,-0.102,-9.459,0.000,0.000,0.0116870,0.000,9144.000,0.014,6.400,6.549,1.894,911.500,9.256,883.308,-0.209,-9.640,-0.015,1.081,-0.011,-0.000,-0.043,0.000,0.000,0.000,0.002,0.667,-0.004,0.745,0.0000000,0.0000000,0.000,0.000,0.000,0.000,0,00:00:00,-1006,0.000,0.000,91154.336,9.259,0.000,0.000,1.027,-9.755,0.054,-0.008,0.016,0.006,0.000,0.000
32.004,0,0,-3.967,0.006,-8.056,-4.141,-0.087,-12.442,-1.919,-0.074,-9.684,0.000,0.000,0.0116870,0.000,9144.000,0.014,6.401,6.739,1.906,911.482,9.255,883.469,-0.051,-9.829,-0.004,0.923,-0.016,0.014,0.014,0.000,0.000,0.000,0.002,0.670,-0.003,0.742,0.0000000,0.0000000,0.000,0.000,0.000,0.000,0,00:00:00,-1006,0.000,0.000,91142.766,9.252,0.000,0.000,1.097,-9.762,-0.015,0.001,-0.001,0.026,0.000,0.000
32.105,0,0,-3.970,-0.002,-8.034,-4.161,-0.082,-12.420,-2.319,0.055,-9.578,0.000,0.000,0.0116870,0.000,9144.000,0.014,5.842,6.932,1.929,911.461,9.254,883.661,0.111,-9.779,0.122,1.219,0.005,-0.012,-0.004,0.000,0.000,0.000,0.005,0.666,-0.001,0.746,0.0000000,0.0000000,0.000,0.000,0.000,0.000,0,00:00:00,-1006,0.000,0.000,91149.281,9.256,0.000,0.000,0.955,-9.769,-0.068,-0.006,-0.010,0.007,0.000,0.000
32.206,0,0,-3.973,-0.009,-8.017,-4.140,-0.079,-12.401,-1.921,0.020,-9.572,0.000,0.000,0.0116870,0.000,9144.000,0.014,6.507,7.128,1.953,911.470,9.254,883.576,0.088,-9.719,0.058,0.923,-0.034,0.014,-0.013,0.000,0.000,0.000,0.003,0.670,0.000,0.743,0.0000000,0.0000000,0.000,0.000,0.000,0.000,0,00:00:00,-1006,0.000,0.000,91145.805,9.254,0.000,0.000,0.975,-9.732,0.015,0.010,0.000,0.009,0.000,0.000
32.307,0,0,-3.974,-0.015,-7.991,-4.124,-0.077,-12.385,-1.955,0.019,-9.661,0.000,0.000,0.0116870,0.000,9144.000,0.014,5.926,7.324,1.968,911.465,9.254,883.621,0.164,-9.807,0.071,0.979,0.012,0.025,-0.027,0.000,0.000,0.000,0.004,0.671,-0.001,0.742,0.0000000,0.0000000,0.000,0.000,0.000,0.000,0,00:00:00,-1006,0.000,0.000,91151.359,9.257,0.000,0.000,1.035,-9.804,-0.076,-0.008,0.002,0.005,0.000,0.000
32.408,0,0,-3.975,-0.021,-8.001,-4.122,-0.083,-12.369,-2.093,-0.076,-9.376,0.000,0.000,0.0116870,0.000,9144.000,0.014,5.741,7.526,2.012,911.490,9.256,883.399,-0.090,-9.544,-0.004,1.093,0.027,0.029,0.043,0.000,0.000,0.000,0.004,0.669,-0.001,0.743,0.0000000,0.0000000,0.000,0.000,0.000,0.000,0,00:00:00,-1006,0.000,0.000,91153.945,9.258,0.000,0.000,0.930,-9.782,-0.046,-0.007,0.002,0.020,0.000,0.000
32.509,0,0,-3.974,-0.027,-7.997,-4.104,-0.086,-12.359,-1.935,-0.040,-9.527,0.000,0.000,0.0116870,0.000,9144.000,0.014,6.053,7.730,2.040,911.475,9.255,883.529,-0.002,-9.675,0.032,0.947,-0.002,-0.025,0.001,0.000,0.000,0.000,0.004,0.670,-0.002,0.743,0.0000000,0.0000000,0.000,0.000,0.000,0.000,0,00:00:00,-1006,0.000,0.000,91141.812,9.251,0.000,0.000,1.045,-9.812,0.047,0.015,0.004,0.007,0.000,0.000
32.610,0,0,-3.974,-0.032,-7.993,-4.117,-0.080,-12.349,-2.236,0.037,-9.527,0.000,0.000,0.0116870,0.000,9144.000,0.014,5.892,7.936,2.068,911.476,9.255,883.526,-0.004,-9.716,0.096,1.165,-0.005,-0.002,0.018,0.000,0.000,0.000,0.005,0.667,-0.000,0.745,0.0000000,0.0000000,0.000,0.000,0.000,0.000,0,00:00:00,-1006,0.000,0.000,91154.180,9.259,0.000,0.000,1.058,-9.748,0.003,-0.002,0.004,0.001,0.000,0.000
32.711,0,0,-3.976,-0.036,-7.990,-4.134,-0.074,-12.341,-2.276,0.047,-9.518,0.000,0.000,0.0116870,0.000,9144.000,0.014,6.372,8.146,2.097,911.476,9.255,883.526,-0.023,-9.716,0.096,1.165,-0.005,-0.002,0.018,0.000,0.000,0.000,0.006,0.665,0.001,0.747,0.0000000,0.0000000,0.000,0.000,0.000,0.000,0,00:00:00,-1006,0.000,0.000,91154.180,9.259,0.000,0.000,1.058,-9.748,0.003,-0.002,0.004,0.001,0.000,0.000
32.812,0,0,-3.978,-0.039,-7.960,-4.124,-0.073,-12.324,-2.006,-0.019,-9.652,0.000,0.000,0.0116870,0.000,9144.000,0.014,6.611,8.357,2.113,911.455,9.253,883.713,0.181,-9.811,0.028,0.963,-0.007,-0.009,0.010,0.000,0.000,0.000,0.004,0.668,0.000,0.744,0.0000000,0.0000000,0.000,0.000,0.000,0.000,0,00:00:00,-1006,0.000,0.000,91155.953,9.260,0.000,0.000,0.986,-9.672,0.019,-0.001,-0.013,-0.010,0.000,0.000
32.913,0,0,-3.979,-0.042,-7.927,-4.111,-0.072,-12.309,-1.965,-0.014,-9.660,0.000,0.000,0.0116870,0.000,9144.000,0.014,6.133,8.570,2.128,911.455,9.253,883.713,0.216,-9.811,0.028,0.963,-0.007,-0.009,0.010,0.000,0.000,0.000,0.004,0.670,-0.000,0.743,0.0000000,0.0000000,0.000,0.000,0.000,0.000,0,00:00:00,-1006,0.000,0.000,91155.953,9.260,0.000,0.000,0.986,-9.672,0.019,-0.001,-0.013,-0.010,0.000,0.000
33.014,0,0,-3.980,-0.045,-7.956,-4.109,-0.066,-12.329,-2.079,0.040,-9.543,0.000,0.000,0.0116870,0.000,9144.000,0.014,5.894,8.786,2.155,911.503,9.256,883.279,-0.205,-9.708,0.086,1.068,0.008,0.025,0.002,0.000,0.000,0.000,0.005,0.669,0.000,0.743,0.0000000,0.0000000,0.000,0.000,0.000,0.000,0,00:00:00,-1006,0.000,0.000,91156.477,9.260,0.000,0.000,0.922,-9.706,-0.068,-0.003,-0.001,0.010,0.000,0.000
33.115,0,0,-3.981,-0.047,-8.020,-4.122,-0.071,-12.379,-2.227,-0.078,-9.599,0.000,0.000,0.0116870,0.000,9144.000,0.014,6.015,9.003,2.176,911.531,9.258,883.023,-0.469,-9.787,-0.037,1.149,-0.014,-0.006,-0.011,0.000,0.000,0.000,0.002,0.667,-0.001,0.745,0.0000000,0.0000000,0.000,0.000,0.000,0.000,0,00:00:00,-1006,0.000,0.000,91147.086,9.254,0.000,0.000,1.082,-9.773,-0.068,0.008,0.024,0.003,0.000,0.000
33.216,0,0,-3.984,-0.049,-8.042,-4.138,-0.076,-12.388,-2.264,-0.075,-9.528,0.000,0.000,0.0116870,0.000,9144.000,0.014,6.370,9.224,2.204,911.501,9.256,883.301,-0.211,-9.725,-0.047,1.153,-0.016,-0.012,0.002,0.000,0.000,0.000,0.000,0.665,-0.002,0.747,0.0000000,0.0000000,0.000,0.000,0.000,0.000,0,00:00:00,-1006,0.000,0.000,91158.930,9.261,0.000,0.000,0.988,-9.861,-0.095,-0.004,-0.000,-0.010,0.000,0.000
33.317,0,0,-3.988,-0.051,-8.003,-4.144,-0.073,-12.348,-2.151,0.003,-9.510,0.000,0.000,0.0116870,0.000,9144.000,0.014,6.602,9.447,2.234,911.450,9.253,883.758,0.211,-9.691,0.003,1.072,-0.028,0.009,-0.001,0.000,0.000,0.000,-0.000,0.666,-0.000,0.746,0.0000000,0.0000000,0.000,0.000,0.000,0.000,0,00:00:00,-1006,0.000,0.000,91143.547,9.252,0.000,0.000,1.058,-9.681,-0.044,0.001,0.005,0.006,0.000,0.000
33.418,0,0,-3.992,-0.054,-7.995,-4.140,-0.098,-12.339,-2.057,-0.269,-9.563,0.000,0.000,0.0116870,0.000,9144.000,0.014,6.431,9.673,2.259,911.476,9.255,883.528,0.010,-9.728,-0.255,1.030,0.004,0.042,0.018,0.000,0.000,0.000,-0.005,0.668,-0.004,0.744,0.0000000,0.0000000,0.000,0.000,0.000,0.000,0,00:00:00,-1006,0.000,0.000,91146.234,9.254,0.000,0.000,1.014,-9.793,-0.073,0.001,0.002,0.008,0.000,0.000
33.519,0,0,-3.994,-0.058,-8.026,-4.116,-0.088,-12.350,-1.863,0.060,-9.461,0.000,0.000,0.0116870,0.000,9144.000,0.014,6.116,9.902,2.294,911.508,9.257,883.237,-0.274,-9.599,0.070,0.917,0.005,0.035,-0.010,0.000,0.000,0.000,-0.001,0.671,-0.001,0.741,0.0000000,0.0000000,0.000,0.000,0.000,0.000,0,00:00:00,-1006,0.000,0.000,91144.391,9.253,0.000,0.000,1.016,-9.694,0.033,0.003,0.004,0.005,0.000,0.000
33.620,0,0,-3.995,-0.060,-8.020,-4.107,-0.081,-12.343,-2.007,0.041,-9.563,0.000,0.000,0.0116870,0.000,9144.000,0.014,5.685,10.134,2.318,911.481,9.255,883.475,-0.031,-9.717,0.036,1.029,-0.017,0.021,-0.039,0.000,0.000,0.000,-0.001,0.670,-0.000,0.742,0.0000000,0.0000000,0.000,0.000,0.000,0.000,0,00:00:00,-1006,0.000,0.000,91146.531,9.254,0.000,0.000,1.092,-9.767,0.029,-0.007,0.016,-0.011,0.000,0.000
33.721,0,0,-3.996,-0.062,-8.034,-4.111,-0.075,-12.368,-2.143,0.032,-9.733,0.000,0.000,0.0116870,0.000,9144.000,0.014,5.806,10.367,2.326,911.496,9.256,883.346,-0.164,-9.906,0.087,1.097,0.063,-0.013,-0.024,0.000,0.000,0.000,0.003,0.668,-0.001,0.744,0.0000000,0.0000000,0.000,0.000,0.000,0.000,0,00:00:00,-1006,0.000,0.000,91139.734,9.250,0.000,0.000,0.968,-9.731,-0.022,0.016,-0.015,-0.005,0.000,0.000
33.822,0,0,-3.996,-0.062,-8.037,-4.104,-0.072,-12.368,-2.031,-0.005,-9.581,0.000,0.000,0.0116870,0.000,9144.000,0.014,6.100,10.602,2.349,911.485,9.255,883.438,-0.095,-9.742,0.036,1.014,-0.017,-0.000,-0.018,0.000,0.000,0.000,0.002,0.669,-0.001,0.743,0.0000000,0.0000000,0.000,0.000,0.000,0.000,0,00:00:00,-1006,0.000,0.000,91143.133,9.252,0.000,0.000,1.003,-9.765,0.030,-0.000,0.009,0.007,0.000,0.000
33.923,0,0,-3.996,-0.063,-8.046,-4.097,-0.068,-12.373,-2.024,0.009,-9.583,0.000,0.000,0.0116870,0.000,9144.000,0.014,6.023,10.839,2.372,911.485,9.255,883.438,-0.135,-9.742,0.036,1.014,-0.017,-0.000,-0.018,0.000,0.000,0.000,0.002,0.669,-0.000,0.743,0.0000000,0.0000000,0.000,0.000,0.000,0.000,0,00:00:00,-1006,0.000,0.000,91143.133,9.252,0.000,0.000,1.003,-9.765,0.030,-0.000,0.009,0.007,0.000,0.000
34.024,0,0,-3.994,-0.063,-8.037,-4.062,-0.063,-12.368,-1.752,0.011,-9.623,0.000,0.000,0.0116870,0.000,9144.000,0.014,5.984,11.078,2.390,911.474,9.255,883.541,-0.013,-9.745,0.013,0.840,-0.023,0.022,0.026,0.000,0.000,0.000,0.001,0.673,0.001,0.740,0.0000000,0.0000000,0.000,0.000,0.000,0.000,0,00:00:00,-1006,0.000,0.000,91150.023,9.256,0.000,0.000,1.065,-9.738,-0.016,0.006,0.006,-0.006,0.000,0.000
34.125,0,0,-3.989,-0.063,-8.020,-4.022,-0.056,-12.358,-1.702,0.036,-9.632,0.000,0.000,0.0116870,0.000,9144.000,0.014,5.392,11.319,2.408,911.474,9.255,883.541,0.051,-9.745,0.013,0.840,-0.023,0.022,0.026,0.000,0.000,0.000,0.000,0.675,0.002,0.738,0.0000000,0.0000000,0.000,0.000,0.000,0.000,0,00:00:00,-1006,0.000,0.000,91150.023,9.256,0.000,0.000,1.065,-9.738,-0.016,0.006,0.006,-0.006,0.000,0.000
34.226,0,0,-3.982,-0.062,-7.987,-4.005,-0.051,-12.318,-1.919,0.016,-9.438,0.000,0.000,0.0116870,0.000,9144.000,0.014,5.096,11.563,2.445,911.464,9.254,883.632,0.169,-9.579,0.018,0.997,0.024,-0.012,-0.012,0.000,0.000,0.000,0.001,0.672,0.001,0.741,0.0000000,0.0000000,0.000,0.000,0.000,0.000,0,00:00:00,-1006,0.000,0.000,91146.523,9.254,0.000,0.000,1.017,-9.801,-0.080,-0.003,-0.000,0.002,0.000,0.000
34.327,0,0,-3.975,-0.060,-7.957,-3.992,-0.049,-12.282,-1.956,-0.008,-9.430,0.000,0.000,0.0116870,0.000,9144.000,0.014,5.552,11.812,2.483,911.464,9.254,883.632,0.156,-9.579,0.018,0.997,0.024,-0.012,-0.012,0.000,0.000,0.000,0.002,0.671,-0.001,0.742,0.0000000,0.0000000,0.000,0.000,0.000,0.000,0,00:00:00,-1006,0.000,0.000,91146.523,9.254,0.000,0.000,1.017,-9.801,-0.080,-0.003,-0.000,0.002,0.000,0.000
34.428,0,0,-3.967,-0.059,-7.944,-3.992,-0.036,-12.278,-2.083,0.101,-9.588,0.000,0.000,0.0116870,0.000,9144.000,0.014,5.781,12.062,2.506,911.475,9.255,883.533,0.043,-9.752,0.098,1.076,-0.029,0.027,-0.016,0.000,0.000,0.000,0.002,0.669,0.002,0.743,0.0000000,0.0000000,0.000,0.000,0.000,0.000,0,00:00:00,-1006,0.000,0.000,91145.930,9.254,0.000,0.000,1.006,-9.827,0.003,-0.000,0.004,0.011,0.000,0.000
34.529,0,0,-3.959,-0.057,-7.908,-3.965,-0.050,-12.256,-1.808,-0.172,-9.581,0.000,0.000,0.0116870,0.000,9144.000,0.014,5.961,12.315,2.529,911.459,9.254,883.681,0.221,-9.711,-0.179,0.871,-0.012,-0.008,0.023,0.000,0.000,0.000,-0.003,0.672,-0.001,0.741,0.0000000,0.0000000,0.000,0.000,0.000,0.000,0,00:00:00,-1006,0.000,0.000,91139.633,9.250,0.000,0.000,1.038,-9.759,-0.024,-0.016,0.013,-0.005,0.000,0.000
34.630,0,0,-3.950,-0.056,-7.899,-3.961,-0.054,-12.254,-2.043,-0.070,-9.578,0.000,0.000,0.0116870,0.000,9144.000,0.014,5.567,12.570,2.552,911.478,9.255,883.509,0.054,-9.735,-0.091,1.060,-0.018,0.020,-0.001,0.000,0.000,0.000,-0.004,0.670,-0.001,0.742,0.0000000,0.0000000,0.000,0.000,0.000,0.000,0,00:00:00,-1006,0.000,0.000,91151.172,9.257,0.000,0.000,0.995,-9.673,0.023,0.020,0.000,0.012,0.000,0.000
34.731,0,0,-3.943,-0.056,-7.872,-3.982,-0.046,-12.237,-2.275,0.054,-9.537,0.000,0.000,0.0116870,0.000,9144.000,0.014,5.832,12.828,2.579,911.466,9.254,883.619,0.181,-9.732,0.006,1.192,-0.022,-0.010,0.017,0.000,0.000,0.000,-0.003,0.666,0.001,0.746,0.0000000,0.0000000,0.000,0.000,0.000,0.000,0,00:00:00,-1006,0.000,0.000,91146.812,9.254,0.000,0.000,1.099,-9.805,-0.010,-0.007,0.008,-0.011,0.000,0.000
34.832,0,0,-3.938,-0.054,-7.858,-3.993,-0.036,-12.232,-2.173,0.068,-9.556,0.000,0.000,0.0116870,0.000,9144.000,0.014,6.436,13.089,2.604,911.476,9.255,883.520,0.110,-9.739,0.046,1.095,0.035,0.009,0.020,0.000,0.000,0.000,0.000,0.667,0.001,0.745,0.0000000,0.0000000,0.000,0.000,0.000,0.000,0,00:00:00,-1006,0.000,0.000,91144.188,9.253,0.000,0.000,1.106,-9.808,0.023,-0.006,0.001,0.002,0.000,0.000
34.933,0,0,-3.933,-0.052,-7.850,-3.971,-0.024,-12.236,-1.848,0.089,-9.598,0.000,0.000,0.0116870,0.000,9144.000,0.014,6.398,13.351,2.626,911.483,9.255,883.459,0.076,-9.736,0.070,0.869,0.007,-0.018,0.012,0.000,0.000,0.000,0.001,0.670,0.002,0.742,0.0000000,0.0000000,0.000,0.000,0.000,0.000,0,00:00:00,-1006,0.000,0.000,91156.711,9.260,0.000,0.000,1.061,-9.810,0.003,0.003,0.007,0.020,0.000,0.000
35.034,0,0,-3.926,-0.048,-7.801,-3.936,-0.007,-12.204,-1.724,0.144,-9.552,0.000,0.000,0.0116870,0.000,9144.000,0.014,5.802,13.616,2.651,911.447,9.253,883.790,0.381,-9.672,0.092,0.821,-0.034,-0.019,0.001,0.000,0.000,0.000,0.001,0.673,0.004,0.740,0.0000000,0.0000000,0.000,0.000,0.000,0.000,0,00:00:00,-1006,0.000,0.000,91140.523,9.251,0.000,0.000,1.123,-9.693,0.071,-0.003,-0.014,0.011,0.000,0.000
35.135,0,0,-3.918,-0.044,-7.817,-3.936,0.007,-12.223,-2.050,0.113,-9.551,0.000,0.000,0.0116870,0.000,9144.000,0.014,5.382,13.884,2.677,911.489,9.255,883.409,-0.051,-9.710,0.056,1.071,-0.007,0.005,-0.025,0.000,0.000,0.000,0.000,0.670,0.004,0.742,0.0000000,0.0000000,0.000,0.000,0.000,0.000,0,00:00:00,-1006,0.000,0.000,91149.562,9.256,0.000,0.000,1.103,-9.744,-0.066,0.005,-0.010,0.004,0.000,0.000
35.236,0,0,-3.911,-0.039,-7.832,-3.946,0.012,-12.241,-2.163,0.028,-9.559,0.000,0.000,0.0116870,0.000,9144.000,0.014,5.823,14.154,2.702,911.485,9.255,883.445,-0.048,-9.738,-0.036,1.111,-0.016,-0.028,-0.017,0.000,0.000,0.000,-0.002,0.668,0.002,0.745,0.0000000,0.0000000,0.000,0.000,0.000,0.000,0,00:00:00,-1006,0.000,0.000,91151.344,9.257,0.000,0.000,1.017,-9.792,-0.088,0.001,0.001,0.004,0.000,0.000
35.337,0,0,-3.904,-0.034,-7.881,-3.920,0.021,-12.297,-1.787,0.079,-9.709,0.000,0.000,0.0116870,0.000,9144.000,0.014,6.245,14.426,2.713,911.513,9.257,883.187,-0.294,-9.837,0.012,0.831,0.000,-0.021,0.009,0.000,0.000,0.000,-0.002,0.672,0.003,0.741,0.0000000,0.0000000,0.000,0.000,0.000,0.000,0,00:00:00,-1006,0.000,0.000,91151.672,9.257,0.000,0.000,0.951,-9.753,0.057,-0.002,0.004,0.001,0.000,0.000
35.438,0,0,-3.896,-0.028,-7.872,-3.911,0.029,-12.291,-1.962,0.059,-9.552,0.000,0.000,0.0116870,0.000,9144.000,0.014,5.599,14.699,2.738,911.469,9.254,883.586,0.105,-9.700,0.004,0.998,0.013,0.002,0.016,0.000,0.000,0.000,-0.001,0.671,0.003,0.742,0.0000000,0.0000000,0.000,0.000,0.000,0.000,0,00:00:00,-1006,0.000,0.000,91150.984,9.257,0.000,0.000,1.089,-9.734,-0.052,-0.004,0.004,0.015,0.000,0.000
35.539,0,0,-3.890,-0.022,-7.897,-3.936,0.043,-12.322,-2.291,0.128,-9.666,0.000,0.000,0.0116870,0.000,9144.000,0.014,5.732,14.975,2.753,911.490,9.256,883.392,-0.134,-9.861,0.068,1.206,-0.001,-0.003,0.001,0.000,0.000,0.000,-0.000,0.667,0.004,0.745,0.0000000,0.0000000,0.000,0.000,0.000,0.000,0,00:00:00,-1006,0.000,0.000,91137.812,9.249,0.000,0.000,0.941,-9.816,-0.009,0.002,-0.009,0.002,0.000,0.000
35.640,0,0,-3.885,-0.016,-7.898,-3.929,0.045,-12.321,-1.974,0.014,-9.551,0.000,0.000,0.0116870,0.000,9144.000,0.014,6.362,15.252,2.779,911.472,9.254,883.562,0.032,-9.704,-0.014,0.979,0.024,0.052,-0.033,0.000,0.000,0.000,-0.001,0.670,0.001,0.743,0.0000000,0.0000000,0.000,0.000,0.000,0.000,0,00:00:00,-1006,0.000,0.000,91156.266,9.260,0.000,0.000,0.881,-9.753,0.004,-0.010,0.005,-0.002,0.000,0.000
35.741,0,0,-3.879,-0.010,-7.937,-3.908,0.056,-12.371,-1.829,0.098,-9.780,0.000,0.000,0.0116870,0.000,9144.000,0.014,5.913,15.531,2.782,911.499,9.256,883.315,-0.241,-9.910,0.065,0.893,-0.003,0.031,-0.013,0.000,0.000,0.000,-0.000,0.673,0.002,0.740,0.0000000,0.0000000,0.000,0.000,0.000,0.000,0,00:00:00,-1006,0.000,0.000,91154.438,9.259,0.000,0.000,1.121,-9.777,-0.066,0.008,-0.009,0.014,0.000,0.000
35.842,0,0,-3.873,-0.004,-7.945,-3.923,0.055,-12.368,-2.184,-0.011,-9.516,0.000,0.000,0.0116870,0.000,9144.000,0.014,5.443,15.812,2.811,911.474,9.255,883.538,-0.027,-9.695,-0.034,1.153,0.011,-0.011,0.028,0.000,0.000,0.000,-0.000,0.668,0.001,0.744,0.0000000,0.0000000,0.000,0.000,0.000,0.000,0,00:00:00,-1006,0.000,0.000,91149.734,9.256,0.000,0.000,1.117,-9.653,-0.072,-0.005,0.000,-0.011,0.000,0.000
35.943,0,0,-3.870,0.002,-7.987,-3.951,0.065,-12.396,-2.317,0.098,-9.569,0.000,0.000,0.0116870,0.000,9144.000,0.014,6.145,16.095,2.835,911.502,9.256,883.288,-0.278,-9.771,0.042,1.209,-0.027,0.013,0.021,0.000,0.000,0.000,-0.000,0.665,0.003,0.746,0.0000000,0.0000000,0.000,0.000,0.000,0.000,0,00:00:00,-1006,0.000,0.000,91156.484,9.260,0.000,0.000,1.048,-9.697,0.038,0.006,-0.010,-0.017,0.000,0.000
36.044,0,0,-3.870,0.009,-8.002,-3.982,0.087,-12.385,-2.337,0.222,-9.397,0.000,0.000,0.0116870,0.000,9144.000,0.015,6.562,16.383,2.876,911.482,9.255,883.474,-0.118,-9.608,0.174,1.207,0.020,0.012,0.021,0.000,0.000,0.000,0.003,0.664,0.005,0.748,0.0000000,0.0000000,0.000,0.000,0.000,0.000,0,00:00:00,-1006,0.000,0.000,91134.781,9.247,0.000,0.000,0.980,-9.745,0.083,0.003,0.007,0.005,0.000,0.000
36.145,0,0,-3.871,0.017,-7.944,-3.984,0.109,-12.341,-2.057,0.227,-9.601,0.000,0.000,0.0116870,0.000,9144.000,0.015,6.825,16.673,2.897,911.428,9.252,883.960,0.382,-9.770,0.159,0.994,-0.013,0.006,0.047,0.000,0.000,0.000,0.004,0.667,0.007,0.745,0.0000000,0.0000000,0.000,0.000,0.000,0.000,0,00:00:00,-1006,0.000,0.000,91140.320,9.250,0.000,0.000,1.068,-9.752,-0.048,-0.000,0.025,-0.007,0.000,0.000
36.246,0,0,-3.873,0.025,-8.017,-3.992,0.108,-12.390,-2.118,0.006,-9.527,0.000,0.000,0.0116870,0.000,9144.000,0.015,6.300,16.965,2.925,911.529,9.258,883.044,-0.515,-9.701,-0.091,1.071,-0.043,0.024,0.002,0.000,0.000,0.000,-0.002,0.668,0.005,0.744,0.0000000,0.0000000,0.000,0.000,0.000,0.000,0,00:00:00,-1006,0.000,0.000,91149.969,9.256,0.000,0.000,0.983,-9.720,0.084,-0.013,-0.011,-0.007,0.000,0.000
36.347,0,0,-3.875,0.032,-8.004,-4.000,0.104,-12.378,-2.120,-0.024,-9.596,0.000,0.000,0.0116870,0.000,9144.000,0.015,6.234,17.260,2.947,911.471,9.254,883.565,0.050,-9.770,-0.117,1.057,0.001,-0.027,0.030,0.000,0.000,0.000,-0.004,0.667,0.003,0.745,0.0000000,0.0000000,0.000,0.000,0.000,0.000,0,00:00:00,-1006,0.000,0.000,91140.789,9.251,0.000,0.000,1.071,-9.621,-0.080,0.006,-0.007,0.015,0.000,0.000
36.448,0,0,-3.876,0.039,-7.987,-3.963,0.110,-12.373,-1.667,0.078,-9.691,0.000,0.000,0.0116870,0.000,9144.000,0.015,6.283,17.556,2.959,911.466,9.254,883.616,0.095,-9.804,0.004,0.757,0.014,0.001,-0.062,0.000,0.000,0.000,-0.004,0.673,0.002,0.739,0.0000000,0.0000000,0.000,0.000,0.000,0.000,0,00:00:00,-1006,0.000,0.000,91151.430,9.257,0.000,0.000,1.000,-9.798,0.046,-0.016,0.003,0.009,0.000,0.000
36.549,0,0,-3.876,0.046,-7.992,-3.983,0.117,-12.362,-2.238,0.097,-9.455,0.000,0.000,0.0116870,0.000,9144.000,0.015,5.345,17.855,2.994,911.486,9.255,883.429,-0.063,-9.643,0.015,1.196,-0.009,-0.014,-0.007,0.000,0.000,0.000,-0.004,0.668,0.003,0.745,0.0000000,0.0000000,0.000,0.000,0.000,0.000,0,00:00:00,-1006,0.000,0.000,91147.508,9.255,0.000,0.000,0.901,-9.698,-0.040,0.022,0.005,-0.017,0.000,0.000
36.650,0,0,-3.878,0.053,-8.033,-4.004,0.135,-12.389,-2.241,0.201,-9.560,0.000,0.000,0.0116870,0.000,9144.000,0.015,6.247,18.157,3.019,911.515,9.257,883.171,-0.326,-9.753,0.101,1.153,-0.009,0.015,0.010,0.000,0.000,0.000,-0.001,0.666,0.005,0.746,0.0000000,0.0000000,0.000,0.000,0.000,0.000,0,00:00:00,-1006,0.000,0.000,91146.859,9.254,0.000,0.000,1.017,-9.773,0.070,-0.013,-0.005,-0.008,0.000,0.000
36.751,0,0,-3.881,0.060,-7.987,-4.022,0.129,-12.352,-2.228,-0.023,-9.588,0.000,0.000,0.0116870,0.000,9144.000,0.015,6.454,18.461,3.041,911.452,9.253,883.738,0.272,-9.779,-0.090,1.123,0.033,-0.011,0.041,0.000,0.000,0.000,-0.002,0.666,0.003,0.746,0.0000000,0.0000000,0.000,0.000,0.000,0.000,0,00:00:00,-1006,0.000,0.000,91142.711,9.252,0.000,0.000,0.968,-9.756,-0.001,-0.007,0.021,0.016,0.000,0.000
36.852,0,0,-3.886,0.065,-7.995,-4.037,0.107,-12.334,-2.191,-0.187,-9.347,0.000,0.000,0.0116870,0.000,9144.000,0.015,6.532,18.770,3.088,911.493,9.256,883.372,-0.096,-9.536,-0.225,1.102,0.019,-0.016,0.019,0.000,0.000,0.000,-0.006,0.665,-0.002,0.747,0.0000000,0.0000000,0.000,0.000,0.000,0.000,0,00:00:00,-1006,0.000,0.000,91145.555,9.254,0.000,0.000,1.064,-9.712,-0.018,-0.009,0.011,0.006,0.000,0.000
36.953,0,0,-3.889,0.070,-8.010,-4.009,0.126,-12.340,-1.768,0.228,-9.524,0.000,0.000,0.0116870,0.000,9144.000,0.015,6.609,19.082,3.116,911.502,9.256,883.289,-0.162,-9.653,0.158,0.821,-0.016,0.028,0.006,0.000,0.000,0.000,-0.001,0.671,0.004,0.741,0.0000000,0.0000000,0.000,0.000,0.000,0.000,0,00:00:00,-1006,0.000,0.000,91153.297,9.258,0.000,0.000,0.924,-9.725,0.056,-0.012,-0.004,0.003,0.000,0.000
37.054,0,0,-3.889,0.076,-8.019,-3.973,0.147,-12.343,-1.687,0.248,-9.538,0.000,0.000,0.0116870,0.000,9144.000,0.015,5.656,19.396,3.144,911.502,9.256,883.289,-0.131,-9.653,0.158,0.821,-0.016,0.028,0.006,0.000,0.000,0.000,0.001,0.674,0.006,0.738,0.0000000,0.0000000,0.000,0.000,0.000,0.000,0,00:00:00,-1006,0.000,0.000,91153.297,9.258,0.000,0.000,0.924,-9.725,0.056,-0.012,-0.004,0.003,0.000,0.000
37.155,0,0,-3.886,0.083,-8.035,-3.933,0.170,-12.351,-1.646,0.267,-9.545,0.000,0.000,0.0116870,0.000,9144.000,0.015,5.180,19.713,3.170,911.502,9.256,883.289,-0.186,-9.653,0.158,0.821,-0.016,0.028,0.006,0.000,0.000,0.000,0.002,0.676,0.008,0.737,0.0000000,0.0000000,0.000,0.000,0.000,0.000,0,00:00:00,-1006,0.000,0.000,91153.297,9.258,0.000,0.000,0.924,-9.725,0.056,-0.012,-0.004,0.003,0.000,0.000
37.256,0,0,-3.882,0.091,-7.991,-3.946,0.179,-12.316,-2.172,0.139,-9.569,0.000,0.000,0.0116870,0.000,9144.000,0.015,4.942,20.032,3.194,911.460,9.254,883.665,0.230,-9.742,0.038,1.178,0.004,0.007,-0.028,0.000,0.000,0.000,-0.001,0.670,0.006,0.743,0.0000000,0.0000000,0.000,0.000,0.000,0.000,0,00:00:00,-1006,0.000,0.000,91142.070,9.251,0.000,0.000,1.010,-9.726,0.050,-0.009,0.011,0.006,0.000,0.000
37.357,0,0,-3.880,0.100,-7.963,-3.969,0.189,-12.290,-2.263,0.155,-9.514,0.000,0.000,0.0116870,0.000,9144.000,0.015,5.899,20.355,3.224,911.466,9.254,883.616,0.144,-9.708,0.043,1.191,-0.012,0.020,-0.005,0.000,0.000,0.000,-0.002,0.667,0.006,0.745,0.0000000,0.0000000,0.000,0.000,0.000,0.000,0,00:00:00,-1006,0.000,0.000,91142.633,9.252,0.000,0.000,0.972,-9.714,-0.021,0.008,-0.012,-0.003,0.000,0.000
37.458,0,0,-3.879,0.109,-7.910,-3.966,0.225,-12.264,-2.012,0.415,-9.685,0.000,0.000,0.0116870,0.000,9144.000,0.015,6.389,20.678,3.236,911.445,9.253,883.809,0.333,-9.846,0.295,0.991,0.009,0.013,0.029,0.000,0.000,0.000,0.004,0.669,0.010,0.743,0.0000000,0.0000000,0.000,0.000,0.000,0.000,0,00:00:00,-1006,0.000,0.000,91152.508,9.258,0.000,0.000,0.978,-9.766,-0.064,-0.007,-0.018,0.005,0.000,0.000
37.559,0,0,-3.878,0.119,-7.932,-3.981,0.225,-12.263,-2.185,0.057,-9.341,0.000,0.000,0.0116870,0.000,9144.000,0.015,6.031,21.007,3.283,911.500,9.256,883.304,-0.175,-9.526,-0.079,1.125,-0.032,-0.017,0.010,0.000,0.000,0.000,-0.002,0.666,0.007,0.746,0.0000000,0.0000000,0.000,0.000,0.000,0.000,0,00:00:00,-1006,0.000,0.000,91139.906,9.250,0.000,0.000,1.035,-9.722,-0.052,0.008,-0.011,-0.006,0.000,0.000
37.660,0,0,-3.879,0.129,-7.945,-3.998,0.226,-12.255,-2.218,0.081,-9.333,0.000,0.000,0.0116870,0.000,9144.000,0.015,6.434,21.340,3.331,911.500,9.256,883.304,-0.136,-9.526,-0.079,1.125,-0.032,-0.017,0.010,0.000,0.000,0.000,-0.006,0.665,0.006,0.747,0.0000000,0.0000000,0.000,0.000,0.000,0.000,0,00:00:00,-1006,0.000,0.000,91139.906,9.250,0.000,0.000,1.035,-9.722,-0.052,0.008,-0.011,-0.006,0.000,0.000
37.761,0,0,-3.881,0.137,-7.929,-3.999,0.225,-12.248,-2.049,0.067,-9.575,0.000,0.000,0.0116870,0.000,9144.000,0.016,6.633,21.675,3.354,911.474,9.255,883.545,0.063,-9.741,-0.090,0.995,0.001,-0.004,-0.008,0.000,0.000,0.000,-0.008,0.668,0.004,0.745,0.0000000,0.0000000,0.000,0.000,0.000,0.000,0,00:00:00,-1006,0.000,0.000,91149.625,9.256,0.000,0.000,1.029,-9.714,0.029,0.000,-0.009,-0.020,0.000,0.000
37.862,0,0,-3.883,0.145,-7.911,-4.008,0.231,-12.237,-2.127,0.129,-9.527,0.000,0.000,0.0116870,0.000,9144.000,0.016,6.243,22.014,3.383,911.473,9.255,883.550,0.085,-9.705,-0.009,1.052,0.022,-0.064,0.002,0.000,0.000,0.000,-0.006,0.667,0.004,0.745,0.0000000,0.0000000,0.000,0.000,0.000,0.000,0,00:00:00,-1006,0.000,0.000,91149.766,9.256,0.000,0.000,1.055,-9.691,-0.016,0.012,-0.011,0.017,0.000,0.000
37.963,0,0,-3.886,0.153,-7.886,-4.012,0.238,-12.224,-2.082,0.150,-9.567,0.000,0.000,0.0116870,0.000,9144.000,0.016,6.398,22.354,3.407,911.465,9.254,883.620,0.154,-9.735,-0.001,1.048,-0.005,0.047,0.037,0.000,0.000,0.000,-0.005,0.668,0.006,0.744,0.0000000,0.0000000,0.000,0.000,0.000,0.000,0,00:00:00,-1006,0.000,0.000,91151.648,9.257,0.000,0.000,1.074,-9.749,0.050,-0.000,0.009,-0.014,0.000,0.000
38.064,0,0,-3.888,0.161,-7.860,-4.013,0.246,-12.213,-2.060,0.161,-9.571,0.000,0.000,0.0116870,0.000,9144.000,0.016,6.135,22.697,3.431,911.465,9.254,883.620,0.173,-9.735,-0.001,1.048,-0.005,0.047,0.037,0.000,0.000,0.000,-0.005,0.669,0.007,0.743,0.0000000,0.0000000,0.000,0.000,0.000,0.000,0,00:00:00,-1006,0.000,0.000,91151.648,9.257,0.000,0.000,1.074,-9.749,0.050,-0.000,0.009,-0.014,0.000,0.000
38.165,0,0,-3.892,0.168,-7.826,-4.048,0.249,-12.189,-2.392,0.121,-9.501,0.000,0.000,0.0116870,0.000,9144.000,0.016,6.004,23.044,3.462,911.465,9.254,883.627,0.247,-9.717,-0.029,1.265,0.006,0.001,-0.021,0.000,0.000,0.000,-0.006,0.664,0.005,0.747,0.0000000,0.0000000,0.000,0.000,0.000,0.000,0,00:00:00,-1006,0.000,0.000,91153.172,9.258,0.000,0.000,1.009,-9.733,0.061,0.009,0.003,-0.009,0.000,0.000
38.266,0,0,-3.898,0.176,-7.800,-4.056,0.268,-12.172,-2.130,0.287,-9.489,0.000,0.000,0.0116870,0.000,9144.000,0.016,6.709,23.393,3.494,911.462,9.254,883.651,0.209,-9.672,0.107,1.054,-0.023,0.009,0.010,0.000,0.000,0.000,-0.004,0.666,0.008,0.746,0.0000000,0.0000000,0.000,0.000,0.000,0.000,0,00:00:00,-1006,0.000,0.000,91143.180,9.252,0.000,0.000,1.135,-9.746,0.082,-0.006,-0.022,-0.003,0.000,0.000
38.367,0,0,-3.904,0.184,-7.770,-4.080,0.268,-12.152,-2.291,0.089,-9.469,0.000,0.000,0.0116870,0.000,9144.000,0.016,6.439,23.746,3.528,911.456,9.254,883.700,0.253,-9.672,-0.100,1.170,-0.020,-0.012,-0.011,0.000,0.000,0.000,-0.008,0.665,0.006,0.747,0.0000000,0.0000000,0.000,0.000,0.000,0.000,0,00:00:00,-1006,0.000,0.000,91143.141,9.252,0.000,0.000,0.979,-9.702,-0.049,0.009,0.008,0.009,0.000,0.000
38.468,0,0,-3.912,0.192,-7.745,-4.106,0.268,-12.136,-2.313,0.102,-9.464,0.000,0.000,0.0116870,0.000,9144.000,0.016,6.701,24.102,3.563,911.456,9.254,883.700,0.234,-9.672,-0.100,1.170,-0.020,-0.012,-0.011,0.000,0.000,0.000,-0.010,0.664,0.006,0.748,0.0000000,0.0000000,0.000,0.000,0.000,0.000,0,00:00:00,-1006,0.000,0.000,91143.141,9.252,0.000,0.000,0.979,-9.702,-0.049,0.009,0.008,0.009,0.000,0.000
38.569,0,0,-3.921,0.199,-7.730,-4.107,0.287,-12.139,-2.074,0.293,-9.576,0.000,0.000,0.0116870,0.000,9144.000,0.016,6.831,24.461,3.586,911.463,9.254,883.640,0.186,-9.750,0.084,1.008,0.005,0.016,0.005,0.000,0.000,0.000,-0.007,0.667,0.008,0.745,0.0000000,0.0000000,0.000,0.000,0.000,0.000,0,00:00:00,-1006,0.000,0.000,91152.570,9.258,0.000,0.000,1.081,-9.911,-0.054,0.007,-0.001,0.020,0.000,0.000
38.670,0,0,-3.929,0.207,-7.737,-4.106,0.303,-12.175,-2.057,0.270,-9.737,0.000,0.000,0.0116870,0.000,9144.000,0.016,6.321,24.820,3.593,911.478,9.255,883.509,0.041,-9.904,0.060,1.010,0.003,-0.012,-0.018,0.000,0.000,0.000,-0.006,0.668,0.009,0.744,0.0000000,0.0000000,0.000,0.000,0.000,0.000,0,00:00:00,-1006,0.000,0.000,91153.859,9.258,0.000,0.000,1.064,-9.767,-0.060,0.006,0.013,0.002,0.000,0.000
38.771,0,0,-3.935,0.216,-7.740,-4.099,0.310,-12.180,-1.997,0.179,-9.483,0.000,0.000,0.0116870,0.000,9144.000,0.016,6.105,25.183,3.626,911.475,9.255,883.534,0.086,-9.641,-0.012,1.001,0.011,0.020,-0.003,0.000,0.000,0.000,-0.006,0.669,0.008,0.743,0.0000000,0.0000000,0.000,0.000,0.000,0.000,0,00:00:00,-1006,0.000,0.000,91144.859,9.253,0.000,0.000,0.965,-9.644,0.074,0.018,-0.004,0.004,0.000,0.000
38.872,0,0,-3.940,0.225,-7.723,-4.080,0.329,-12.185,-1.882,0.311,-9.638,0.000,0.000,0.0116870,0.000,9144.000,0.016,5.961,25.547,3.643,911.457,9.254,883.699,0.233,-9.780,0.118,0.926,0.007,0.011,0.006,0.000,0.000,0.000,-0.004,0.671,0.009,0.741,0.0000000,0.0000000,0.000,0.000,0.000,0.000,0,00:00:00,-1006,0.000,0.000,91142.617,9.252,0.000,0.000,1.124,-9.776,0.051,0.011,-0.002,-0.031,0.000,0.000
38.973,0,0,-3.943,0.235,-7.713,-4.058,0.348,-12.195,-1.855,0.307,-9.643,0.000,0.000,0.0116870,0.000,9144.000,0.016,5.652,25.913,3.660,911.457,9.254,883.699,0.200,-9.780,0.118,0.926,0.007,0.011,0.006,0.000,0.000,0.000,-0.003,0.672,0.010,0.740,0.0000000,0.0000000,0.000,0.000,0.000,0.000,0,00:00:00,-1006,0.000,0.000,91142.617,9.252,0.000,0.000,1.124,-9.776,0.051,0.011,-0.002,-0.031,0.000,0.000
39.074,0,0,-3.944,0.245,-7.710,-4.053,0.358,-12.211,-2.033,0.226,-9.652,0.000,0.000,0.0116870,0.000,9144.000,0.016,5.497,26.280,3.676,911.457,9.254,883.696,0.164,-9.809,0.012,1.058,-0.026,0.028,0.013,0.000,0.000,0.000,-0.005,0.671,0.010,0.742,0.0000000,0.0000000,0.000,0.000,0.000,0.000,0,00:00:00,-1006,0.000,0.000,91152.016,9.257,0.000,0.000,1.064,-9.772,-0.091,-0.011,0.002,0.004,0.000,0.000
39.175,0,0,-3.944,0.255,-7.739,-4.038,0.363,-12.249,-1.921,0.190,-9.647,0.000,0.000,0.0116870,0.000,9144.000,0.016,5.746,26.650,3.692,911.476,9.255,883.519,-0.047,-9.792,-0.016,0.951,0.005,-0.024,0.009,0.000,0.000,0.000,-0.006,0.671,0.009,0.741,0.0000000,0.0000000,0.000,0.000,0.000,0.000,0,00:00:00,-1006,0.000,0.000,91147.023,9.254,0.000,0.000,1.033,-9.777,-0.033,0.006,0.011,-0.000,0.000,0.000
39.276,0,0,-3.943,0.265,-7.756,-4.036,0.380,-12.279,-2.051,0.310,-9.690,0.000,0.000,0.0116870,0.000,9144.000,0.016,5.715,27.020,3.704,911.468,9.254,883.600,0.035,-9.854,0.098,1.042,-0.007,-0.017,-0.042,0.000,0.000,0.000,-0.005,0.670,0.009,0.743,0.0000000,0.0000000,0.000,0.000,0.000,0.000,0,00:00:00,-1006,0.000,0.000,91152.648,9.258,0.000,0.000,0.975,-9.784,-0.002,-0.006,0.005,-0.034,0.000,0.000
39.377,0,0,-3.942,0.275,-7.812,-4.032,0.388,-12.315,-2.033,0.216,-9.480,0.000,0.000,0.0116870,0.000,9144.000,0.016,5.922,27.394,3.737,911.498,9.256,883.322,-0.251,-9.643,-0.018,1.029,-0.032,-0.001,-0.000,0.000,0.000,0.000,-0.008,0.669,0.009,0.743,0.0000000,0.0000000,0.000,0.000,0.000,0.000,0,00:00:00,-1006,0.000,0.000,91146.125,9.254,0.000,0.000,1.097,-9.736,-0.012,-0.005,-0.005,-0.004,0.000,0.000
39.478,0,0,-3.941,0.285,-7.832,-4.026,0.382,-12.340,-2.013,0.097,-9.659,0.000,0.000,0.0116870,0.000,9144.000,0.016,6.011,27.769,3.752,911.474,9.255,883.542,-0.021,-9.815,-0.137,1.005,-0.003,0.003,0.003,0.000,0.000,0.000,-0.011,0.670,0.007,0.743,0.0000000,0.0000000,0.000,0.000,0.000,0.000,0,00:00:00,-1006,0.000,0.000,91146.242,9.254,0.000,0.000,0.937,-9.804,0.061,-0.022,0.006,0.016,0.000,0.000
39.579,0,0,-3.940,0.293,-7.885,-4.027,0.385,-12.381,-2.087,0.177,-9.603,0.000,0.000,0.0116870,0.000,9144.000,0.016,5.921,28.146,3.773,911.497,9.256,883.333,-0.263,-9.771,-0.042,1.067,0.015,0.017,0.002,0.000,0.000,0.000,-0.010,0.669,0.007,0.743,0.0000000,0.0000000,0.000,0.000,0.000,0.000,0,00:00:00,-1006,0.000,0.000,91170.156,9.268,0.000,0.000,1.067,-9.734,0.104,0.024,-0.005,-0.005,0.000,0.000
39.680,0,0,-3.937,0.300,-7.869,-4.000,0.370,-12.363,-1.805,0.015,-9.553,0.000,0.000,0.0116870,0.000,9144.000,0.016,6.026,28.526,3.798,911.444,9.253,883.818,0.201,-9.681,-0.183,0.879,0.011,0.032,-0.034,0.000,0.000,0.000,-0.012,0.672,0.003,0.740,0.0000000,0.0000000,0.000,0.000,0.000,0.000,0,00:00:00,-1006,0.000,0.000,91144.016,9.253,0.000,0.000,1.040,-9.744,0.033,0.001,-0.004,-0.032,0.000,0.000
39.781,0,0,-3.934,0.306,-7.911,-3.996,0.366,-12.394,-2.024,0.116,-9.588,0.000,0.000,0.0116870,0.000,9144.000,0.016,5.514,28.908,3.821,911.489,9.255,883.407,-0.208,-9.745,-0.103,1.038,-0.016,-0.013,0.041,0.000,0.000,0.000,-0.012,0.670,0.005,0.742,0.0000000,0.0000000,0.000,0.000,0.000,0.000,0,00:00:00,-1006,0.000,0.000,91135.875,9.248,0.000,0.000,1.051,-9.695,-0.015,-0.012,0.004,-0.001,0.000,0.000
39.882,0,0,-3.930,0.311,-7.972,-3.999,0.372,-12.434,-2.098,0.223,-9.567,0.000,0.000,0.0116870,0.000,9144.000,0.017,5.834,29.293,3.845,911.505,9.256,883.263,-0.367,-9.737,-0.012,1.082,-0.016,0.026,-0.020,0.000,0.000,0.000,-0.011,0.669,0.007,0.743,0.0000000,0.0000000,0.000,0.000,0.000,0.000,0,00:00:00,-1006,0.000,0.000,91146.797,9.254,0.000,0.000,1.038,-9.690,0.007,-0.006,-0.015,0.006,0.000,0.000
39.983,0,0,-3.927,0.315,-8.006,-3.992,0.369,-12.450,-1.999,0.135,-9.565,0.000,0.000,0.0116870,0.000,9144.000,0.017,6.014,29.680,3.870,911.486,9.255,883.432,-0.207,-9.720,-0.099,1.002,0.001,0.011,0.013,0.000,0.000,0.000,-0.011,0.670,0.007,0.743,0.0000000,0.0000000,0.000,0.000,0.000,0.000,0,00:00:00,-1006,0.000,0.000,91148.508,9.255,0.000,0.000,1.021,-9.749,0.035,0.011,0.006,-0.013,0.000,0.000
40.084,0,0,-3.923,0.320,-8.073,-3.982,0.386,-12.500,-1.956,0.342,-9.660,0.000,0.000,0.0116870,0.000,9144.000,0.017,5.916,30.068,3.885,911.514,9.257,883.175,-0.471,-9.814,0.059,0.969,-0.042,-0.010,-0.012,0.000,0.000,0.000,-0.010,0.670,0.010,0.742,0.0000000,0.0000000,0.000,0.000,0.000,0.000,0,00:00:00,-1006,0.000,0.000,91151.273,9.257,0.000,0.000,1.057,-9.809,0.016,-0.005,0.004,0.001,0.000,0.000
40.185,0,0,-3.919,0.327,-8.134,-3.970,0.408,-12.541,-1.946,0.385,-9.660,0.000,0.000,0.0116870,0.000,9144.000,0.017,5.804,30.458,3.900,911.514,9.257,883.175,-0.460,-9.814,0.059,0.969,-0.042,-0.010,-0.012,0.000,0.000,0.000,-0.011,0.671,0.013,0.742,0.0000000,0.0000000,0.000,0.000,0.000,0.000,0,00:00:00,-1006,0.000,0.000,91151.273,9.257,0.000,0.000,1.057,-9.809,0.016,-0.005,0.004,0.001,0.000,0.000
40.286,0,0,-3.914,0.335,-8.170,-3.956,0.436,-12.563,-1.918,0.459,-9.679,0.000,0.000,0.0116870,0.000,9144.000,0.017,5.748,30.849,3.913,911.499,9.256,883.313,-0.317,-9.832,0.120,0.946,-0.011,-0.036,-0.024,0.000,0.000,0.000,-0.009,0.671,0.014,0.741,0.0000000,0.0000000,0.000,0.000,0.000,0.000,0,00:00:00,-1006,0.000,0.000,91150.992,9.257,0.000,0.000,1.145,-9.816,-0.021,0.002,0.003,-0.009,0.000,0.000
40.387,0,0,-3.908,0.344,-8.157,-3.938,0.446,-12.544,-1.879,0.277,-9.659,0.000,0.000,0.0116870,0.000,9144.000,0.017,5.724,31.242,3.928,911.468,9.254,883.600,0.008,-9.799,-0.068,0.937,-0.005,0.015,0.054,0.000,0.000,0.000,-0.011,0.672,0.014,0.740,0.0000000,0.0000000,0.000,0.000,0.000,0.000,0,00:00:00,-1006,0.000,0.000,91138.789,9.250,0.000,0.000,1.015,-9.756,-0.007,0.002,0.008,0.003,0.000,0.000
40.488,0,0,-3.900,0.353,-8.143,-3.919,0.456,-12.525,-1.865,0.285,-9.661,0.000,0.000,0.0116870,0.000,9144.000,0.017,5.551,31.636,3.943,911.468,9.254,883.600,0.024,-9.799,-0.068,0.937,-0.005,0.015,0.054,0.000,0.000,0.000,-0.012,0.672,0.013,0.740,0.0000000,0.0000000,0.000,0.000,0.000,0.000,0,00:00:00,-1006,0.000,0.000,91138.789,9.250,0.000,0.000,1.015,-9.756,-0.007,0.002,0.008,0.003,0.000,0.000
40.589,0,0,-3.891,0.362,-8.139,-3.887,0.470,-12.526,-1.731,0.331,-9.766,0.000,0.000,0.0116870,0.000,9144.000,0.017,5.464,32.031,3.947,911.479,9.255,883.497,-0.048,-9.888,-0.027,0.846,-0.003,0.008,-0.004,0.000,0.000,0.000,-0.013,0.674,0.013,0.738,0.0000000,0.0000000,0.000,0.000,0.000,0.000,0,00:00:00,-1006,0.000,0.000,91145.500,9.253,0.000,0.000,1.093,-9.762,0.052,0.001,-0.004,-0.015,0.000,0.000
40.690,0,0,-3.881,0.372,-8.133,-3.865,0.493,-12.523,-1.819,0.423,-9.737,0.000,0.000,0.0116870,0.000,9144.000,0.017,5.154,32.426,3.954,911.473,9.255,883.549,-0.027,-9.872,0.054,0.919,-0.012,-0.008,-0.020,0.000,0.000,0.000,-0.012,0.674,0.014,0.739,0.0000000,0.0000000,0.000,0.000,0.000,0.000,0,00:00:00,-1006,0.000,0.000,91144.133,9.253,0.000,0.000,0.948,-9.894,0.074,0.009,-0.008,0.004,0.000,0.000
40.791,0,0,-3.871,0.383,-8.093,-3.872,0.516,-12.472,-2.105,0.425,-9.507,0.000,0.000,0.0116870,0.000,9144.000,0.017,5.260,32.825,3.985,911.448,9.253,883.773,0.210,-9.682,0.068,1.113,0.014,-0.010,0.029,0.000,0.000,0.000,-0.010,0.669,0.015,0.743,0.0000000,0.0000000,0.000,0.000,0.000,0.000,0,00:00:00,-1006,0.000,0.000,91141.516,9.251,0.000,0.000,0.978,-9.713,0.038,-0.006,0.001,-0.002,0.000,0.000
40.892,0,0,-3.863,0.397,-8.026,-3.894,0.562,-12.415,-2.256,0.669,-9.616,0.000,0.000,0.0116870,0.000,9144.000,0.017,5.936,33.225,4.004,911.431,9.252,883.934,0.415,-9.823,0.294,1.193,0.004,0.036,0.006,0.000,0.000,0.000,-0.005,0.667,0.019,0.745,0.0000000,0.0000000,0.000,0.000,0.000,0.000,0,00:00:00,-1006,0.000,0.000,91138.922,9.250,0.000,0.000,0.967,-9.718,-0.027,0.018,-0.009,0.007,0.000,0.000
40.993,0,0,-3.856,0.411,-8.021,-3.883,0.572,-12.410,-1.918,0.309,-9.618,0.000,0.000,0.0116870,0.000,9144.000,0.017,6.328,33.628,4.023,911.479,9.255,883.492,-0.001,-9.768,-0.085,0.930,-0.039,0.014,0.008,0.000,0.000,0.000,-0.012,0.670,0.016,0.742,0.0000000,0.0000000,0.000,0.000,0.000,0.000,0,00:00:00,-1006,0.000,0.000,91142.008,9.251,0.000,0.000,1.042,-9.793,0.021,-0.000,0.002,-0.004,0.000,0.000
41.094,0,0,-3.850,0.426,-8.051,-3.889,0.590,-12.403,-2.075,0.404,-9.335,0.000,0.000,0.0116870,0.000,9144.000,0.017,5.846,34.035,4.071,911.513,9.257,883.189,-0.252,-9.512,0.018,1.071,-0.004,0.008,-0.003,0.000,0.000,0.000,-0.012,0.668,0.016,0.744,0.0000000,0.0000000,0.000,0.000,0.000,0.000,0,00:00:00,-1006,0.000,0.000,91147.328,9.255,0.000,0.000,0.943,-9.738,-0.047,0.020,0.017,-0.010,0.000,0.000
41.195,0,0,-3.843,0.441,-8.059,-3.854,0.614,-12.410,-1.681,0.473,-9.643,0.000,0.000,0.0116870,0.000,9144.000,0.017,6.112,34.443,4.087,911.502,9.256,883.290,-0.116,-9.767,0.060,0.800,-0.015,0.062,0.023,0.000,0.000,0.000,-0.012,0.674,0.017,0.738,0.0000000,0.0000000,0.000,0.000,0.000,0.000,0,00:00:00,-1006,0.000,0.000,91149.375,9.256,0.000,0.000,1.077,-9.738,-0.064,-0.009,0.018,-0.007,0.000,0.000
41.296,0,0,-3.834,0.458,-7.973,-3.840,0.657,-12.344,-1.877,0.668,-9.620,0.000,0.000,0.0116870,0.000,9144.000,0.017,5.219,34.854,4.106,911.432,9.252,883.923,0.546,-9.773,0.262,0.968,0.014,0.001,-0.041,0.000,0.000,0.000,-0.008,0.673,0.020,0.740,0.0000000,0.0000000,0.000,0.000,0.000,0.000,0,00:00:00,-1006,0.000,0.000,91146.359,9.254,0.000,0.000,1.101,-9.749,0.014,-0.006,0.011,-0.011,0.000,0.000
41.397,0,0,-3.826,0.477,-7.928,-3.854,0.699,-12.301,-2.154,0.658,-9.482,0.000,0.000,0.0116870,0.000,9144.000,0.017,5.432,35.268,4.139,911.457,9.254,883.698,0.292,-9.674,0.253,1.151,0.004,0.012,-0.031,0.000,0.000,0.000,-0.006,0.669,0.021,0.743,0.0000000,0.0000000,0.000,0.000,0.000,0.000,0,00:00:00,-1006,0.000,0.000,91148.500,9.255,0.000,0.000,0.982,-9.728,0.000,0.007,0.001,-0.004,0.000,0.000
41.498,0,0,-3.821,0.498,-7.887,-3.874,0.738,-12.262,-2.205,0.655,-9.470,0.000,0.000,0.0116870,0.000,9144.000,0.017,6.072,35.685,4.173,911.457,9.254,883.698,0.286,-9.674,0.253,1.151,0.004,0.012,-0.031,0.000,0.000,0.000,-0.005,0.667,0.022,0.745,0.0000000,0.0000000,0.000,0.000,0.000,0.000,0,00:00:00,-1006,0.000,0.000,91148.500,9.255,0.000,0.000,0.982,-9.728,0.000,0.007,0.001,-0.004,0.000,0.000
41.599,0,0,-3.816,0.518,-7.921,-3.851,0.730,-12.313,-1.778,0.194,-9.782,0.000,0.000,0.0116870,0.000,9144.000,0.017,6.392,36.103,4.176,911.511,9.257,883.202,-0.225,-9.909,-0.196,0.816,-0.007,-0.013,-0.021,0.000,0.000,0.000,-0.013,0.672,0.014,0.741,0.0000000,0.0000000,0.000,0.000,0.000,0.000,0,00:00:00,-1006,0.000,0.000,91139.883,9.250,0.000,0.000,1.054,-9.725,0.011,-0.003,-0.005,0.003,0.000,0.000
41.700,0,0,-3.811,0.537,-7.931,-3.866,0.737,-12.334,-2.156,0.348,-9.695,0.000,0.000,0.0116870,0.000,9144.000,0.017,5.591,36.522,4.188,911.496,9.256,883.338,-0.063,-9.875,-0.035,1.119,0.001,-0.013,-0.020,0.000,0.000,0.000,-0.014,0.669,0.014,0.743,0.0000000,0.0000000,0.000,0.000,0.000,0.000,0,00:00:00,-1006,0.000,0.000,91157.891,9.261,0.000,0.000,1.057,-9.728,0.021,0.005,-0.010,-0.009,0.000,0.000
41.801,0,0,-3.808,0.554,-7.947,-3.886,0.742,-12.356,-2.196,0.343,-9.686,0.000,0.000,0.0116870,0.000,9144.000,0.017,6.063,36.942,4.200,911.496,9.256,883.338,-0.100,-9.875,-0.035,1.119,0.001,-0.013,-0.020,0.000,0.000,0.000,-0.015,0.667,0.013,0.745,0.0000000,0.0000000,0.000,0.000,0.000,0.000,0,00:00:00,-1006,0.000,0.000,91157.891,9.261,0.000,0.000,1.057,-9.728,0.021,0.005,-0.010,-0.009,0.000,0.000
41.902,0,0,-3.807,0.571,-7.917,-3.911,0.761,-12.326,-2.250,0.482,-9.513,0.000,0.000,0.0116870,0.000,9144.000,0.017,6.300,37.365,4.230,911.453,9.253,883.729,0.224,-9.719,0.068,1.155,-0.037,0.003,-0.000,0.000,0.000,0.000,-0.014,0.666,0.016,0.746,0.0000000,0.0000000,0.000,0.000,0.000,0.000,0,00:00:00,-1006,0.000,0.000,91144.273,9.253,0.000,0.000,1.072,-9.681,-0.018,0.002,0.005,0.006,0.000,0.000
