State - Time (s),State - Stage,State - Stage,State - PX (m),State - PY (m),State - PZ (m),State - VX (m/s),State - VY (m/s),State - VZ (m/s),State - AX (m/s/s),State - AY (m/s/s),State - AZ (m/s/s),State - Actuation Angle (deg),State - Acutal Angle (deg),State - CdA,State - Est Apo (m),State - Target Apogee (m),State - Mach Number,State - Tilt [deg],State - Pos - Accel Integrated [m],State - Velo - Accel Integrated [m/s],MockBarometer - Pres (hPa),MockBarometer - Temp (C),MockBarometer - Alt ASL (m),MockBarometer - Alt AGL (m),MockIMU - AccX (m/s^2),MockIMU - AccY (m/s^2),MockIMU - AccZ (m/s^2),MockIMU - GyroX (rad/s),MockIMU - GyroY (rad/s),MockIMU - GyroZ (rad/s),MockIMU - MagX (uT),MockIMU - MagY (uT),MockIMU - MagZ (uT),MockIMU - OriX,MockIMU - OriY,MockIMU - OriZ,MockIMU - OriW,MockGPS - Lat,MockGPS - Lon,MockGPS - Alt (m),MockGPS - Disp X (m),MockGPS - Disp Y (m),MockGPS - Disp Z (m),MockGPS - Fix Quality,MockGPS - Time of Day,E5 - Rel Steps,MockBR - Battery Voltage (V),MockBR - ALT (m),MockBR - PRES (Pa),MockBR - TEMP (C),MockBR - VEL (m/s),MockBR - ANG (deg),MockBR - ACCX (m/s^2),MockBR - ACCY (m/s^2),MockBR - ACCZ (m/s^2),MockBR - GYROX (rad/s),MockBR - GYROY (rad/s),MockBR - GYROZ (rad/s),MockBR - ROLL (deg),MockBR - TILT (deg)
14.478,0,0,-834.990,-14.178,-580.720,-115.346,-1.959,-80.221,-7.967,-0.135,-5.541,0.000,0.000,0.0116870,0.000,9144.000,0.343,4.000,0.043,0.427,911.466,9.254,883.615,0.000,-9.636,-0.128,1.151,-0.003,0.012,-0.032,0.000,0.000,0.000,-0.004,0.355,-0.001,0.935,0.0000000,0.0000000,0.000,0.000,0.000,0.000,0,00:00:00,-721,0.000,0.000,91151.266,9.257,0.000,0.000,1.005,-9.695,-0.027,-0.015,0.013,0.006,0.000,0.000
14.579,0,0,-0.308,-0.005,-0.140,1.047,0.036,0.286,-5.185,0.098,-8.118,0.000,0.000,0.0116870,0.000,9144.000,0.004,48.372,0.102,0.596,911.487,9.255,883.422,-0.097,-9.587,0.083,0.935,0.006,-0.008,0.001,0.000,0.000,0.000,-0.000,0.523,0.001,0.853,0.0000000,0.0000000,0.000,0.000,0.000,0.000,0,00:00:00,-721,0.000,0.000,91147.594,9.255,0.000,0.000,1.104,-9.778,-0.049,-0.020,0.004,-0.001,0.000,0.000
14.680,0,0,-0.109,-0.001,0.081,0.691,0.033,-0.611,-3.672,-0.036,-9.198,0.000,0.000,0.0116870,0.000,9144.000,0.003,26.996,0.168,0.657,911.425,9.252,883.989,0.314,-9.858,-0.099,0.947,-0.040,-0.012,0.030,0.000,0.000,0.000,-0.004,0.600,0.001,0.800,0.0000000,0.0000000,0.000,0.000,0.000,0.000,0,00:00:00,-721,0.000,0.000,91153.109,9.258,0.000,0.000,0.980,-9.697,-0.089,-0.005,0.002,-0.012,0.000,0.000
14.781,0,0,-0.035,0.002,-0.143,0.413,0.044,-1.580,-2.775,0.108,-9.438,0.000,0.000,0.0116870,0.000,9144.000,0.002,16.277,0.237,0.695,911.513,9.257,883.190,-0.364,-9.792,0.047,0.950,0.010,0.024,0.006,0.000,0.000,0.000,-0.002,0.637,0.003,0.771,0.0000000,0.0000000,0.000,0.000,0.000,0.000,0,00:00:00,-721,0.000,0.000,91152.258,9.257,0.000,0.000,1.027,-9.766,0.033,0.006,-0.015,-0.001,0.000,0.000
14.882,0,0,-0.004,0.005,-0.336,0.179,0.054,-2.543,-2.324,0.101,-9.559,0.000,0.000,0.0116870,0.000,9144.000,0.002,10.842,0.309,0.720,911.513,9.257,883.190,-0.291,-9.792,0.047,0.950,0.010,0.024,0.006,0.000,0.000,0.000,-0.001,0.655,0.003,0.755,0.0000000,0.0000000,0.000,0.000,0.000,0.000,0,00:00:00,-721,0.000,0.000,91152.258,9.257,0.000,0.000,1.027,-9.766,0.033,0.006,-0.015,-0.001,0.000,0.000
14.983,0,0,0.002,0.009,-0.471,-0.061,0.064,-3.474,-2.374,0.105,-9.482,0.000,0.000,0.0116870,0.000,9144.000,0.002,8.125,0.385,0.752,911.459,9.254,883.673,0.160,-9.710,0.030,1.129,-0.021,-0.016,0.006,0.000,0.000,0.000,-0.001,0.660,0.004,0.751,0.0000000,0.0000000,0.000,0.000,0.000,0.000,0,00:00:00,-721,0.000,0.000,91153.594,9.258,0.000,0.000,0.951,-9.740,-0.089,-0.005,-0.011,-0.011,0.000,0.000
15.084,0,0,-0.013,0.013,-0.689,-0.295,0.076,-4.400,-2.316,0.125,-9.497,0.000,0.000,0.0116870,0.000,9144.000,0.003,7.424,0.463,0.784,911.459,9.254,883.673,0.137,-9.710,0.030,1.129,-0.021,-0.016,0.006,0.000,0.000,0.000,-0.002,0.662,0.005,0.749,0.0000000,0.0000000,0.000,0.000,0.000,0.000,0,00:00:00,-721,0.000,0.000,91153.594,9.258,0.000,0.000,0.951,-9.740,-0.089,-0.005,-0.011,-0.011,0.000,0.000
15.185,0,0,-0.046,0.018,-0.977,-0.524,0.090,-5.316,-2.287,0.146,-9.503,0.000,0.000,0.0116870,0.000,9144.000,0.003,7.074,0.544,0.814,911.459,9.254,883.673,0.120,-9.710,0.030,1.129,-0.021,-0.016,0.006,0.000,0.000,0.000,-0.003,0.663,0.005,0.748,0.0000000,0.0000000,0.000,0.000,0.000,0.000,0,00:00:00,-721,0.000,0.000,91153.594,9.258,0.000,0.000,0.951,-9.740,-0.089,-0.005,-0.011,-0.011,0.000,0.000
15.286,0,0,-0.096,0.024,-1.369,-0.771,0.106,-6.220,-2.466,0.162,-9.433,0.000,0.000,0.0116870,0.000,9144.000,0.003,6.899,0.630,0.852,911.498,9.256,883.325,-0.203,-9.669,0.041,1.264,-0.006,-0.011,-0.005,0.000,0.000,0.000,-0.003,0.661,0.006,0.750,0.0000000,0.0000000,0.000,0.000,0.000,0.000,0,00:00:00,-721,0.000,0.000,91140.078,9.250,0.000,0.000,0.960,-9.846,-0.014,-0.011,-0.013,0.010,0.000,0.000
15.387,0,0,-0.162,0.031,-1.839,-0.977,0.125,-7.120,-2.081,0.197,-9.540,0.000,0.000,0.0116870,0.000,9144.000,0.004,7.205,0.718,0.879,911.531,9.258,883.022,-0.455,-9.717,0.092,0.979,0.016,-0.026,-0.015,0.000,0.000,0.000,-0.001,0.666,0.006,0.746,0.0000000,0.0000000,0.000,0.000,0.000,0.000,0,00:00:00,-721,0.000,0.000,91139.312,9.250,0.000,0.000,1.114,-9.780,-0.002,0.004,0.001,-0.008,0.000,0.000
15.488,0,0,-0.240,0.040,-2.343,-1.177,0.143,-7.990,-2.026,0.181,-9.552,0.000,0.000,0.0116870,0.000,9144.000,0.004,6.554,0.808,0.905,911.531,9.258,883.022,-0.455,-9.717,0.092,0.979,0.016,-0.026,-0.015,0.000,0.000,0.000,-0.000,0.668,0.005,0.744,0.0000000,0.0000000,0.000,0.000,0.000,0.000,0,00:00:00,-721,0.000,0.000,91139.312,9.250,0.000,0.000,1.114,-9.780,-0.002,0.004,0.001,-0.008,0.000,0.000
15.589,0,0,-0.329,0.049,-2.792,-1.357,0.150,-8.772,-1.863,0.084,-9.428,0.000,0.000,0.0116870,0.000,9144.000,0.005,6.229,0.902,0.943,911.451,9.253,883.752,0.275,-9.568,0.008,0.901,0.011,0.002,0.016,0.000,0.000,0.000,-0.001,0.670,0.004,0.742,0.0000000,0.0000000,0.000,0.000,0.000,0.000,0,00:00:00,-721,0.000,0.000,91144.133,9.253,0.000,0.000,1.011,-9.786,0.061,-0.001,-0.019,-0.005,0.000,0.000
15.690,0,0,-0.430,0.059,-3.301,-1.569,0.167,-9.532,-2.188,0.182,-9.560,0.000,0.000,0.0116870,0.000,9144.000,0.006,5.800,0.999,0.968,911.478,9.255,883.504,0.027,-9.742,0.109,1.139,0.012,0.001,0.011,0.000,0.000,0.000,0.001,0.668,0.005,0.744,0.0000000,0.0000000,0.000,0.000,0.000,0.000,0,00:00:00,-721,0.000,0.000,91144.320,9.253,0.000,0.000,1.034,-9.800,-0.018,0.000,0.008,-0.003,0.000,0.000
15.791,0,0,-0.542,0.068,-3.803,-1.751,0.155,-10.218,-1.934,-0.102,-9.534,0.000,0.000,0.0116870,0.000,9144.000,0.006,6.231,1.099,0.996,911.455,9.253,883.715,0.237,-9.679,-0.200,0.956,-0.040,0.037,0.020,0.000,0.000,0.000,-0.005,0.670,0.002,0.742,0.0000000,0.0000000,0.000,0.000,0.000,0.000,0,00:00:00,-721,0.000,0.000,91141.766,9.251,0.000,0.000,0.999,-9.893,-0.056,0.011,0.001,0.009,0.000,0.000
15.892,0,0,-0.664,0.077,-4.329,-1.930,0.167,-10.864,-1.927,0.132,-9.687,0.000,0.000,0.0116870,0.000,9144.000,0.006,5.831,1.200,1.008,911.471,9.254,883.571,0.094,-9.832,0.053,0.954,0.026,-0.008,0.001,0.000,0.000,0.000,-0.003,0.671,0.003,0.741,0.0000000,0.0000000,0.000,0.000,0.000,0.000,0,00:00:00,-721,0.000,0.000,91145.695,9.254,0.000,0.000,1.102,-9.767,0.024,0.004,0.001,0.007,0.000,0.000
15.993,0,0,-0.794,0.085,-4.807,-2.110,0.155,-11.390,-1.989,-0.095,-9.500,0.000,0.000,0.0116870,0.000,9144.000,0.007,5.709,1.303,1.039,911.429,9.252,883.947,0.470,-9.652,-0.157,1.013,0.007,0.005,-0.010,0.000,0.000,0.000,-0.006,0.670,-0.000,0.742,0.0000000,0.0000000,0.000,0.000,0.000,0.000,0,00:00:00,-721,0.000,0.000,91144.445,9.253,0.000,0.000,1.022,-9.752,-0.019,0.006,0.009,0.002,0.000,0.000
16.094,0,0,-0.932,0.092,-5.267,-2.287,0.142,-11.839,-1.999,-0.108,-9.497,0.000,0.000,0.0116870,0.000,9144.000,0.008,5.836,1.410,1.070,911.429,9.252,883.947,0.470,-9.652,-0.157,1.013,0.007,0.005,-0.010,0.000,0.000,0.000,-0.007,0.670,-0.002,0.743,0.0000000,0.0000000,0.000,0.000,0.000,0.000,0,00:00:00,-721,0.000,0.000,91144.445,9.253,0.000,0.000,1.022,-9.752,-0.019,0.006,0.009,0.002,0.000,0.000
16.195,0,0,-1.078,0.098,-5.764,-2.475,0.147,-12.265,-2.167,0.079,-9.572,0.000,0.000,0.0116870,0.000,9144.000,0.008,5.901,1.520,1.094,911.490,9.256,883.394,-0.083,-9.752,0.026,1.106,0.000,-0.035,-0.021,0.000,0.000,0.000,-0.004,0.667,0.000,0.745,0.0000000,0.0000000,0.000,0.000,0.000,0.000,0,00:00:00,-721,0.000,0.000,91145.328,9.253,0.000,0.000,0.974,-9.731,-0.007,-0.006,-0.000,-0.004,0.000,0.000
16.296,0,0,-1.231,0.104,-6.212,-2.654,0.152,-12.610,-2.136,0.081,-9.652,0.000,0.000,0.0116870,0.000,9144.000,0.009,6.286,1.631,1.110,911.480,9.255,883.490,0.013,-9.826,-0.009,1.086,-0.030,0.043,0.028,0.000,0.000,0.000,-0.004,0.668,0.003,0.744,0.0000000,0.0000000,0.000,0.000,0.000,0.000,0,00:00:00,-721,0.000,0.000,91147.367,9.255,0.000,0.000,1.068,-9.741,0.034,-0.005,-0.026,-0.000,0.000,0.000
16.397,0,0,-1.389,0.110,-6.625,-2.815,0.153,-12.894,-2.029,0.049,-9.737,0.000,0.000,0.0116870,0.000,9144.000,0.009,6.172,1.743,1.117,911.488,9.255,883.416,-0.061,-9.894,-0.068,1.011,-0.032,0.025,-0.021,0.000,0.000,0.000,-0.006,0.670,0.003,0.743,0.0000000,0.0000000,0.000,0.000,0.000,0.000,0,00:00:00,-721,0.000,0.000,91150.969,9.257,0.000,0.000,1.032,-9.763,0.139,0.001,-0.013,-0.009,0.000,0.000
16.498,0,0,-1.550,0.117,-6.992,-2.955,0.184,-13.092,-1.902,0.346,-9.579,0.000,0.000,0.0116870,0.000,9144.000,0.009,5.932,1.857,1.140,911.496,9.256,883.344,-0.074,-9.724,0.224,0.941,0.010,0.001,0.021,0.000,0.000,0.000,-0.000,0.671,0.008,0.741,0.0000000,0.0000000,0.000,0.000,0.000,0.000,0,00:00:00,-721,0.000,0.000,91138.375,9.249,0.000,0.000,1.013,-9.750,-0.030,0.002,-0.017,-0.011,0.000,0.000
16.599,0,0,-1.711,0.126,-7.283,-3.082,0.205,-13.205,-1.845,0.252,-9.551,0.000,0.000,0.0116870,0.000,9144.000,0.010,5.725,1.973,1.166,911.472,9.254,883.559,0.108,-9.687,0.126,0.917,0.000,0.008,0.023,0.000,0.000,0.000,0.001,0.672,0.009,0.740,0.0000000,0.0000000,0.000,0.000,0.000,0.000,0,00:00:00,-721,0.000,0.000,91138.945,9.250,0.000,0.000,1.095,-9.779,0.037,0.006,0.003,0.010,0.000,0.000
16.700,0,0,-1.873,0.135,-7.539,-3.239,0.203,-13.274,-2.239,0.021,-9.530,0.000,0.000,0.0116870,0.000,9144.000,0.010,5.543,2.093,1.194,911.490,9.256,883.396,-0.007,-9.715,-0.078,1.200,0.022,0.040,0.011,0.000,0.000,0.000,-0.002,0.668,0.005,0.744,0.0000000,0.0000000,0.000,0.000,0.000,0.000,0,00:00:00,-721,0.000,0.000,91136.898,9.248,0.000,0.000,0.924,-9.812,-0.068,-0.007,-0.008,-0.008,0.000,0.000
16.801,0,0,-2.035,0.144,-7.720,-3.360,0.207,-13.266,-1.985,0.096,-9.395,0.000,0.000,0.0116870,0.000,9144.000,0.011,6.178,2.216,1.236,911.463,9.254,883.641,0.186,-9.552,-0.013,0.990,-0.008,0.013,0.038,0.000,0.000,0.000,-0.003,0.669,0.005,0.743,0.0000000,0.0000000,0.000,0.000,0.000,0.000,0,00:00:00,-721,0.000,0.000,91152.984,9.258,0.000,0.000,1.032,-9.747,0.062,-0.006,0.003,0.003,0.000,0.000
16.902,0,0,-2.194,0.153,-7.841,-3.490,0.226,-13.221,-2.160,0.250,-9.483,0.000,0.000,0.0116870,0.000,9144.000,0.011,6.012,2.343,1.268,911.446,9.253,883.796,0.303,-9.666,0.143,1.102,0.005,-0.028,-0.035,0.000,0.000,0.000,-0.001,0.667,0.006,0.745,0.0000000,0.0000000,0.000,0.000,0.000,0.000,0,00:00:00,-721,0.000,0.000,91154.102,9.259,0.000,0.000,0.992,-9.781,0.021,-0.008,-0.001,-0.007,0.000,0.000
17.003,0,0,-2.350,0.161,-7.949,-3.607,0.214,-13.177,-2.132,-0.044,-9.542,0.000,0.000,0.0116870,0.000,9144.000,0.011,6.336,2.473,1.295,911.461,9.254,883.659,0.138,-9.718,-0.120,1.069,0.014,-0.002,-0.039,0.000,0.000,0.000,-0.004,0.667,0.002,0.745,0.0000000,0.0000000,0.000,0.000,0.000,0.000,0,00:00:00,-721,0.000,0.000,91150.336,9.256,0.000,0.000,0.976,-9.751,-0.036,-0.007,0.003,-0.006,0.000,0.000
17.104,0,0,-2.501,0.167,-8.083,-3.706,0.192,-13.169,-2.067,-0.153,-9.601,0.000,0.000,0.0116870,0.000,9144.000,0.012,6.314,2.604,1.316,911.506,9.256,883.253,-0.295,-9.766,-0.206,1.033,0.013,0.019,-0.011,0.000,0.000,0.000,-0.007,0.668,-0.002,0.744,0.0000000,0.0000000,0.000,0.000,0.000,0.000,0,00:00:00,-721,0.000,0.000,91143.406,9.252,0.000,0.000,0.964,-9.759,-0.012,0.013,-0.002,0.004,0.000,0.000
17.205,0,0,-2.646,0.172,-8.124,-3.793,0.201,-13.106,-2.038,0.165,-9.720,0.000,0.000,0.0116870,0.000,9144.000,0.012,6.121,2.737,1.325,911.458,9.254,883.687,0.166,-9.879,0.080,1.022,-0.021,0.029,-0.006,0.000,0.000,0.000,-0.004,0.670,0.002,0.743,0.0000000,0.0000000,0.000,0.000,0.000,0.000,0,00:00:00,-721,0.000,0.000,91143.203,9.252,0.000,0.000,0.976,-9.684,0.037,-0.016,0.000,-0.002,0.000,0.000
17.306,0,0,-2.783,0.176,-8.158,-3.861,0.197,-13.038,-1.958,0.044,-9.612,0.000,0.000,0.0116870,0.000,9144.000,0.012,5.930,2.871,1.345,911.467,9.254,883.607,0.071,-9.759,-0.036,0.993,0.004,0.059,-0.002,0.000,0.000,0.000,-0.004,0.671,0.002,0.741,0.0000000,0.0000000,0.000,0.000,0.000,0.000,0,00:00:00,-721,0.000,0.000,91153.984,9.258,0.000,0.000,1.086,-9.751,0.016,-0.005,0.003,-0.005,0.000,0.000
17.407,0,0,-2.911,0.179,-8.180,-3.917,0.192,-12.972,-1.939,0.040,-9.616,0.000,0.000,0.0116870,0.000,9144.000,0.012,5.702,3.008,1.364,911.467,9.254,883.607,0.031,-9.759,-0.036,0.993,0.004,0.059,-0.002,0.000,0.000,0.000,-0.004,0.672,0.002,0.741,0.0000000,0.0000000,0.000,0.000,0.000,0.000,0,00:00:00,-721,0.000,0.000,91153.984,9.258,0.000,0.000,1.086,-9.751,0.016,-0.005,0.003,-0.005,0.000,0.000
17.508,0,0,-3.029,0.182,-8.194,-3.964,0.187,-12.910,-1.929,0.036,-9.618,0.000,0.000,0.0116870,0.000,9144.000,0.012,5.588,3.146,1.384,911.467,9.254,883.607,-0.001,-9.759,-0.036,0.993,0.004,0.059,-0.002,0.000,0.000,0.000,-0.004,0.672,0.002,0.740,0.0000000,0.0000000,0.000,0.000,0.000,0.000,0,00:00:00,-721,0.000,0.000,91153.984,9.258,0.000,0.000,1.086,-9.751,0.016,-0.005,0.003,-0.005,0.000,0.000
17.609,0,0,-3.138,0.183,-8.194,-4.001,0.181,-12.849,-1.925,0.032,-9.619,0.000,0.000,0.0116870,0.000,9144.000,0.013,5.532,3.286,1.403,911.467,9.254,883.607,0.019,-9.759,-0.036,0.993,0.004,0.059,-0.002,0.000,0.000,0.000,-0.004,0.672,0.001,0.740,0.0000000,0.0000000,0.000,0.000,0.000,0.000,0,00:00:00,-721,0.000,0.000,91153.984,9.258,0.000,0.000,1.086,-9.751,0.016,-0.005,0.003,-0.005,0.000,0.000
17.710,0,0,-3.236,0.184,-8.222,-4.026,0.175,-12.819,-1.880,0.035,-9.626,0.000,0.000,0.0116870,0.000,9144.000,0.013,5.503,3.428,1.421,911.495,9.256,883.352,-0.226,-9.762,-0.032,0.952,0.003,0.021,0.007,0.000,0.000,0.000,-0.004,0.672,0.002,0.740,0.0000000,0.0000000,0.000,0.000,0.000,0.000,0,00:00:00,-721,0.000,0.000,91144.203,9.253,0.000,0.000,1.122,-9.833,-0.021,0.005,-0.009,-0.003,0.000,0.000
17.811,0,0,-3.325,0.184,-8.223,-4.064,0.178,-12.765,-2.073,0.124,-9.524,0.000,0.000,0.0116870,0.000,9144.000,0.013,5.478,3.573,1.450,911.481,9.255,883.481,-0.089,-9.688,0.040,1.078,-0.012,-0.007,0.018,0.000,0.000,0.000,-0.002,0.670,0.004,0.743,0.0000000,0.0000000,0.000,0.000,0.000,0.000,0,00:00:00,-721,0.000,0.000,91154.820,9.259,0.000,0.000,1.050,-9.741,0.068,0.004,0.003,-0.008,0.000,0.000
17.912,0,0,-3.407,0.184,-8.234,-4.104,0.175,-12.748,-2.172,0.060,-9.745,0.000,0.000,0.0116870,0.000,9144.000,0.013,5.934,3.719,1.456,911.489,9.256,883.404,-0.189,-9.922,-0.004,1.113,0.023,0.002,0.004,0.000,0.000,0.000,-0.002,0.668,0.003,0.744,0.0000000,0.0000000,0.000,0.000,0.000,0.000,0,00:00:00,-721,0.000,0.000,91150.492,9.256,0.000,0.000,1.006,-9.657,0.088,-0.006,0.013,0.009,0.000,0.000
18.013,0,0,-3.480,0.183,-8.215,-4.126,0.172,-12.697,-2.046,0.071,-9.589,0.000,0.000,0.0116870,0.000,9144.000,0.013,6.163,3.867,1.478,911.471,9.254,883.569,0.004,-9.751,0.017,1.022,0.009,0.005,-0.001,0.000,0.000,0.000,-0.001,0.669,0.002,0.743,0.0000000,0.0000000,0.000,0.000,0.000,0.000,0,00:00:00,-721,0.000,0.000,91148.445,9.255,0.000,0.000,1.072,-9.726,0.039,-0.001,0.000,-0.008,0.000,0.000
18.114,0,0,-3.546,0.183,-8.205,-4.144,0.183,-12.662,-2.059,0.206,-9.616,0.000,0.000,0.0116870,0.000,9144.000,0.013,6.060,4.017,1.498,911.486,9.255,883.430,-0.065,-9.780,0.154,1.039,0.009,0.010,-0.001,0.000,0.000,0.000,0.002,0.669,0.004,0.743,0.0000000,0.0000000,0.000,0.000,0.000,0.000,0,00:00:00,-721,0.000,0.000,91141.641,9.251,0.000,0.000,0.916,-9.793,-0.052,-0.002,0.016,0.006,0.000,0.000
18.215,0,0,-3.604,0.183,-8.179,-4.152,0.185,-12.630,-2.003,0.111,-9.729,0.000,0.000,0.0116870,0.000,9144.000,0.013,6.032,4.167,1.506,911.471,9.254,883.573,0.049,-9.884,0.056,0.993,-0.006,-0.004,-0.007,0.000,0.000,0.000,0.001,0.670,0.004,0.743,0.0000000,0.0000000,0.000,0.000,0.000,0.000,0,00:00:00,-721,0.000,0.000,91144.070,9.253,0.000,0.000,1.088,-9.831,0.030,0.006,0.011,-0.002,0.000,0.000
18.316,0,0,-3.654,0.184,-8.168,-4.152,0.202,-12.607,-1.955,0.272,-9.652,0.000,0.000,0.0116870,0.000,9144.000,0.013,5.897,4.319,1.522,911.480,9.255,883.490,-0.046,-9.801,0.205,0.978,-0.002,0.009,0.021,0.000,0.000,0.000,0.004,0.671,0.007,0.742,0.0000000,0.0000000,0.000,0.000,0.000,0.000,0,00:00:00,-721,0.000,0.000,91145.633,9.254,0.000,0.000,1.007,-9.698,0.016,0.020,-0.005,0.012,0.000,0.000
18.417,0,0,-3.697,0.186,-8.127,-4.143,0.196,-12.559,-1.906,0.035,-9.601,0.000,0.000,0.0116870,0.000,9144.000,0.013,5.773,4.473,1.542,911.453,9.253,883.731,0.176,-9.743,-0.016,0.948,0.005,-0.002,-0.012,0.000,0.000,0.000,0.001,0.671,0.004,0.741,0.0000000,0.0000000,0.000,0.000,0.000,0.000,0,00:00:00,-721,0.000,0.000,91143.820,9.253,0.000,0.000,1.138,-9.711,0.041,0.006,-0.008,-0.006,0.000,0.000
18.518,0,0,-3.733,0.186,-8.103,-4.136,0.186,-12.529,-1.953,0.009,-9.622,0.000,0.000,0.0116870,0.000,9144.000,0.013,5.671,4.630,1.561,911.461,9.254,883.659,0.078,-9.769,-0.040,0.987,-0.004,0.005,-0.008,0.000,0.000,0.000,-0.001,0.671,0.002,0.741,0.0000000,0.0000000,0.000,0.000,0.000,0.000,0,00:00:00,-721,0.000,0.000,91148.414,9.255,0.000,0.000,1.030,-9.644,0.001,0.003,0.011,-0.016,0.000,0.000
18.619,0,0,-3.764,0.185,-8.095,-4.137,0.180,-12.515,-2.049,0.037,-9.613,0.000,0.000,0.0116870,0.000,9144.000,0.013,5.706,4.788,1.581,911.472,9.254,883.560,-0.026,-9.773,0.010,1.051,0.030,0.009,0.043,0.000,0.000,0.000,0.000,0.670,0.002,0.743,0.0000000,0.0000000,0.000,0.000,0.000,0.000,0,00:00:00,-721,0.000,0.000,91140.508,9.251,0.000,0.000,0.997,-9.747,0.004,0.008,0.001,0.010,0.000,0.000
18.720,0,0,-3.791,0.184,-8.053,-4.132,0.178,-12.471,-2.001,0.084,-9.563,0.000,0.000,0.0116870,0.000,9144.000,0.013,5.894,4.948,1.606,911.444,9.253,883.811,0.229,-9.717,0.063,1.023,0.007,0.048,-0.003,0.000,0.000,0.000,0.001,0.670,0.002,0.742,0.0000000,0.0000000,0.000,0.000,0.000,0.000,0,00:00:00,-721,0.000,0.000,91148.266,9.255,0.000,0.000,0.987,-9.718,-0.019,0.001,0.006,-0.012,0.000,0.000
18.821,0,0,-3.812,0.183,-8.111,-4.121,0.172,-12.497,-1.965,0.038,-9.481,0.000,0.000,0.0116870,0.000,9144.000,0.013,5.813,5.112,1.638,911.523,9.258,883.096,-0.470,-9.633,-0.000,0.984,-0.022,-0.019,-0.006,0.000,0.000,0.000,-0.001,0.670,0.002,0.742,0.0000000,0.0000000,0.000,0.000,0.000,0.000,0,00:00:00,-721,0.000,0.000,91136.711,9.248,0.000,0.000,1.005,-9.663,-0.051,-0.001,0.000,-0.002,0.000,0.000
18.922,0,0,-3.831,0.181,-8.128,-4.128,0.165,-12.511,-2.147,0.032,-9.695,0.000,0.000,0.0116870,0.000,9144.000,0.013,5.878,5.277,1.650,911.498,9.256,883.326,-0.200,-9.869,-0.002,1.096,0.009,-0.015,0.026,0.000,0.000,0.000,-0.000,0.668,0.002,0.744,0.0000000,0.0000000,0.000,0.000,0.000,0.000,0,00:00:00,-721,0.000,0.000,91138.828,9.250,0.000,0.000,1.095,-9.710,0.025,0.007,-0.013,0.004,0.000,0.000
19.023,0,0,-3.849,0.179,-8.080,-4.162,0.154,-12.457,-2.418,-0.012,-9.501,0.000,0.000,0.0116870,0.000,9144.000,0.013,6.150,5.445,1.681,911.449,9.253,883.772,0.255,-9.721,-0.026,1.270,0.018,-0.013,0.000,0.000,0.000,0.000,-0.001,0.664,0.001,0.748,0.0000000,0.0000000,0.000,0.000,0.000,0.000,0,00:00:00,-721,0.000,0.000,91145.562,9.254,0.000,0.000,1.070,-9.836,0.030,-0.011,-0.005,0.010,0.000,0.000
19.124,0,0,-3.867,0.175,-8.103,-4.175,0.140,-12.470,-2.223,-0.049,-9.599,0.000,0.000,0.0116870,0.000,9144.000,0.013,6.835,5.615,1.702,911.501,9.256,883.298,-0.238,-9.789,-0.061,1.115,-0.001,0.044,0.005,0.000,0.000,0.000,-0.002,0.666,-0.000,0.746,0.0000000,0.0000000,0.000,0.000,0.000,0.000,0,00:00:00,-721,0.000,0.000,91140.953,9.251,0.000,0.000,0.978,-9.763,-0.024,0.023,0.008,0.014,0.000,0.000
19.225,0,0,-3.883,0.171,-8.104,-4.187,0.127,-12.450,-2.216,-0.037,-9.453,0.000,0.000,0.0116870,0.000,9144.000,0.013,6.541,5.789,1.738,911.486,9.255,883.434,-0.090,-9.645,-0.045,1.121,0.001,0.006,-0.013,0.000,0.000,0.000,-0.002,0.665,-0.001,0.746,0.0000000,0.0000000,0.000,0.000,0.000,0.000,0,00:00:00,-721,0.000,0.000,91143.188,9.252,0.000,0.000,1.115,-9.822,0.057,0.006,0.001,-0.010,0.000,0.000
19.326,0,0,-3.898,0.166,-8.087,-4.177,0.119,-12.435,-1.996,0.010,-9.629,0.000,0.000,0.0116870,0.000,9144.000,0.013,6.568,5.965,1.756,911.474,9.255,883.545,0.033,-9.787,0.032,0.956,0.040,-0.021,0.026,0.000,0.000,0.000,0.001,0.668,-0.001,0.744,0.0000000,0.0000000,0.000,0.000,0.000,0.000,0,00:00:00,-721,0.000,0.000,91144.297,9.253,0.000,0.000,1.013,-9.814,-0.034,0.005,0.000,-0.007,0.000,0.000
19.427,0,0,-3.910,0.161,-8.030,-4.151,0.116,-12.394,-1.853,0.057,-9.645,0.000,0.000,0.0116870,0.000,9144.000,0.013,6.134,6.142,1.772,911.440,9.253,883.853,0.328,-9.781,0.072,0.885,-0.005,-0.021,-0.003,0.000,0.000,0.000,0.002,0.671,0.001,0.741,0.0000000,0.0000000,0.000,0.000,0.000,0.000,0,00:00:00,-721,0.000,0.000,91151.203,9.257,0.000,0.000,0.970,-9.716,0.055,0.009,-0.014,-0.007,0.000,0.000
19.528,0,0,-3.918,0.156,-8.029,-4.136,0.118,-12.399,-1.955,0.106,-9.680,0.000,0.000,0.0116870,0.000,9144.000,0.013,5.709,6.321,1.785,911.479,9.255,883.496,-0.034,-9.825,0.110,0.992,-0.010,0.027,-0.017,0.000,0.000,0.000,0.003,0.671,0.002,0.741,0.0000000,0.0000000,0.000,0.000,0.000,0.000,0,00:00:00,-721,0.000,0.000,91148.555,9.255,0.000,0.000,0.940,-9.765,0.019,0.005,-0.002,-0.002,0.000,0.000
19.629,0,0,-3.925,0.152,-7.956,-4.137,0.104,-12.356,-2.106,-0.058,-9.722,0.000,0.000,0.0116870,0.000,9144.000,0.013,5.659,6.500,1.794,911.423,9.252,884.005,0.480,-9.889,-0.054,1.078,-0.005,-0.023,0.003,0.000,0.000,0.000,0.000,0.669,0.000,0.743,0.0000000,0.0000000,0.000,0.000,0.000,0.000,0,00:00:00,-721,0.000,0.000,91144.094,9.253,0.000,0.000,0.914,-9.780,0.051,-0.008,-0.008,0.010,0.000,0.000
19.730,0,0,-3.931,0.147,-7.931,-4.117,0.101,-12.348,-1.908,0.050,-9.704,0.000,0.000,0.0116870,0.000,9144.000,0.013,6.005,6.680,1.805,911.450,9.253,883.761,0.190,-9.846,0.056,0.930,0.006,-0.011,0.019,0.000,0.000,0.000,0.002,0.671,0.001,0.742,0.0000000,0.0000000,0.000,0.000,0.000,0.000,0,00:00:00,-721,0.000,0.000,91149.180,9.256,0.000,0.000,0.981,-9.772,-0.094,0.008,0.017,-0.001,0.000,0.000
19.831,0,0,-3.934,0.141,-7.924,-4.106,0.081,-12.338,-1.988,-0.122,-9.526,0.000,0.000,0.0116870,0.000,9144.000,0.013,5.729,6.864,1.833,911.467,9.254,883.604,0.071,-9.679,-0.073,1.010,0.043,0.004,0.018,0.000,0.000,0.000,0.001,0.670,-0.002,0.742,0.0000000,0.0000000,0.000,0.000,0.000,0.000,0,00:00:00,-721,0.000,0.000,91144.656,9.253,0.000,0.000,1.070,-9.743,-0.004,-0.001,0.015,-0.003,0.000,0.000
19.932,0,0,-3.937,0.134,-7.917,-4.095,0.057,-12.327,-1.996,-0.164,-9.523,0.000,0.000,0.0116870,0.000,9144.000,0.013,5.832,7.050,1.862,911.467,9.254,883.604,0.079,-9.679,-0.073,1.010,0.043,0.004,0.018,0.000,0.000,0.000,0.002,0.670,-0.004,0.742,0.0000000,0.0000000,0.000,0.000,0.000,0.000,0,00:00:00,-721,0.000,0.000,91144.656,9.253,0.000,0.000,1.070,-9.743,-0.004,-0.001,0.015,-0.003,0.000,0.000
20.033,0,0,-3.939,0.126,-7.962,-4.104,0.039,-12.345,-2.181,-0.111,-9.397,0.000,0.000,0.0116870,0.000,9144.000,0.013,5.884,7.240,1.903,911.507,9.257,883.240,-0.305,-9.582,-0.013,1.122,0.011,-0.037,0.014,0.000,0.000,0.000,0.003,0.667,-0.004,0.745,0.0000000,0.0000000,0.000,0.000,0.000,0.000,0,00:00:00,-721,0.000,0.000,91148.812,9.255,0.000,0.000,0.924,-9.803,-0.023,-0.017,-0.006,-0.010,0.000,0.000
20.134,0,0,-3.942,0.116,-7.924,-4.102,0.014,-12.326,-2.069,-0.191,-9.679,0.000,0.000,0.0116870,0.000,9144.000,0.013,6.388,7.432,1.916,911.446,9.253,883.799,0.267,-9.845,-0.094,1.037,-0.011,0.047,-0.011,0.000,0.000,0.000,0.001,0.669,-0.005,0.743,0.0000000,0.0000000,0.000,0.000,0.000,0.000,0,00:00:00,-721,0.000,0.000,91155.203,9.259,0.000,0.000,0.988,-9.694,0.031,-0.004,-0.007,0.012,0.000,0.000
20.235,0,0,-3.945,0.107,-7.910,-4.103,0.011,-12.328,-2.105,0.025,-9.696,0.000,0.000,0.0116870,0.000,9144.000,0.013,6.063,7.625,1.928,911.463,9.254,883.637,0.120,-9.863,0.075,1.080,-0.041,0.056,-0.005,0.000,0.000,0.000,0.002,0.669,-0.002,0.743,0.0000000,0.0000000,0.000,0.000,0.000,0.000,0,00:00:00,-721,0.000,0.000,91142.727,9.252,0.000,0.000,1.034,-9.665,0.069,0.013,-0.013,0.003,0.000,0.000
20.336,0,0,-3.947,0.097,-7.884,-4.089,0.006,-12.296,-1.953,0.007,-9.450,0.000,0.000,0.0116870,0.000,9144.000,0.013,5.997,7.821,1.964,911.452,9.253,883.739,0.215,-9.600,0.032,0.975,-0.023,0.006,0.004,0.000,0.000,0.000,0.002,0.670,-0.000,0.742,0.0000000,0.0000000,0.000,0.000,0.000,0.000,0,00:00:00,-721,0.000,0.000,91153.523,9.258,0.000,0.000,1.037,-9.702,-0.020,0.016,-0.008,0.003,0.000,0.000
20.437,0,0,-3.949,0.088,-7.952,-4.095,-0.001,-12.362,-2.150,-0.026,-9.704,0.000,0.000,0.0116870,0.000,9144.000,0.014,5.879,8.018,1.974,911.523,9.258,883.097,-0.439,-9.878,0.007,1.105,0.003,0.008,-0.027,0.000,0.000,0.000,0.001,0.668,-0.001,0.744,0.0000000,0.0000000,0.000,0.000,0.000,0.000,0,00:00:00,-721,0.000,0.000,91154.453,9.259,0.000,0.000,0.962,-9.736,-0.022,-0.007,-0.015,0.001,0.000,0.000
20.538,0,0,-3.951,0.079,-7.928,-4.100,-0.010,-12.353,-2.129,-0.042,-9.686,0.000,0.000,0.0116870,0.000,9144.000,0.014,6.108,8.217,1.987,911.457,9.254,883.699,0.180,-9.859,0.002,1.072,0.014,-0.013,0.018,0.000,0.000,0.000,0.002,0.668,-0.001,0.744,0.0000000,0.0000000,0.000,0.000,0.000,0.000,0,00:00:00,-721,0.000,0.000,91141.805,9.251,0.000,0.000,1.027,-9.849,0.001,0.012,-0.004,-0.007,0.000,0.000
20.639,0,0,-3.954,0.071,-7.914,-4.105,-0.019,-12.351,-2.136,-0.054,-9.684,0.000,0.000,0.0116870,0.000,9144.000,0.014,6.193,8.417,1.999,911.457,9.254,883.699,0.136,-9.859,0.002,1.072,0.014,-0.013,0.018,0.000,0.000,0.000,0.003,0.668,-0.002,0.745,0.0000000,0.0000000,0.000,0.000,0.000,0.000,0,00:00:00,-721,0.000,0.000,91141.805,9.251,0.000,0.000,1.027,-9.849,0.001,0.012,-0.004,-0.007,0.000,0.000
20.740,0,0,-3.958,0.061,-7.912,-4.129,-0.040,-12.341,-2.328,-0.179,-9.504,0.000,0.000,0.0116870,0.000,9144.000,0.014,6.236,8.620,2.030,911.466,9.254,883.612,0.053,-9.711,-0.112,1.208,0.003,-0.004,-0.012,0.000,0.000,0.000,0.000,0.665,-0.004,0.747,0.0000000,0.0000000,0.000,0.000,0.000,0.000,0,00:00:00,-721,0.000,0.000,91138.594,9.249,0.000,0.000,0.967,-9.775,0.061,0.004,0.009,0.005,0.000,0.000
20.841,0,0,-3.964,0.052,-7.932,-4.139,-0.047,-12.359,-2.187,-0.045,-9.613,0.000,0.000,0.0116870,0.000,9144.000,0.014,6.675,8.825,2.050,911.478,9.255,883.506,-0.104,-9.800,0.065,1.075,0.048,-0.031,-0.013,0.000,0.000,0.000,0.004,0.666,-0.004,0.746,0.0000000,0.0000000,0.000,0.000,0.000,0.000,0,00:00:00,-721,0.000,0.000,91147.758,9.255,0.000,0.000,1.025,-9.719,0.092,-0.003,0.007,0.010,0.000,0.000
20.942,0,0,-3.969,0.041,-7.945,-4.132,-0.073,-12.353,-2.015,-0.232,-9.434,0.000,0.000,0.0116870,0.000,9144.000,0.014,6.556,9.034,2.087,911.471,9.254,883.564,-0.073,-9.599,-0.102,0.982,0.017,-0.007,-0.004,0.000,0.000,0.000,0.002,0.668,-0.007,0.744,0.0000000,0.0000000,0.000,0.000,0.000,0.000,0,00:00:00,-721,0.000,0.000,91147.297,9.255,0.000,0.000,1.107,-9.750,-0.009,-0.006,0.006,0.001,0.000,0.000
21.043,0,0,-3.973,0.029,-7.949,-4.121,-0.100,-12.341,-1.986,-0.250,-9.439,0.000,0.000,0.0116870,0.000,9144.000,0.014,6.220,9.246,2.124,911.471,9.254,883.564,-0.020,-9.599,-0.102,0.982,0.017,-0.007,-0.004,0.000,0.000,0.000,0.002,0.669,-0.008,0.743,0.0000000,0.0000000,0.000,0.000,0.000,0.000,0,00:00:00,-721,0.000,0.000,91147.297,9.255,0.000,0.000,1.107,-9.750,-0.009,-0.006,0.006,0.001,0.000,0.000
21.144,0,0,-3.976,0.016,-7.964,-4.113,-0.122,-12.354,-2.015,-0.214,-9.604,0.000,0.000,0.0116870,0.000,9144.000,0.014,6.052,9.461,2.145,911.476,9.255,883.525,-0.109,-9.764,-0.068,1.003,-0.003,-0.011,0.001,0.000,0.000,0.000,0.002,0.669,-0.008,0.743,0.0000000,0.0000000,0.000,0.000,0.000,0.000,0,00:00:00,-721,0.000,0.000,91147.531,9.255,0.000,0.000,1.048,-9.784,0.085,-0.003,-0.003,0.007,0.000,0.000
21.245,0,0,-3.979,0.003,-7.998,-4.125,-0.144,-12.390,-2.203,-0.216,-9.698,0.000,0.000,0.0116870,0.000,9144.000,0.014,5.990,9.676,2.156,911.489,9.255,883.407,-0.247,-9.882,-0.075,1.133,-0.003,-0.002,0.032,0.000,0.000,0.000,0.002,0.667,-0.007,0.745,0.0000000,0.0000000,0.000,0.000,0.000,0.000,0,00:00:00,-721,0.000,0.000,91154.133,9.259,0.000,0.000,1.092,-9.832,0.079,0.003,0.004,0.004,0.000,0.000
21.346,0,0,-3.982,-0.011,-8.031,-4.112,-0.139,-12.438,-1.969,0.046,-9.866,0.000,0.000,0.0116870,0.000,9144.000,0.014,6.268,9.891,2.150,911.487,9.255,883.428,-0.245,-10.016,0.127,0.944,-0.051,-0.028,0.015,0.000,0.000,0.000,0.004,0.670,-0.002,0.743,0.0000000,0.0000000,0.000,0.000,0.000,0.000,0,00:00:00,-721,0.000,0.000,91144.602,9.253,0.000,0.000,1.019,-9.768,0.072,0.003,-0.000,-0.008,0.000,0.000
21.447,0,0,-3.985,-0.023,-8.049,-4.119,-0.145,-12.448,-2.159,-0.068,-9.619,0.000,0.000,0.0116870,0.000,9144.000,0.014,5.907,10.108,2.170,911.484,9.255,883.449,-0.149,-9.796,-0.003,1.109,-0.020,-0.002,-0.024,0.000,0.000,0.000,0.002,0.668,-0.002,0.744,0.0000000,0.0000000,0.000,0.000,0.000,0.000,0,00:00:00,-721,0.000,0.000,91159.555,9.262,0.000,0.000,1.083,-9.733,0.035,-0.006,0.004,0.001,0.000,0.000
21.548,0,0,-3.988,-0.034,-8.014,-4.122,-0.146,-12.408,-2.127,-0.032,-9.524,0.000,0.000,0.0116870,0.000,9144.000,0.014,6.189,10.328,2.198,911.442,9.253,883.828,0.209,-9.699,0.031,1.078,-0.000,0.005,-0.002,0.000,0.000,0.000,0.003,0.668,-0.002,0.745,0.0000000,0.0000000,0.000,0.000,0.000,0.000,0,00:00:00,-721,0.000,0.000,91142.844,9.252,0.000,0.000,0.979,-9.761,-0.074,0.004,0.006,0.000,0.000,0.000
21.649,0,0,-3.990,-0.044,-8.039,-4.113,-0.146,-12.412,-2.006,-0.021,-9.485,0.000,0.000,0.0116870,0.000,9144.000,0.014,6.250,10.551,2.231,911.492,9.256,883.382,-0.206,-9.643,0.038,0.994,-0.006,0.005,-0.027,0.000,0.000,0.000,0.003,0.669,-0.002,0.743,0.0000000,0.0000000,0.000,0.000,0.000,0.000,0,00:00:00,-721,0.000,0.000,91152.211,9.257,0.000,0.000,1.109,-9.736,-0.023,-0.006,0.006,-0.005,0.000,0.000
21.750,0,0,-3.991,-0.053,-8.059,-4.102,-0.145,-12.413,-1.990,-0.018,-9.488,0.000,0.000,0.0116870,0.000,9144.000,0.014,6.054,10.777,2.263,911.492,9.256,883.382,-0.191,-9.643,0.038,0.994,-0.006,0.005,-0.027,0.000,0.000,0.000,0.003,0.669,-0.002,0.743,0.0000000,0.0000000,0.000,0.000,0.000,0.000,0,00:00:00,-721,0.000,0.000,91152.211,9.257,0.000,0.000,1.109,-9.736,-0.023,-0.006,0.006,-0.005,0.000,0.000
21.851,0,0,-3.992,-0.061,-8.064,-4.094,-0.143,-12.409,-2.012,-0.008,-9.564,0.000,0.000,0.0116870,0.000,9144.000,0.014,5.956,11.006,2.287,911.483,9.255,883.459,-0.105,-9.722,0.074,1.000,0.029,-0.031,-0.000,0.000,0.000,0.000,0.005,0.669,-0.002,0.743,0.0000000,0.0000000,0.000,0.000,0.000,0.000,0,00:00:00,-721,0.000,0.000,91149.922,9.256,0.000,0.000,1.027,-9.757,0.070,0.003,0.010,0.000,0.000,0.000
21.952,0,0,-3.992,-0.069,-8.055,-4.089,-0.155,-12.393,-2.051,-0.163,-9.536,0.000,0.000,0.0116870,0.000,9144.000,0.014,6.004,11.238,2.315,911.473,9.255,883.547,-0.012,-9.701,-0.074,1.021,0.002,-0.045,0.004,0.000,0.000,0.000,0.003,0.668,-0.004,0.744,0.0000000,0.0000000,0.000,0.000,0.000,0.000,0,00:00:00,-721,0.000,0.000,91153.820,9.258,0.000,0.000,0.937,-9.788,0.046,0.004,0.003,-0.012,0.000,0.000
22.053,0,0,-3.991,-0.077,-8.058,-4.094,-0.159,-12.394,-2.144,-0.075,-9.614,0.000,0.000,0.0116870,0.000,9144.000,0.014,6.133,11.471,2.335,911.479,9.255,883.496,-0.095,-9.791,0.029,1.075,0.015,-0.037,-0.006,0.000,0.000,0.000,0.004,0.667,-0.004,0.745,0.0000000,0.0000000,0.000,0.000,0.000,0.000,0,00:00:00,-721,0.000,0.000,91148.625,9.255,0.000,0.000,1.087,-9.814,0.074,-0.005,-0.005,-0.003,0.000,0.000
22.154,0,0,-3.992,-0.085,-8.057,-4.100,-0.163,-12.392,-2.159,-0.089,-9.610,0.000,0.000,0.0116870,0.000,9144.000,0.014,6.306,11.707,2.354,911.479,9.255,883.496,-0.068,-9.791,0.029,1.075,0.015,-0.037,-0.006,0.000,0.000,0.000,0.005,0.667,-0.004,0.745,0.0000000,0.0000000,0.000,0.000,0.000,0.000,0,00:00:00,-721,0.000,0.000,91148.625,9.255,0.000,0.000,1.087,-9.814,0.074,-0.005,-0.005,-0.003,0.000,0.000
22.255,0,0,-3.992,-0.092,-8.026,-4.078,-0.168,-12.362,-1.871,-0.094,-9.544,0.000,0.000,0.0116870,0.000,9144.000,0.014,6.393,11.945,2.381,911.459,9.254,883.680,0.139,-9.685,0.000,0.891,-0.020,-0.005,0.034,0.000,0.000,0.000,0.004,0.670,-0.003,0.742,0.0000000,0.0000000,0.000,0.000,0.000,0.000,0,00:00:00,-721,0.000,0.000,91154.766,9.259,0.000,0.000,1.002,-9.741,-0.040,0.002,0.004,0.001,0.000,0.000
22.356,0,0,-3.991,-0.099,-7.991,-4.087,-0.167,-12.331,-2.187,-0.043,-9.552,0.000,0.000,0.0116870,0.000,9144.000,0.014,5.838,12.185,2.407,911.457,9.254,883.693,0.183,-9.734,0.055,1.130,0.007,-0.015,0.000,0.000,0.000,0.000,0.005,0.667,-0.003,0.745,0.0000000,0.0000000,0.000,0.000,0.000,0.000,0,00:00:00,-721,0.000,0.000,91155.969,9.260,0.000,0.000,1.096,-9.843,-0.009,-0.008,0.003,-0.001,0.000,0.000
22.457,0,0,-3.990,-0.105,-7.943,-4.072,-0.169,-12.296,-1.952,-0.074,-9.578,0.000,0.000,0.0116870,0.000,9144.000,0.014,6.273,12.428,2.430,911.442,9.253,883.835,0.289,-9.729,0.022,0.947,-0.005,-0.014,-0.003,0.000,0.000,0.000,0.004,0.669,-0.003,0.743,0.0000000,0.0000000,0.000,0.000,0.000,0.000,0,00:00:00,-721,0.000,0.000,91148.773,9.255,0.000,0.000,1.036,-9.737,-0.023,-0.002,0.004,0.019,0.000,0.000
22.558,0,0,-3.987,-0.110,-7.901,-4.055,-0.170,-12.268,-1.925,-0.070,-9.584,0.000,0.000,0.0116870,0.000,9144.000,0.014,5.955,12.674,2.453,911.442,9.253,883.835,0.277,-9.729,0.022,0.947,-0.005,-0.014,-0.003,0.000,0.000,0.000,0.004,0.670,-0.003,0.742,0.0000000,0.0000000,0.000,0.000,0.000,0.000,0,00:00:00,-721,0.000,0.000,91148.773,9.255,0.000,0.000,1.036,-9.737,-0.023,-0.002,0.004,0.019,0.000,0.000
22.659,0,0,-3.985,-0.116,-7.902,-4.074,-0.169,-12.266,-2.278,-0.046,-9.507,0.000,0.000,0.0116870,0.000,9144.000,0.014,5.797,12.922,2.483,911.476,9.255,883.522,-0.005,-9.703,0.019,1.202,-0.032,0.004,-0.034,0.000,0.000,0.000,0.002,0.666,-0.002,0.746,0.0000000,0.0000000,0.000,0.000,0.000,0.000,0,00:00:00,-721,0.000,0.000,91142.773,9.252,0.000,0.000,1.020,-9.660,-0.094,-0.015,0.011,0.010,0.000,0.000
22.760,0,0,-3.984,-0.120,-7.914,-4.080,-0.171,-12.263,-2.158,-0.083,-9.397,0.000,0.000,0.0116870,0.000,9144.000,0.014,6.415,13.174,2.524,911.489,9.255,883.408,-0.096,-9.580,-0.018,1.092,-0.004,0.011,-0.017,0.000,0.000,0.000,0.002,0.666,-0.003,0.746,0.0000000,0.0000000,0.000,0.000,0.000,0.000,0,00:00:00,-721,0.000,0.000,91146.383,9.254,0.000,0.000,1.012,-9.665,0.034,-0.007,0.007,-0.012,0.000,0.000
22.861,0,0,-3.983,-0.125,-7.875,-4.064,-0.178,-12.245,-1.931,-0.134,-9.633,0.000,0.000,0.0116870,0.000,9144.000,0.014,6.428,13.428,2.542,911.450,9.253,883.763,0.265,-9.781,-0.052,0.936,0.017,0.027,0.013,0.000,0.000,0.000,0.002,0.670,-0.004,0.742,0.0000000,0.0000000,0.000,0.000,0.000,0.000,0,00:00:00,-721,0.000,0.000,91140.852,9.251,0.000,0.000,1.012,-9.724,-0.018,0.014,0.012,-0.012,0.000,0.000
22.962,0,0,-3.982,-0.129,-7.857,-4.067,-0.168,-12.243,-2.128,0.026,-9.631,0.000,0.000,0.0116870,0.000,9144.000,0.014,5.869,13.684,2.560,911.463,9.254,883.641,0.144,-9.801,0.116,1.096,0.015,0.015,0.000,0.000,0.000,0.000,0.005,0.669,-0.002,0.744,0.0000000,0.0000000,0.000,0.000,0.000,0.000,0,00:00:00,-721,0.000,0.000,91149.867,9.256,0.000,0.000,1.008,-9.714,-0.021,0.009,0.005,-0.019,0.000,0.000
23.063,0,0,-3.979,-0.133,-7.878,-4.042,-0.173,-12.263,-1.844,-0.114,-9.548,0.000,0.000,0.0116870,0.000,9144.000,0.014,6.080,13.943,2.586,911.493,9.256,883.371,-0.119,-9.682,-0.044,0.910,-0.028,0.057,-0.018,0.000,0.000,0.000,0.002,0.672,-0.003,0.741,0.0000000,0.0000000,0.000,0.000,0.000,0.000,0,00:00:00,-721,0.000,0.000,91151.492,9.257,0.000,0.000,0.991,-9.747,0.041,-0.006,-0.004,0.011,0.000,0.000
23.164,0,0,-3.974,-0.136,-7.855,-3.997,-0.181,-12.245,-1.638,-0.156,-9.507,0.000,0.000,0.0116870,0.000,9144.000,0.014,5.562,14.205,2.616,911.460,9.254,883.666,0.179,-9.616,-0.080,0.793,0.009,0.025,0.032,0.000,0.000,0.000,0.001,0.675,-0.004,0.738,0.0000000,0.0000000,0.000,0.000,0.000,0.000,0,00:00:00,-721,0.000,0.000,91148.102,9.255,0.000,0.000,1.027,-9.759,-0.000,0.013,-0.013,-0.014,0.000,0.000
23.265,0,0,-3.966,-0.140,-7.891,-3.974,-0.182,-12.271,-1.852,-0.083,-9.500,0.000,0.000,0.0116870,0.000,9144.000,0.014,5.067,14.469,2.647,911.502,9.256,883.287,-0.228,-9.632,-0.018,0.949,-0.015,-0.020,-0.017,0.000,0.000,0.000,0.001,0.673,-0.003,0.740,0.0000000,0.0000000,0.000,0.000,0.000,0.000,0,00:00:00,-721,0.000,0.000,91156.398,9.260,0.000,0.000,1.106,-9.750,-0.029,-0.003,-0.007,0.006,0.000,0.000
23.366,0,0,-3.957,-0.144,-7.845,-3.960,-0.183,-12.251,-1.948,-0.088,-9.675,0.000,0.000,0.0116870,0.000,9144.000,0.014,5.405,14.736,2.661,911.436,9.252,883.887,0.346,-9.821,-0.026,0.984,-0.006,-0.034,-0.020,0.000,0.000,0.000,0.001,0.671,-0.004,0.741,0.0000000,0.0000000,0.000,0.000,0.000,0.000,0,00:00:00,-721,0.000,0.000,91151.000,9.257,0.000,0.000,1.002,-9.793,-0.014,0.005,0.007,0.001,0.000,0.000
23.467,0,0,-3.947,-0.147,-7.813,-3.942,-0.188,-12.226,-1.899,-0.120,-9.501,0.000,0.000,0.0116870,0.000,9144.000,0.014,5.661,15.005,2.692,911.439,9.253,883.855,0.275,-9.643,-0.069,0.948,-0.008,-0.020,0.026,0.000,0.000,0.000,0.000,0.671,-0.003,0.741,0.0000000,0.0000000,0.000,0.000,0.000,0.000,0,00:00:00,-721,0.000,0.000,91144.539,9.253,0.000,0.000,1.011,-9.739,0.049,0.007,-0.009,0.016,0.000,0.000
23.568,0,0,-3.937,-0.150,-7.791,-3.928,-0.183,-12.224,-1.923,-0.029,-9.638,0.000,0.000,0.0116870,0.000,9144.000,0.014,5.693,15.276,2.709,911.445,9.253,883.801,0.221,-9.781,0.029,0.963,0.009,0.001,-0.012,0.000,0.000,0.000,0.002,0.671,-0.003,0.741,0.0000000,0.0000000,0.000,0.000,0.000,0.000,0,00:00:00,-721,0.000,0.000,91143.281,9.252,0.000,0.000,0.986,-9.761,0.040,-0.011,-0.009,-0.009,0.000,0.000
23.669,0,0,-3.927,-0.153,-7.851,-3.931,-0.181,-12.280,-2.098,-0.060,-9.606,0.000,0.000,0.0116870,0.000,9144.000,0.014,5.657,15.549,2.729,911.507,9.257,883.247,-0.348,-9.772,0.016,1.089,0.027,0.017,0.045,0.000,0.000,0.000,0.004,0.669,-0.002,0.743,0.0000000,0.0000000,0.000,0.000,0.000,0.000,0,00:00:00,-721,0.000,0.000,91147.812,9.255,0.000,0.000,1.070,-9.811,-0.010,0.003,-0.008,0.015,0.000,0.000
23.770,0,0,-3.918,-0.156,-7.878,-3.920,-0.191,-12.296,-1.957,-0.183,-9.495,0.000,0.000,0.0116870,0.000,9144.000,0.014,5.960,15.825,2.761,911.482,9.255,883.465,-0.132,-9.646,-0.139,0.974,-0.039,-0.007,0.016,0.000,0.000,0.000,-0.001,0.670,-0.003,0.742,0.0000000,0.0000000,0.000,0.000,0.000,0.000,0,00:00:00,-721,0.000,0.000,91146.758,9.254,0.000,0.000,0.988,-9.770,0.023,-0.005,0.019,-0.016,0.000,0.000
23.871,0,0,-3.908,-0.159,-7.906,-3.910,-0.197,-12.312,-1.951,-0.147,-9.497,0.000,0.000,0.0116870,0.000,9144.000,0.014,5.885,16.104,2.792,911.482,9.255,883.465,-0.162,-9.646,-0.139,0.974,-0.039,-0.007,0.016,0.000,0.000,0.000,-0.003,0.670,-0.003,0.742,0.0000000,0.0000000,0.000,0.000,0.000,0.000,0,00:00:00,-721,0.000,0.000,91146.758,9.254,0.000,0.000,0.988,-9.770,0.023,-0.005,0.019,-0.016,0.000,0.000
23.972,0,0,-3.899,-0.162,-7.933,-3.900,-0.200,-12.326,-1.947,-0.110,-9.498,0.000,0.000,0.0116870,0.000,9144.000,0.014,5.846,16.386,2.823,911.482,9.255,883.465,-0.172,-9.646,-0.139,0.974,-0.039,-0.007,0.016,0.000,0.000,0.000,-0.006,0.670,-0.002,0.742,0.0000000,0.0000000,0.000,0.000,0.000,0.000,0,00:00:00,-721,0.000,0.000,91146.758,9.254,0.000,0.000,0.988,-9.770,0.023,-0.005,0.019,-0.016,0.000,0.000
24.073,0,0,-3.890,-0.165,-7.989,-3.900,-0.196,-12.378,-2.049,-0.047,-9.670,0.000,0.000,0.0116870,0.000,9144.000,0.014,5.827,16.670,2.837,911.508,9.257,883.232,-0.393,-9.830,-0.074,1.039,0.007,-0.001,0.013,0.000,0.000,0.000,-0.004,0.670,-0.002,0.743,0.0000000,0.0000000,0.000,0.000,0.000,0.000,0,00:00:00,-721,0.000,0.000,91145.141,9.253,0.000,0.000,1.051,-9.726,-0.015,0.001,-0.013,-0.006,0.000,0.000
24.174,0,0,-3.882,-0.166,-7.974,-3.894,-0.174,-12.369,-1.979,0.127,-9.635,0.000,0.000,0.0116870,0.000,9144.000,0.014,5.933,16.955,2.855,911.453,9.253,883.731,0.090,-9.787,0.107,0.983,0.017,-0.013,-0.003,0.000,0.000,0.000,-0.000,0.670,0.001,0.742,0.0000000,0.0000000,0.000,0.000,0.000,0.000,0,00:00:00,-721,0.000,0.000,91144.898,9.253,0.000,0.000,0.887,-9.810,-0.118,0.012,0.008,-0.003,0.000,0.000
24.275,0,0,-3.873,-0.167,-7.983,-3.891,-0.172,-12.372,-2.008,-0.071,-9.566,0.000,0.000,0.0116870,0.000,9144.000,0.014,5.874,17.243,2.879,911.475,9.255,883.529,-0.073,-9.721,-0.099,1.011,-0.016,-0.006,-0.005,0.000,0.000,0.000,-0.003,0.670,-0.000,0.743,0.0000000,0.0000000,0.000,0.000,0.000,0.000,0,00:00:00,-721,0.000,0.000,91146.523,9.254,0.000,0.000,0.979,-9.690,-0.052,0.008,-0.005,0.015,0.000,0.000
24.376,0,0,-3.866,-0.166,-7.976,-3.886,-0.164,-12.361,-1.984,-0.004,-9.543,0.000,0.000,0.0116870,0.000,9144.000,0.014,5.921,17.534,2.906,911.462,9.254,883.648,0.026,-9.696,0.009,0.999,0.037,0.013,-0.057,0.000,0.000,0.000,-0.001,0.670,-0.002,0.742,0.0000000,0.0000000,0.000,0.000,0.000,0.000,0,00:00:00,-721,0.000,0.000,91137.719,9.249,0.000,0.000,1.026,-9.735,-0.034,0.011,0.014,0.012,0.000,0.000
24.477,0,0,-3.858,-0.166,-8.005,-3.867,-0.163,-12.366,-1.843,-0.073,-9.435,0.000,0.000,0.0116870,0.000,9144.000,0.014,5.864,17.828,2.943,911.489,9.256,883.402,-0.222,-9.570,-0.085,0.904,-0.021,-0.010,0.037,0.000,0.000,0.000,-0.002,0.671,-0.001,0.741,0.0000000,0.0000000,0.000,0.000,0.000,0.000,0,00:00:00,-721,0.000,0.000,91149.914,9.256,0.000,0.000,1.155,-9.800,0.020,-0.019,-0.017,-0.001,0.000,0.000
24.578,0,0,-3.848,-0.165,-8.071,-3.836,-0.152,-12.410,-1.720,0.015,-9.541,0.000,0.000,0.0116870,0.000,9144.000,0.014,5.659,18.125,2.970,911.522,9.257,883.106,-0.514,-9.659,-0.022,0.833,-0.025,0.001,-0.004,0.000,0.000,0.000,-0.003,0.674,0.000,0.739,0.0000000,0.0000000,0.000,0.000,0.000,0.000,0,00:00:00,-721,0.000,0.000,91152.445,9.258,0.000,0.000,1.000,-9.683,0.084,0.014,0.001,-0.015,0.000,0.000
24.679,0,0,-3.839,-0.163,-8.024,-3.851,-0.142,-12.365,-2.165,0.020,-9.542,0.000,0.000,0.0116870,0.000,9144.000,0.015,5.289,18.425,2.997,911.440,9.253,883.846,0.254,-9.718,-0.006,1.142,0.018,-0.031,0.039,0.000,0.000,0.000,-0.001,0.669,0.001,0.744,0.0000000,0.0000000,0.000,0.000,0.000,0.000,0,00:00:00,-721,0.000,0.000,91143.086,9.252,0.000,0.000,1.004,-9.682,0.002,-0.007,-0.007,0.003,0.000,0.000
24.780,0,0,-3.831,-0.160,-7.998,-3.847,-0.129,-12.329,-1.978,0.038,-9.422,0.000,0.000,0.0116870,0.000,9144.000,0.015,6.083,18.729,3.036,911.455,9.253,883.714,0.115,-9.577,-0.018,0.990,-0.033,0.014,0.007,0.000,0.000,0.000,-0.002,0.669,0.002,0.743,0.0000000,0.0000000,0.000,0.000,0.000,0.000,0,00:00:00,-721,0.000,0.000,91150.539,9.256,0.000,0.000,0.962,-9.791,-0.012,0.007,-0.007,0.005,0.000,0.000
24.881,0,0,-3.824,-0.155,-7.971,-3.858,-0.101,-12.313,-2.119,0.194,-9.617,0.000,0.000,0.0116870,0.000,9144.000,0.015,5.953,19.034,3.055,911.456,9.254,883.708,0.139,-9.789,0.130,1.076,0.005,-0.016,0.021,0.000,0.000,0.000,0.001,0.668,0.005,0.744,0.0000000,0.0000000,0.000,0.000,0.000,0.000,0,00:00:00,-721,0.000,0.000,91153.820,9.258,0.000,0.000,1.040,-9.697,-0.053,-0.006,0.000,-0.005,0.000,0.000
24.982,0,0,-3.818,-0.148,-7.994,-3.860,-0.063,-12.333,-2.022,0.307,-9.584,0.000,0.000,0.0116870,0.000,9144.000,0.015,6.160,19.342,3.078,911.496,9.256,883.341,-0.210,-9.745,0.212,1.011,-0.024,0.011,0.003,0.000,0.000,0.000,0.003,0.669,0.008,0.743,0.0000000,0.0000000,0.000,0.000,0.000,0.000,0,00:00:00,-721,0.000,0.000,91146.641,9.254,0.000,0.000,0.977,-9.788,0.101,-0.002,0.005,-0.001,0.000,0.000
25.083,0,0,-3.813,-0.139,-8.007,-3.858,-0.047,-12.351,-1.988,0.080,-9.663,0.000,0.000,0.0116870,0.000,9144.000,0.015,6.011,19.651,3.092,911.490,9.256,883.393,-0.144,-9.817,-0.052,0.982,-0.046,-0.018,0.015,0.000,0.000,0.000,-0.002,0.670,0.006,0.743,0.0000000,0.0000000,0.000,0.000,0.000,0.000,0,00:00:00,-721,0.000,0.000,91152.148,9.257,0.000,0.000,0.958,-9.751,0.003,0.015,-0.002,-0.007,0.000,0.000
25.184,0,0,-3.808,-0.130,-8.021,-3.856,-0.028,-12.369,-1.980,0.122,-9.664,0.000,0.000,0.0116870,0.000,9144.000,0.015,5.915,19.962,3.107,911.490,9.256,883.393,-0.150,-9.817,-0.052,0.982,-0.046,-0.018,0.015,0.000,0.000,0.000,-0.006,0.670,0.007,0.742,0.0000000,0.0000000,0.000,0.000,0.000,0.000,0,00:00:00,-721,0.000,0.000,91152.148,9.257,0.000,0.000,0.958,-9.751,0.003,0.015,-0.002,-0.007,0.000,0.000
25.285,0,0,-3.803,-0.119,-8.038,-3.853,-0.005,-12.387,-1.976,0.166,-9.664,0.000,0.000,0.0116870,0.000,9144.000,0.015,5.866,20.274,3.122,911.490,9.256,883.393,-0.174,-9.817,-0.052,0.982,-0.046,-0.018,0.015,0.000,0.000,0.000,-0.008,0.670,0.008,0.742,0.0000000,0.0000000,0.000,0.000,0.000,0.000,0,00:00:00,-721,0.000,0.000,91152.148,9.257,0.000,0.000,0.958,-9.751,0.003,0.015,-0.002,-0.007,0.000,0.000
25.386,0,0,-3.799,-0.107,-8.051,-3.851,0.022,-12.401,-1.974,0.211,-9.664,0.000,0.000,0.0116870,0.000,9144.000,0.015,5.841,20.588,3.136,911.490,9.256,883.393,-0.151,-9.817,-0.052,0.982,-0.046,-0.018,0.015,0.000,0.000,0.000,-0.010,0.670,0.009,0.742,0.0000000,0.0000000,0.000,0.000,0.000,0.000,0,00:00:00,-721,0.000,0.000,91152.148,9.257,0.000,0.000,0.958,-9.751,0.003,0.015,-0.002,-0.007,0.000,0.000
25.487,0,0,-3.794,-0.093,-8.018,-3.846,0.059,-12.377,-1.952,0.319,-9.635,0.000,0.000,0.0116870,0.000,9144.000,0.015,5.828,20.903,3.154,911.460,9.254,883.671,0.172,-9.787,0.050,0.977,-0.003,0.003,0.005,0.000,0.000,0.000,-0.009,0.671,0.011,0.742,0.0000000,0.0000000,0.000,0.000,0.000,0.000,0,00:00:00,-721,0.000,0.000,91149.047,9.256,0.000,0.000,1.080,-9.704,-0.047,-0.004,-0.005,-0.001,0.000,0.000
25.588,0,0,-3.790,-0.077,-7.965,-3.840,0.096,-12.352,-1.928,0.322,-9.765,0.000,0.000,0.0116870,0.000,9144.000,0.015,5.756,21.219,3.158,911.449,9.253,883.765,0.336,-9.914,0.062,0.939,0.018,-0.063,0.018,0.000,0.000,0.000,-0.007,0.671,0.011,0.742,0.0000000,0.0000000,0.000,0.000,0.000,0.000,0,00:00:00,-721,0.000,0.000,91156.031,9.260,0.000,0.000,0.991,-9.734,-0.036,-0.010,0.007,-0.007,0.000,0.000
25.689,0,0,-3.785,-0.060,-7.962,-3.817,0.132,-12.352,-1.766,0.329,-9.600,0.000,0.000,0.0116870,0.000,9144.000,0.015,5.763,21.537,3.179,911.479,9.255,883.496,0.007,-9.728,0.067,0.867,-0.007,0.030,0.002,0.000,0.000,0.000,-0.007,0.673,0.012,0.739,0.0000000,0.0000000,0.000,0.000,0.000,0.000,0,00:00:00,-721,0.000,0.000,91149.336,9.256,0.000,0.000,0.960,-9.773,0.034,-0.001,0.003,-0.009,0.000,0.000
25.790,0,0,-3.779,-0.040,-7.945,-3.821,0.177,-12.343,-2.027,0.425,-9.637,0.000,0.000,0.0116870,0.000,9144.000,0.015,5.341,21.856,3.197,911.464,9.254,883.630,0.116,-9.799,0.161,1.054,0.008,-0.007,0.004,0.000,0.000,0.000,-0.004,0.671,0.013,0.742,0.0000000,0.0000000,0.000,0.000,0.000,0.000,0,00:00:00,-721,0.000,0.000,91139.828,9.250,0.000,0.000,1.035,-9.836,0.010,0.005,0.008,0.012,0.000,0.000
25.891,0,0,-3.774,-0.019,-7.937,-3.830,0.193,-12.344,-2.074,0.141,-9.649,0.000,0.000,0.0116870,0.000,9144.000,0.015,5.759,22.178,3.213,911.468,9.254,883.599,0.061,-9.813,-0.094,1.052,0.023,-0.026,0.023,0.000,0.000,0.000,-0.007,0.669,0.010,0.743,0.0000000,0.0000000,0.000,0.000,0.000,0.000,0,00:00:00,-721,0.000,0.000,91137.359,9.249,0.000,0.000,0.979,-9.716,-0.084,0.014,-0.004,0.014,0.000,0.000
25.992,0,0,-3.771,0.002,-7.974,-3.838,0.234,-12.369,-2.061,0.411,-9.558,0.000,0.000,0.0116870,0.000,9144.000,0.015,6.013,22.501,3.238,911.503,9.256,883.275,-0.250,-9.729,0.158,1.039,-0.015,-0.012,-0.006,0.000,0.000,0.000,-0.005,0.669,0.012,0.744,0.0000000,0.0000000,0.000,0.000,0.000,0.000,0,00:00:00,-721,0.000,0.000,91149.695,9.256,0.000,0.000,1.097,-9.817,-0.011,-0.014,0.001,-0.002,0.000,0.000
26.093,0,0,-3.769,0.024,-7.992,-3.842,0.256,-12.388,-2.021,0.225,-9.662,0.000,0.000,0.0116870,0.000,9144.000,0.015,6.088,22.827,3.253,911.489,9.255,883.408,-0.134,-9.823,-0.021,1.005,0.006,-0.002,0.014,0.000,0.000,0.000,-0.007,0.669,0.010,0.743,0.0000000,0.0000000,0.000,0.000,0.000,0.000,0,00:00:00,-721,0.000,0.000,91142.125,9.252,0.000,0.000,1.049,-9.711,0.046,0.001,0.023,0.004,0.000,0.000
26.194,0,0,-3.767,0.046,-7.955,-3.853,0.269,-12.369,-2.093,0.156,-9.709,0.000,0.000,0.0116870,0.000,9144.000,0.015,5.971,23.153,3.263,911.450,9.253,883.758,0.250,-9.876,-0.093,1.060,-0.014,0.005,-0.035,0.000,0.000,0.000,-0.010,0.669,0.008,0.743,0.0000000,0.0000000,0.000,0.000,0.000,0.000,0,00:00:00,-721,0.000,0.000,91138.570,9.249,0.000,0.000,1.025,-9.845,-0.083,-0.007,-0.009,0.015,0.000,0.000
26.295,0,0,-3.767,0.068,-7.979,-3.874,0.302,-12.380,-2.190,0.363,-9.542,0.000,0.000,0.0116870,0.000,9144.000,0.015,6.036,23.482,3.290,911.497,9.256,883.335,-0.159,-9.730,0.112,1.130,0.005,0.006,0.010,0.000,0.000,0.000,-0.007,0.667,0.011,0.745,0.0000000,0.0000000,0.000,0.000,0.000,0.000,0,00:00:00,-721,0.000,0.000,91150.469,9.256,0.000,0.000,1.048,-9.794,-0.006,-0.009,0.022,0.002,0.000,0.000
26.396,0,0,-3.768,0.090,-7.927,-3.875,0.331,-12.308,-1.990,0.334,-9.261,0.000,0.000,0.0116870,0.000,9144.000,0.015,6.311,23.816,3.345,911.443,9.253,883.820,0.352,-9.427,0.085,0.978,-0.011,-0.034,-0.038,0.000,0.000,0.000,-0.007,0.668,0.011,0.744,0.0000000,0.0000000,0.000,0.000,0.000,0.000,0,00:00:00,-721,0.000,0.000,91143.555,9.252,0.000,0.000,1.048,-9.775,0.100,0.010,-0.007,0.002,0.000,0.000
26.497,0,0,-3.770,0.113,-7.943,-3.891,0.340,-12.319,-2.141,0.152,-9.553,0.000,0.000,0.0116870,0.000,9144.000,0.015,6.214,24.153,3.370,911.492,9.256,883.379,-0.117,-9.732,-0.092,1.076,0.002,-0.021,-0.022,0.000,0.000,0.000,-0.010,0.667,0.008,0.745,0.0000000,0.0000000,0.000,0.000,0.000,0.000,0,00:00:00,-721,0.000,0.000,91146.000,9.254,0.000,0.000,1.059,-9.682,-0.020,-0.012,-0.007,0.017,0.000,0.000
26.598,0,0,-3.772,0.134,-7.975,-3.892,0.365,-12.347,-1.987,0.316,-9.607,0.000,0.000,0.0116870,0.000,9144.000,0.015,6.321,24.493,3.391,911.498,9.256,883.326,-0.236,-9.766,0.060,0.972,-0.008,0.001,-0.011,0.000,0.000,0.000,-0.008,0.669,0.010,0.743,0.0000000,0.0000000,0.000,0.000,0.000,0.000,0,00:00:00,-721,0.000,0.000,91149.734,9.256,0.000,0.000,1.051,-9.691,-0.073,-0.007,-0.016,-0.003,0.000,0.000
26.699,0,0,-3.774,0.156,-8.000,-3.889,0.389,-12.368,-1.959,0.325,-9.612,0.000,0.000,0.0116870,0.000,9144.000,0.015,6.000,24.834,3.410,911.498,9.256,883.326,-0.201,-9.766,0.060,0.972,-0.008,0.001,-0.011,0.000,0.000,0.000,-0.008,0.670,0.011,0.742,0.0000000,0.0000000,0.000,0.000,0.000,0.000,0,00:00:00,-721,0.000,0.000,91149.734,9.256,0.000,0.000,1.051,-9.691,-0.073,-0.007,-0.016,-0.003,0.000,0.000
26.800,0,0,-3.778,0.178,-7.967,-3.929,0.411,-12.330,-2.383,0.308,-9.456,0.000,0.000,0.0116870,0.000,9144.000,0.016,5.840,25.178,3.446,911.455,9.254,883.710,0.192,-9.673,0.048,1.273,0.006,0.004,0.004,0.000,0.000,0.000,-0.007,0.665,0.011,0.747,0.0000000,0.0000000,0.000,0.000,0.000,0.000,0,00:00:00,-721,0.000,0.000,91146.148,9.254,0.000,0.000,0.944,-9.851,0.100,0.026,-0.010,0.005,0.000,0.000
26.901,0,0,-3.783,0.200,-8.008,-3.946,0.429,-12.378,-2.155,0.282,-9.758,0.000,0.000,0.0116870,0.000,9144.000,0.016,6.656,25.523,3.451,911.512,9.257,883.196,-0.311,-9.942,0.011,1.043,-0.007,-0.051,0.001,0.000,0.000,0.000,-0.008,0.666,0.011,0.746,0.0000000,0.0000000,0.000,0.000,0.000,0.000,0,00:00:00,-721,0.000,0.000,91151.203,9.257,0.000,0.000,1.091,-9.762,0.040,-0.008,-0.005,0.001,0.000,0.000
27.002,0,0,-3.789,0.221,-8.015,-3.944,0.442,-12.392,-1.981,0.243,-9.699,0.000,0.000,0.0116870,0.000,9144.000,0.016,6.468,25.869,3.462,911.488,9.255,883.414,-0.087,-9.856,-0.019,0.952,0.008,-0.010,0.021,0.000,0.000,0.000,-0.008,0.669,0.010,0.743,0.0000000,0.0000000,0.000,0.000,0.000,0.000,0,00:00:00,-721,0.000,0.000,91133.750,9.247,0.000,0.000,0.979,-9.779,-0.002,0.004,0.005,-0.008,0.000,0.000
27.103,0,0,-3.796,0.241,-8.063,-3.967,0.447,-12.429,-2.220,0.181,-9.639,0.000,0.000,0.0116870,0.000,9144.000,0.016,6.022,26.217,3.479,911.519,9.257,883.131,-0.372,-9.826,-0.077,1.147,-0.004,0.011,-0.011,0.000,0.000,0.000,-0.010,0.667,0.009,0.745,0.0000000,0.0000000,0.000,0.000,0.000,0.000,0,00:00:00,-721,0.000,0.000,91150.172,9.256,0.000,0.000,1.068,-9.659,0.030,0.002,0.010,0.007,0.000,0.000
27.204,0,0,-3.803,0.260,-8.114,-3.975,0.460,-12.457,-2.081,0.264,-9.538,0.000,0.000,0.0116870,0.000,9144.000,0.016,6.309,26.568,3.507,911.522,9.257,883.106,-0.433,-9.711,-0.000,1.036,-0.011,-0.006,-0.025,0.000,0.000,0.000,-0.010,0.668,0.009,0.744,0.0000000,0.0000000,0.000,0.000,0.000,0.000,0,00:00:00,-721,0.000,0.000,91147.977,9.255,0.000,0.000,0.971,-9.750,0.042,0.006,0.005,0.025,0.000,0.000
27.305,0,0,-3.810,0.279,-8.048,-3.983,0.494,-12.411,-2.084,0.488,-9.711,0.000,0.000,0.0116870,0.000,9144.000,0.016,6.214,26.920,3.517,911.433,9.252,883.912,0.379,-9.886,0.188,1.059,-0.024,0.053,-0.021,0.000,0.000,0.000,-0.007,0.669,0.013,0.743,0.0000000,0.0000000,0.000,0.000,0.000,0.000,0,00:00:00,-721,0.000,0.000,91143.578,9.252,0.000,0.000,0.982,-9.803,0.057,-0.004,0.015,0.000,0.000,0.000
27.406,0,0,-3.819,0.299,-8.022,-4.016,0.513,-12.383,-2.327,0.338,-9.547,0.000,0.000,0.0116870,0.000,9144.000,0.016,6.013,27.274,3.543,911.456,9.254,883.706,0.130,-9.757,0.025,1.215,-0.016,-0.018,0.008,0.000,0.000,0.000,-0.009,0.665,0.013,0.747,0.0000000,0.0000000,0.000,0.000,0.000,0.000,0,00:00:00,-721,0.000,0.000,91140.492,9.251,0.000,0.000,1.038,-9.692,0.023,-0.001,0.002,0.001,0.000,0.000
27.507,0,0,-3.827,0.319,-7.988,-4.001,0.529,-12.361,-1.865,0.328,-9.649,0.000,0.000,0.0116870,0.000,9144.000,0.016,6.606,27.630,3.559,911.452,9.253,883.741,0.194,-9.794,0.015,0.872,-0.006,-0.002,-0.012,0.000,0.000,0.000,-0.010,0.670,0.013,0.742,0.0000000,0.0000000,0.000,0.000,0.000,0.000,0,00:00:00,-721,0.000,0.000,91147.414,9.255,0.000,0.000,0.964,-9.714,-0.057,-0.009,0.002,-0.008,0.000,0.000
27.608,0,0,-3.834,0.337,-8.005,-4.001,0.525,-12.377,-2.021,0.134,-9.637,0.000,0.000,0.0116870,0.000,9144.000,0.016,5.854,27.988,3.576,911.494,9.256,883.357,-0.145,-9.794,-0.168,1.010,-0.003,-0.026,-0.032,0.000,0.000,0.000,-0.014,0.669,0.009,0.743,0.0000000,0.0000000,0.000,0.000,0.000,0.000,0,00:00:00,-721,0.000,0.000,91141.461,9.251,0.000,0.000,1.017,-9.662,0.011,-0.008,0.004,0.006,0.000,0.000
27.709,0,0,-3.841,0.353,-8.016,-4.012,0.519,-12.397,-2.125,0.130,-9.732,0.000,0.000,0.0116870,0.000,9144.000,0.016,5.946,28.346,3.584,911.492,9.256,883.376,-0.109,-9.901,-0.127,1.089,0.045,0.028,-0.009,0.000,0.000,0.000,-0.013,0.669,0.006,0.743,0.0000000,0.0000000,0.000,0.000,0.000,0.000,0,00:00:00,-721,0.000,0.000,91150.797,9.257,0.000,0.000,1.080,-9.708,-0.047,0.014,0.005,-0.021,0.000,0.000
27.810,0,0,-3.848,0.367,-7.992,-4.015,0.516,-12.362,-2.054,0.167,-9.449,0.000,0.000,0.0116870,0.000,9144.000,0.016,6.032,28.708,3.620,911.465,9.254,883.626,0.132,-9.614,-0.067,1.042,0.019,0.015,0.003,0.000,0.000,0.000,-0.012,0.669,0.006,0.744,0.0000000,0.0000000,0.000,0.000,0.000,0.000,0,00:00:00,-721,0.000,0.000,91148.438,9.255,0.000,0.000,0.989,-9.738,0.125,-0.005,-0.017,-0.007,0.000,0.000
27.911,0,0,-3.853,0.380,-8.021,-3.992,0.516,-12.401,-1.800,0.194,-9.771,0.000,0.000,0.0116870,0.000,9144.000,0.016,6.067,29.070,3.624,911.510,9.257,883.218,-0.235,-9.900,-0.038,0.862,0.017,0.025,0.025,0.000,0.000,0.000,-0.010,0.673,0.007,0.740,0.0000000,0.0000000,0.000,0.000,0.000,0.000,0,00:00:00,-721,0.000,0.000,91143.555,9.252,0.000,0.000,1.034,-9.847,0.009,-0.006,0.020,0.001,0.000,0.000
28.012,0,0,-3.858,0.392,-8.024,-4.014,0.528,-12.415,-2.242,0.325,-9.753,0.000,0.000,0.0116870,0.000,9144.000,0.016,5.452,29.433,3.630,911.487,9.255,883.419,-0.048,-9.942,0.116,1.187,0.028,-0.003,-0.027,0.000,0.000,0.000,-0.006,0.668,0.008,0.744,0.0000000,0.0000000,0.000,0.000,0.000,0.000,0,00:00:00,-721,0.000,0.000,91145.984,9.254,0.000,0.000,1.111,-9.721,0.004,-0.016,-0.016,0.004,0.000,0.000
28.113,0,0,-3.863,0.404,-8.009,-4.017,0.529,-12.393,-2.060,0.224,-9.522,0.000,0.000,0.0116870,0.000,9144.000,0.016,6.140,29.799,3.659,911.477,9.255,883.510,0.071,-9.691,0.012,1.025,-0.008,-0.030,0.002,0.000,0.000,0.000,-0.007,0.668,0.009,0.744,0.0000000,0.0000000,0.000,0.000,0.000,0.000,0,00:00:00,-721,0.000,0.000,91147.570,9.255,0.000,0.000,1.016,-9.725,-0.023,-0.006,0.005,-0.018,0.000,0.000
28.214,0,0,-3.866,0.413,-7.984,-3.983,0.513,-12.353,-1.705,0.062,-9.405,0.000,0.000,0.0116870,0.000,9144.000,0.016,6.175,30.169,3.699,911.477,9.255,883.518,0.143,-9.523,-0.152,0.808,-0.013,0.031,0.001,0.000,0.000,0.000,-0.010,0.673,0.006,0.740,0.0000000,0.0000000,0.000,0.000,0.000,0.000,0,00:00:00,-721,0.000,0.000,91149.555,9.256,0.000,0.000,0.998,-9.780,0.079,0.027,-0.010,-0.008,0.000,0.000
28.315,0,0,-3.869,0.421,-7.952,-3.996,0.508,-12.333,-2.158,0.171,-9.638,0.000,0.000,0.0116870,0.000,9144.000,0.016,5.425,30.541,3.716,911.464,9.254,883.632,0.200,-9.813,-0.063,1.134,-0.012,-0.006,0.027,0.000,0.000,0.000,-0.010,0.669,0.007,0.743,0.0000000,0.0000000,0.000,0.000,0.000,0.000,0,00:00:00,-721,0.000,0.000,91148.773,9.255,0.000,0.000,1.044,-9.774,-0.056,0.008,-0.001,0.011,0.000,0.000
28.416,0,0,-3.870,0.427,-7.915,-3.974,0.488,-12.298,-1.815,0.030,-9.494,0.000,0.000,0.0116870,0.000,9144.000,0.016,6.025,30.915,3.748,911.459,9.254,883.674,0.254,-9.624,-0.180,0.872,0.011,-0.015,-0.032,0.000,0.000,0.000,-0.013,0.671,0.004,0.741,0.0000000,0.0000000,0.000,0.000,0.000,0.000,0,00:00:00,-721,0.000,0.000,91143.641,9.252,0.000,0.000,0.940,-9.761,0.046,-0.007,-0.001,-0.001,0.000,0.000
28.517,0,0,-3.872,0.432,-7.842,-4.001,0.482,-12.238,-2.307,0.162,-9.496,0.000,0.000,0.0116870,0.000,9144.000,0.016,5.644,31.293,3.779,911.426,9.252,883.977,0.520,-9.696,-0.018,1.229,0.024,0.005,-0.060,0.000,0.000,0.000,-0.011,0.666,0.004,0.746,0.0000000,0.0000000,0.000,0.000,0.000,0.000,0,00:00:00,-721,0.000,0.000,91154.062,9.259,0.000,0.000,0.943,-9.741,0.008,0.004,-0.012,-0.019,0.000,0.000
28.618,0,0,-3.875,0.436,-7.820,-4.015,0.496,-12.226,-2.175,0.367,-9.555,0.000,0.000,0.0116870,0.000,9144.000,0.017,6.419,31.674,3.805,911.461,9.254,883.662,0.202,-9.744,0.176,1.090,0.005,-0.017,-0.013,0.000,0.000,0.000,-0.005,0.666,0.008,0.746,0.0000000,0.0000000,0.000,0.000,0.000,0.000,0,00:00:00,-721,0.000,0.000,91151.219,9.257,0.000,0.000,1.070,-9.712,0.039,0.010,0.001,0.001,0.000,0.000
28.719,0,0,-3.879,0.441,-7.914,-4.018,0.515,-12.295,-2.068,0.424,-9.476,0.000,0.000,0.0116870,0.000,9144.000,0.017,6.449,32.058,3.838,911.551,9.259,882.847,-0.618,-9.652,0.197,1.023,-0.033,-0.011,-0.017,0.000,0.000,0.000,-0.003,0.667,0.012,0.745,0.0000000,0.0000000,0.000,0.000,0.000,0.000,0,00:00:00,-721,0.000,0.000,91149.641,9.256,0.000,0.000,0.993,-9.668,-0.006,-0.016,0.017,-0.018,0.000,0.000
28.820,0,0,-3.883,0.447,-7.873,-4.027,0.528,-12.271,-2.132,0.360,-9.614,0.000,0.000,0.0116870,0.000,9144.000,0.017,6.280,32.443,3.858,911.451,9.253,883.752,0.296,-9.795,0.104,1.068,-0.033,-0.015,-0.042,0.000,0.000,0.000,-0.005,0.667,0.012,0.745,0.0000000,0.0000000,0.000,0.000,0.000,0.000,0,00:00:00,-721,0.000,0.000,91137.070,9.249,0.000,0.000,0.999,-9.773,0.011,-0.003,-0.001,-0.013,0.000,0.000
28.921,0,0,-3.887,0.455,-7.816,-4.021,0.544,-12.241,-1.989,0.405,-9.658,0.000,0.000,0.0116870,0.000,9144.000,0.017,6.296,32.831,3.873,911.434,9.252,883.902,0.444,-9.817,0.157,0.997,0.011,0.064,-0.008,0.000,0.000,0.000,-0.004,0.670,0.013,0.742,0.0000000,0.0000000,0.000,0.000,0.000,0.000,0,00:00:00,-721,0.000,0.000,91148.023,9.255,0.000,0.000,1.064,-9.684,-0.067,-0.015,0.009,-0.009,0.000,0.000
29.022,0,0,-3.891,0.461,-7.805,-4.031,0.534,-12.248,-2.142,0.138,-9.655,0.000,0.000,0.0116870,0.000,9144.000,0.017,5.862,33.220,3.888,911.467,9.254,883.604,0.144,-9.829,-0.108,1.100,-0.012,0.001,-0.019,0.000,0.000,0.000,-0.009,0.668,0.009,0.744,0.0000000,0.0000000,0.000,0.000,0.000,0.000,0,00:00:00,-721,0.000,0.000,91150.266,9.256,0.000,0.000,0.988,-9.759,-0.062,0.002,0.003,0.009,0.000,0.000
29.123,0,0,-3.894,0.466,-7.837,-4.034,0.520,-12.260,-2.075,0.104,-9.392,0.000,0.000,0.0116870,0.000,9144.000,0.017,6.123,33.613,3.930,911.495,9.256,883.349,-0.149,-9.561,-0.119,1.049,0.012,0.001,0.011,0.000,0.000,0.000,-0.010,0.668,0.007,0.744,0.0000000,0.0000000,0.000,0.000,0.000,0.000,0,00:00:00,-721,0.000,0.000,91151.516,9.257,0.000,0.000,1.091,-9.750,0.022,0.002,0.008,-0.002,0.000,0.000
29.224,0,0,-3.898,0.470,-7.891,-4.031,0.514,-12.310,-2.024,0.189,-9.614,0.000,0.000,0.0116870,0.000,9144.000,0.017,6.191,34.008,3.950,911.510,9.257,883.216,-0.322,-9.776,-0.053,1.003,-0.012,-0.000,0.016,0.000,0.000,0.000,-0.010,0.669,0.008,0.743,0.0000000,0.0000000,0.000,0.000,0.000,0.000,0,00:00:00,-721,0.000,0.000,91160.148,9.262,0.000,0.000,0.980,-9.629,-0.048,0.010,-0.002,0.002,0.000,0.000
29.325,0,0,-3.901,0.472,-7.910,-4.023,0.508,-12.357,-1.972,0.193,-9.892,0.000,0.000,0.0116870,0.000,9144.000,0.017,6.025,34.402,3.942,911.488,9.255,883.418,-0.093,-10.042,-0.029,0.964,0.028,-0.011,-0.004,0.000,0.000,0.000,-0.009,0.670,0.007,0.742,0.0000000,0.0000000,0.000,0.000,0.000,0.000,0,00:00:00,-721,0.000,0.000,91150.312,9.256,0.000,0.000,0.991,-9.783,-0.046,0.022,-0.008,0.008,0.000,0.000
29.426,0,0,-3.902,0.475,-7.973,-4.015,0.509,-12.401,-1.968,0.256,-9.576,0.000,0.000,0.0116870,0.000,9144.000,0.017,5.786,34.798,3.965,911.522,9.257,883.110,-0.397,-9.728,0.031,1.000,-0.006,0.031,0.002,0.000,0.000,0.000,-0.008,0.671,0.008,0.742,0.0000000,0.0000000,0.000,0.000,0.000,0.000,0,00:00:00,-721,0.000,0.000,91140.281,9.250,0.000,0.000,1.028,-9.672,0.031,-0.014,-0.008,-0.006,0.000,0.000
29.527,0,0,-3.903,0.477,-8.033,-4.005,0.510,-12.442,-1.963,0.263,-9.577,0.000,0.000,0.0116870,0.000,9144.000,0.017,5.740,35.197,3.988,911.522,9.257,883.110,-0.421,-9.728,0.031,1.000,-0.006,0.031,0.002,0.000,0.000,0.000,-0.007,0.671,0.009,0.741,0.0000000,0.0000000,0.000,0.000,0.000,0.000,0,00:00:00,-721,0.000,0.000,91140.281,9.250,0.000,0.000,1.028,-9.672,0.031,-0.014,-0.008,-0.006,0.000,0.000
