State - Time (s),State - Stage,State - Stage,State - PX (m),State - PY (m),State - PZ (m),State - VX (m/s),State - VY (m/s),State - VZ (m/s),State - AX (m/s/s),State - AY (m/s/s),State - AZ (m/s/s),State - Actuation Angle (deg),State - Acutal Angle (deg),State - CdA,State - Est Apo (m),State - Target Apogee (m),State - Mach Number,State - Tilt [deg],State - Pos - Accel Integrated [m],State - Velo - Accel Integrated [m/s],MockBarometer - Pres (hPa),MockBarometer - Temp (C),MockBarometer - Alt ASL (m),MockBarometer - Alt AGL (m),MockIMU - AccX (m/s^2),MockIMU - AccY (m/s^2),MockIMU - AccZ (m/s^2),MockIMU - GyroX (rad/s),MockIMU - GyroY (rad/s),MockIMU - GyroZ (rad/s),MockIMU - MagX (uT),MockIMU - MagY (uT),MockIMU - MagZ (uT),MockIMU - OriX,MockIMU - OriY,MockIMU - OriZ,MockIMU - OriW,MockGPS - Lat,MockGPS - Lon,MockGPS - Alt (m),MockGPS - Disp X (m),MockGPS - Disp Y (m),MockGPS - Disp Z (m),MockGPS - Fix Quality,MockGPS - Time of Day,E5 - Rel Steps,MockBR - Battery Voltage (V),MockBR - ALT (m),MockBR - PRES (Pa),MockBR - TEMP (C),MockBR - VEL (m/s),MockBR - ANG (deg),MockBR - ACCX (m/s^2),MockBR - ACCY (m/s^2),MockBR - ACCZ (m/s^2),MockBR - GYROX (rad/s),MockBR - GYROY (rad/s),MockBR - GYROZ (rad/s),MockBR - ROLL (deg),MockBR - TILT (deg)
21.041,0,0,-1734.024,-17.432,-1321.222,-164.823,-1.657,-125.586,-7.833,-0.079,-5.969,0.000,0.000,0.0116870,0.000,9144.000,0.490,4.000,0.038,0.384,911.466,9.254,883.617,0.000,-9.809,-0.074,0.879,-0.010,-0.006,-0.026,0.000,0.000,0.000,-0.003,0.362,-0.001,0.932,0.0000000,0.0000000,0.000,0.000,0.000,0.000,0,00:00:00,-1020,0.000,0.000,91147.703,9.255,0.000,0.000,0.987,-9.818,0.079,-0.002,0.005,0.023,0.000,0.000
21.142,0,0,-0.143,-0.001,-0.022,1.052,0.010,0.359,-5.143,-0.062,-8.399,0.000,0.000,0.0116870,0.000,9144.000,0.003,47.577,0.091,0.525,911.466,9.254,883.617,0.000,-9.809,-0.074,0.879,-0.010,-0.006,-0.026,0.000,0.000,0.000,-0.004,0.527,-0.001,0.850,0.0000000,0.0000000,0.000,0.000,0.000,0.000,0,00:00:00,-1020,0.000,0.000,91147.703,9.255,0.000,0.000,0.987,-9.818,0.079,-0.002,0.005,0.023,0.000,0.000
21.243,0,0,-0.028,-0.000,-0.092,0.670,0.003,-0.569,-3.807,-0.070,-9.136,0.000,0.000,0.0116870,0.000,9144.000,0.003,26.366,0.150,0.593,911.491,9.256,883.392,-0.150,-9.837,-0.086,1.088,0.004,0.010,-0.014,0.000,0.000,0.000,-0.005,0.600,-0.002,0.800,0.0000000,0.0000000,0.000,0.000,0.000,0.000,0,00:00:00,-1020,0.000,0.000,91137.016,9.248,0.000,0.000,1.049,-9.849,0.029,0.000,0.006,-0.013,0.000,0.000
21.344,0,0,0.017,-0.000,-0.151,0.378,-0.008,-1.504,-2.880,-0.103,-9.301,0.000,0.000,0.0116870,0.000,9144.000,0.002,16.310,0.215,0.644,911.483,9.255,883.458,-0.063,-9.681,-0.108,1.035,0.028,0.035,0.029,0.000,0.000,0.000,-0.004,0.635,-0.002,0.772,0.0000000,0.0000000,0.000,0.000,0.000,0.000,0,00:00:00,-1020,0.000,0.000,91149.172,9.256,0.000,0.000,0.935,-9.742,0.032,-0.005,-0.005,0.006,0.000,0.000
21.445,0,0,0.031,-0.001,-0.274,0.129,-0.020,-2.447,-2.455,-0.121,-9.422,0.000,0.000,0.0116870,0.000,9144.000,0.002,11.106,0.283,0.682,911.483,9.255,883.458,-0.051,-9.681,-0.108,1.035,0.028,0.035,0.029,0.000,0.000,0.000,-0.003,0.653,-0.003,0.758,0.0000000,0.0000000,0.000,0.000,0.000,0.000,0,00:00:00,-1020,0.000,0.000,91149.172,9.256,0.000,0.000,0.935,-9.742,0.032,-0.005,-0.005,0.006,0.000,0.000
21.546,0,0,0.026,-0.001,-0.424,-0.110,0.014,-3.403,-2.361,0.336,-9.642,0.000,0.000,0.0116870,0.000,9144.000,0.002,8.504,0.353,0.699,911.460,9.254,883.667,0.132,-9.866,0.320,1.099,-0.006,0.002,0.005,0.000,0.000,0.000,0.005,0.660,0.004,0.751,0.0000000,0.0000000,0.000,0.000,0.000,0.000,0,00:00:00,-1020,0.000,0.000,91142.383,9.252,0.000,0.000,1.053,-9.716,-0.031,-0.004,0.022,0.007,0.000,0.000
21.647,0,0,0.003,0.002,-0.653,-0.339,0.050,-4.356,-2.267,0.352,-9.664,0.000,0.000,0.0116870,0.000,9144.000,0.002,7.426,0.424,0.714,911.460,9.254,883.667,0.113,-9.866,0.320,1.099,-0.006,0.002,0.005,0.000,0.000,0.000,0.008,0.663,0.008,0.748,0.0000000,0.0000000,0.000,0.000,0.000,0.000,0,00:00:00,-1020,0.000,0.000,91142.383,9.252,0.000,0.000,1.053,-9.716,-0.031,-0.004,0.022,0.007,0.000,0.000
21.748,0,0,-0.036,0.005,-0.915,-0.545,0.031,-5.283,-2.047,-0.179,-9.582,0.000,0.000,0.0116870,0.000,9144.000,0.003,6.886,0.498,0.737,911.431,9.252,883.927,0.327,-9.749,-0.178,0.981,0.008,0.001,-0.014,0.000,0.000,0.000,0.001,0.667,0.000,0.745,0.0000000,0.0000000,0.000,0.000,0.000,0.000,0,00:00:00,-1020,0.000,0.000,91157.969,9.261,0.000,0.000,0.965,-9.784,-0.055,-0.010,0.010,-0.005,0.000,0.000
21.849,0,0,-0.087,0.006,-1.250,-0.745,0.011,-6.196,-1.997,-0.198,-9.592,0.000,0.000,0.0116870,0.000,9144.000,0.003,6.314,0.574,0.758,911.431,9.252,883.927,0.291,-9.749,-0.178,0.981,0.008,0.001,-0.014,0.000,0.000,0.000,-0.003,0.669,-0.003,0.743,0.0000000,0.0000000,0.000,0.000,0.000,0.000,0,00:00:00,-1020,0.000,0.000,91157.969,9.261,0.000,0.000,0.965,-9.784,-0.055,-0.010,0.010,-0.005,0.000,0.000
21.950,0,0,-0.152,0.006,-1.662,-0.947,0.007,-7.072,-2.025,-0.039,-9.398,0.000,0.000,0.0116870,0.000,9144.000,0.004,6.028,0.654,0.800,911.447,9.253,883.790,0.138,-9.560,-0.026,1.016,-0.003,-0.016,0.014,0.000,0.000,0.000,-0.002,0.669,-0.002,0.744,0.0000000,0.0000000,0.000,0.000,0.000,0.000,0,00:00:00,-1020,0.000,0.000,91144.352,9.253,0.000,0.000,0.958,-9.780,-0.017,-0.010,0.006,0.004,0.000,0.000
22.051,0,0,-0.230,0.006,-2.119,-1.148,0.004,-7.918,-2.030,-0.033,-9.397,0.000,0.000,0.0116870,0.000,9144.000,0.004,6.092,0.738,0.841,911.447,9.253,883.790,0.138,-9.560,-0.026,1.016,-0.003,-0.016,0.014,0.000,0.000,0.000,-0.001,0.668,-0.001,0.744,0.0000000,0.0000000,0.000,0.000,0.000,0.000,0,00:00:00,-1020,0.000,0.000,91144.352,9.253,0.000,0.000,0.958,-9.780,-0.017,-0.010,0.006,0.004,0.000,0.000
22.152,0,0,-0.318,0.006,-2.682,-1.323,0.007,-8.775,-1.793,0.031,-9.635,0.000,0.000,0.0116870,0.000,9144.000,0.005,6.124,0.824,0.859,911.512,9.257,883.194,-0.458,-9.763,0.021,0.849,-0.013,-0.008,0.009,0.000,0.000,0.000,-0.000,0.672,0.000,0.741,0.0000000,0.0000000,0.000,0.000,0.000,0.000,0,00:00:00,-1020,0.000,0.000,91155.344,9.259,0.000,0.000,1.036,-9.830,-0.022,0.003,0.005,0.011,0.000,0.000
22.253,0,0,-0.418,0.006,-3.231,-1.517,0.020,-9.538,-2.000,0.134,-9.362,0.000,0.000,0.0116870,0.000,9144.000,0.005,5.569,0.914,0.903,911.477,9.255,883.512,-0.140,-9.517,0.104,1.041,-0.012,0.028,0.017,0.000,0.000,0.000,0.001,0.670,0.003,0.742,0.0000000,0.0000000,0.000,0.000,0.000,0.000,0,00:00:00,-1020,0.000,0.000,91141.008,9.251,0.000,0.000,0.995,-9.788,-0.011,-0.001,-0.005,0.005,0.000,0.000
22.354,0,0,-0.529,0.008,-3.789,-1.721,0.036,-10.247,-2.127,0.154,-9.450,0.000,0.000,0.0116870,0.000,9144.000,0.006,5.824,1.008,0.939,911.472,9.254,883.562,-0.090,-9.625,0.109,1.097,-0.011,-0.010,0.014,0.000,0.000,0.000,0.002,0.668,0.004,0.744,0.0000000,0.0000000,0.000,0.000,0.000,0.000,0,00:00:00,-1020,0.000,0.000,91143.836,9.253,0.000,0.000,0.995,-9.648,-0.112,-0.001,-0.004,0.003,0.000,0.000
22.455,0,0,-0.652,0.011,-4.346,-1.920,0.035,-10.879,-2.105,0.000,-9.383,0.000,0.000,0.0116870,0.000,9144.000,0.006,6.191,1.106,0.982,911.467,9.254,883.602,-0.049,-9.556,-0.046,1.072,-0.015,0.019,-0.040,0.000,0.000,0.000,-0.002,0.668,0.002,0.745,0.0000000,0.0000000,0.000,0.000,0.000,0.000,0,00:00:00,-1020,0.000,0.000,91143.133,9.252,0.000,0.000,1.010,-9.784,0.008,-0.014,0.001,-0.008,0.000,0.000
22.556,0,0,-0.786,0.013,-4.920,-2.122,0.032,-11.471,-2.180,-0.035,-9.571,0.000,0.000,0.0116870,0.000,9144.000,0.007,6.243,1.207,1.006,911.494,9.256,883.358,-0.294,-9.754,-0.077,1.102,-0.002,-0.016,-0.013,0.000,0.000,0.000,-0.003,0.667,0.000,0.745,0.0000000,0.0000000,0.000,0.000,0.000,0.000,0,00:00:00,-1020,0.000,0.000,91152.836,9.258,0.000,0.000,0.910,-9.725,0.042,-0.006,0.024,-0.012,0.000,0.000
22.657,0,0,-0.930,0.015,-5.429,-2.328,0.023,-11.930,-2.264,-0.081,-9.363,0.000,0.000,0.0116870,0.000,9144.000,0.008,6.390,1.312,1.051,911.453,9.253,883.736,0.085,-9.562,-0.114,1.165,0.007,0.008,0.019,0.000,0.000,0.000,-0.004,0.665,-0.001,0.747,0.0000000,0.0000000,0.000,0.000,0.000,0.000,0,00:00:00,-1020,0.000,0.000,91144.625,9.253,0.000,0.000,1.114,-9.756,0.049,-0.010,0.009,0.008,0.000,0.000
22.758,0,0,-1.083,0.017,-5.940,-2.496,0.048,-12.349,-1.945,0.257,-9.522,0.000,0.000,0.0116870,0.000,9144.000,0.008,6.647,1.420,1.079,911.486,9.255,883.433,-0.219,-9.677,0.194,0.917,-0.018,-0.038,-0.010,0.000,0.000,0.000,0.000,0.668,0.004,0.744,0.0000000,0.0000000,0.000,0.000,0.000,0.000,0,00:00:00,-1020,0.000,0.000,91147.484,9.255,0.000,0.000,1.140,-9.817,-0.039,-0.001,0.015,-0.013,0.000,0.000
22.859,0,0,-1.241,0.020,-6.417,-2.673,0.039,-12.694,-2.106,-0.084,-9.576,0.000,0.000,0.0116870,0.000,9144.000,0.009,6.138,1.530,1.103,911.493,9.256,883.370,-0.282,-9.746,-0.119,1.064,0.020,0.003,-0.010,0.000,0.000,0.000,-0.003,0.668,0.000,0.744,0.0000000,0.0000000,0.000,0.000,0.000,0.000,0,00:00:00,-1020,0.000,0.000,91150.062,9.256,0.000,0.000,1.076,-9.787,-0.073,-0.018,0.020,-0.004,0.000,0.000
22.960,0,0,-1.405,0.021,-6.852,-2.843,0.029,-12.971,-2.095,-0.096,-9.631,0.000,0.000,0.0116870,0.000,9144.000,0.009,6.176,1.642,1.121,911.499,9.256,883.313,-0.339,-9.800,-0.136,1.051,-0.008,-0.002,0.020,0.000,0.000,0.000,-0.005,0.668,-0.001,0.744,0.0000000,0.0000000,0.000,0.000,0.000,0.000,0,00:00:00,-1020,0.000,0.000,91152.094,9.257,0.000,0.000,0.980,-9.806,0.043,0.008,-0.005,0.008,0.000,0.000
23.061,0,0,-1.572,0.023,-7.182,-3.000,0.036,-13.121,-2.060,0.076,-9.526,0.000,0.000,0.0116870,0.000,9144.000,0.010,6.154,1.757,1.149,911.451,9.253,883.747,0.078,-9.692,0.025,1.032,-0.005,-0.001,0.011,0.000,0.000,0.000,-0.003,0.668,0.001,0.744,0.0000000,0.0000000,0.000,0.000,0.000,0.000,0,00:00:00,-1020,0.000,0.000,91149.734,9.256,0.000,0.000,1.025,-9.730,-0.018,0.012,0.001,-0.000,0.000,0.000
23.162,0,0,-1.741,0.025,-7.453,-3.149,0.044,-13.205,-2.057,0.085,-9.527,0.000,0.000,0.0116870,0.000,9144.000,0.010,6.121,1.875,1.177,911.451,9.253,883.747,0.121,-9.692,0.025,1.032,-0.005,-0.001,0.011,0.000,0.000,0.000,-0.002,0.668,0.003,0.744,0.0000000,0.0000000,0.000,0.000,0.000,0.000,0,00:00:00,-1020,0.000,0.000,91149.734,9.256,0.000,0.000,1.025,-9.730,-0.018,0.012,0.001,-0.000,0.000,0.000
23.263,0,0,-1.910,0.027,-7.672,-3.287,0.052,-13.238,-2.056,0.092,-9.527,0.000,0.000,0.0116870,0.000,9144.000,0.010,6.105,1.995,1.206,911.451,9.253,883.747,0.109,-9.692,0.025,1.032,-0.005,-0.001,0.011,0.000,0.000,0.000,-0.001,0.669,0.003,0.744,0.0000000,0.0000000,0.000,0.000,0.000,0.000,0,00:00:00,-1020,0.000,0.000,91149.734,9.256,0.000,0.000,1.025,-9.730,-0.018,0.012,0.001,-0.000,0.000,0.000
23.364,0,0,-2.076,0.030,-7.874,-3.390,0.050,-13.274,-1.798,-0.009,-9.728,0.000,0.000,0.0116870,0.000,9144.000,0.011,6.097,2.116,1.214,911.475,9.255,883.535,-0.114,-9.856,-0.078,0.853,-0.007,-0.000,-0.006,0.000,0.000,0.000,-0.004,0.672,0.002,0.740,0.0000000,0.0000000,0.000,0.000,0.000,0.000,0,00:00:00,-1020,0.000,0.000,91142.922,9.252,0.000,0.000,1.148,-9.843,-0.074,-0.010,-0.001,-0.001,0.000,0.000
23.465,0,0,-2.237,0.032,-8.033,-3.477,0.048,-13.277,-1.749,-0.004,-9.737,0.000,0.000,0.0116870,0.000,9144.000,0.011,5.523,2.239,1.221,911.475,9.255,883.535,-0.129,-9.856,-0.078,0.853,-0.007,-0.000,-0.006,0.000,0.000,0.000,-0.005,0.674,0.001,0.739,0.0000000,0.0000000,0.000,0.000,0.000,0.000,0,00:00:00,-1020,0.000,0.000,91142.922,9.252,0.000,0.000,1.148,-9.843,-0.074,-0.010,-0.001,-0.001,0.000,0.000
23.566,0,0,-2.391,0.034,-8.121,-3.566,0.043,-13.221,-1.867,-0.036,-9.664,0.000,0.000,0.0116870,0.000,9144.000,0.011,5.236,2.362,1.236,911.451,9.253,883.746,0.113,-9.795,-0.122,0.960,-0.018,0.028,0.001,0.000,0.000,0.000,-0.007,0.673,0.001,0.739,0.0000000,0.0000000,0.000,0.000,0.000,0.000,0,00:00:00,-1020,0.000,0.000,91144.102,9.253,0.000,0.000,1.073,-9.750,0.052,-0.016,-0.010,0.003,0.000,0.000
23.667,0,0,-2.537,0.035,-8.178,-3.645,0.040,-13.151,-1.875,-0.020,-9.662,0.000,0.000,0.0116870,0.000,9144.000,0.011,5.337,2.487,1.251,911.451,9.253,883.746,0.106,-9.795,-0.122,0.960,-0.018,0.028,0.001,0.000,0.000,0.000,-0.008,0.673,0.001,0.740,0.0000000,0.0000000,0.000,0.000,0.000,0.000,0,00:00:00,-1020,0.000,0.000,91144.102,9.253,0.000,0.000,1.073,-9.750,0.052,-0.016,-0.010,0.003,0.000,0.000
23.768,0,0,-2.676,0.036,-8.183,-3.716,0.029,-13.056,-1.901,-0.091,-9.702,0.000,0.000,0.0116870,0.000,9144.000,0.012,5.388,2.613,1.261,911.436,9.252,883.888,0.298,-9.840,-0.183,0.951,0.011,-0.041,0.021,0.000,0.000,0.000,-0.009,0.672,-0.001,0.741,0.0000000,0.0000000,0.000,0.000,0.000,0.000,0,00:00:00,-1020,0.000,0.000,91148.164,9.255,0.000,0.000,0.945,-9.756,0.073,0.001,0.001,0.006,0.000,0.000
23.869,0,0,-2.807,0.037,-8.253,-3.799,0.067,-13.014,-2.125,0.393,-9.575,0.000,0.000,0.0116870,0.000,9144.000,0.012,5.571,2.742,1.285,911.507,9.257,883.239,-0.296,-9.749,0.270,1.109,-0.010,-0.005,0.011,0.000,0.000,0.000,-0.001,0.669,0.007,0.743,0.0000000,0.0000000,0.000,0.000,0.000,0.000,0,00:00:00,-1020,0.000,0.000,91142.875,9.252,0.000,0.000,0.957,-9.812,-0.077,-0.010,0.005,-0.002,0.000,0.000
23.970,0,0,-2.930,0.041,-8.247,-3.876,0.082,-12.915,-2.151,0.169,-9.489,0.000,0.000,0.0116870,0.000,9144.000,0.012,6.042,2.874,1.317,911.470,9.254,883.582,0.095,-9.669,0.043,1.098,-0.002,-0.015,0.021,0.000,0.000,0.000,-0.001,0.667,0.007,0.745,0.0000000,0.0000000,0.000,0.000,0.000,0.000,0,00:00:00,-1020,0.000,0.000,91151.000,9.257,0.000,0.000,1.101,-9.702,-0.023,0.001,0.004,0.017,0.000,0.000
24.071,0,0,-3.046,0.046,-8.229,-3.945,0.097,-12.819,-2.173,0.173,-9.484,0.000,0.000,0.0116870,0.000,9144.000,0.012,6.303,3.009,1.350,911.470,9.254,883.582,0.099,-9.669,0.043,1.098,-0.002,-0.015,0.021,0.000,0.000,0.000,-0.002,0.666,0.007,0.746,0.0000000,0.0000000,0.000,0.000,0.000,0.000,0,00:00:00,-1020,0.000,0.000,91151.000,9.257,0.000,0.000,1.101,-9.702,-0.023,0.001,0.004,0.017,0.000,0.000
24.172,0,0,-3.154,0.051,-8.268,-4.009,0.108,-12.806,-2.210,0.132,-9.745,0.000,0.000,0.0116870,0.000,9144.000,0.013,6.434,3.144,1.356,911.514,9.257,883.178,-0.361,-9.932,-0.012,1.104,-0.013,-0.017,0.025,0.000,0.000,0.000,-0.003,0.666,0.007,0.746,0.0000000,0.0000000,0.000,0.000,0.000,0.000,0,00:00:00,-1020,0.000,0.000,91148.102,9.255,0.000,0.000,0.998,-9.694,-0.059,-0.021,0.006,0.001,0.000,0.000
24.273,0,0,-3.254,0.057,-8.271,-4.073,0.116,-12.767,-2.287,0.112,-9.696,0.000,0.000,0.0116870,0.000,9144.000,0.013,6.437,3.281,1.368,911.490,9.256,883.399,-0.162,-9.894,-0.046,1.165,-0.017,0.006,0.010,0.000,0.000,0.000,-0.005,0.665,0.006,0.746,0.0000000,0.0000000,0.000,0.000,0.000,0.000,0,00:00:00,-1020,0.000,0.000,91150.242,9.256,0.000,0.000,1.100,-9.723,-0.168,0.009,-0.002,0.005,0.000,0.000
24.374,0,0,-3.347,0.063,-8.269,-4.130,0.126,-12.731,-2.297,0.128,-9.693,0.000,0.000,0.0116870,0.000,9144.000,0.013,6.559,3.419,1.379,911.490,9.256,883.399,-0.160,-9.894,-0.046,1.165,-0.017,0.006,0.010,0.000,0.000,0.000,-0.007,0.665,0.006,0.747,0.0000000,0.0000000,0.000,0.000,0.000,0.000,0,00:00:00,-1020,0.000,0.000,91150.242,9.256,0.000,0.000,1.100,-9.723,-0.168,0.009,-0.002,0.005,0.000,0.000
24.475,0,0,-3.432,0.070,-8.244,-4.160,0.131,-12.687,-2.104,0.088,-9.730,0.000,0.000,0.0116870,0.000,9144.000,0.013,6.619,3.558,1.387,911.474,9.255,883.546,-0.006,-9.901,-0.081,1.034,-0.001,0.018,-0.022,0.000,0.000,0.000,-0.008,0.668,0.005,0.745,0.0000000,0.0000000,0.000,0.000,0.000,0.000,0,00:00:00,-1020,0.000,0.000,91148.148,9.255,0.000,0.000,1.003,-9.711,0.042,0.002,-0.018,0.020,0.000,0.000
24.576,0,0,-3.509,0.076,-8.224,-4.182,0.136,-12.656,-2.072,0.085,-9.737,0.000,0.000,0.0116870,0.000,9144.000,0.013,6.238,3.697,1.395,911.474,9.255,883.546,-0.045,-9.901,-0.081,1.034,-0.001,0.018,-0.022,0.000,0.000,0.000,-0.009,0.669,0.004,0.743,0.0000000,0.0000000,0.000,0.000,0.000,0.000,0,00:00:00,-1020,0.000,0.000,91148.148,9.255,0.000,0.000,1.003,-9.711,0.042,0.002,-0.018,0.020,0.000,0.000
24.677,0,0,-3.576,0.082,-8.170,-4.190,0.143,-12.586,-1.997,0.117,-9.570,0.000,0.000,0.0116870,0.000,9144.000,0.013,6.048,3.839,1.419,911.446,9.253,883.797,0.205,-9.728,-0.016,0.985,0.032,-0.031,-0.019,0.000,0.000,0.000,-0.007,0.669,0.003,0.743,0.0000000,0.0000000,0.000,0.000,0.000,0.000,0,00:00:00,-1020,0.000,0.000,91140.039,9.250,0.000,0.000,0.928,-9.771,-0.054,-0.003,0.014,0.019,0.000,0.000
24.778,0,0,-3.634,0.087,-8.125,-4.194,0.147,-12.532,-1.993,0.085,-9.572,0.000,0.000,0.0116870,0.000,9144.000,0.013,6.003,3.983,1.442,911.446,9.253,883.797,0.159,-9.728,-0.016,0.985,0.032,-0.031,-0.019,0.000,0.000,0.000,-0.005,0.669,0.003,0.743,0.0000000,0.0000000,0.000,0.000,0.000,0.000,0,00:00:00,-1020,0.000,0.000,91140.039,9.250,0.000,0.000,0.928,-9.771,-0.054,-0.003,0.014,0.019,0.000,0.000
24.879,0,0,-3.686,0.094,-8.112,-4.224,0.161,-12.517,-2.288,0.188,-9.681,0.000,0.000,0.0116870,0.000,9144.000,0.013,5.981,4.129,1.455,911.469,9.254,883.589,-0.035,-9.878,0.066,1.191,-0.010,0.000,0.021,0.000,0.000,0.000,-0.003,0.666,0.005,0.746,0.0000000,0.0000000,0.000,0.000,0.000,0.000,0,00:00:00,-1020,0.000,0.000,91141.148,9.251,0.000,0.000,0.993,-9.762,0.045,0.002,-0.010,0.010,0.000,0.000
24.980,0,0,-3.732,0.099,-8.113,-4.207,0.154,-12.503,-1.862,-0.008,-9.552,0.000,0.000,0.0116870,0.000,9144.000,0.013,6.427,4.277,1.481,911.476,9.255,883.526,-0.126,-9.691,-0.141,0.881,-0.021,-0.009,0.006,0.000,0.000,0.000,-0.007,0.670,0.003,0.742,0.0000000,0.0000000,0.000,0.000,0.000,0.000,0,00:00:00,-1020,0.000,0.000,91139.578,9.250,0.000,0.000,1.015,-9.730,0.031,-0.007,-0.014,0.002,0.000,0.000
25.081,0,0,-3.769,0.106,-8.090,-4.198,0.183,-12.503,-1.970,0.342,-9.857,0.000,0.000,0.0116870,0.000,9144.000,0.013,5.837,4.424,1.476,911.458,9.254,883.686,0.051,-10.008,0.175,0.985,-0.020,0.016,-0.004,0.000,0.000,0.000,-0.003,0.671,0.008,0.741,0.0000000,0.0000000,0.000,0.000,0.000,0.000,0,00:00:00,-1020,0.000,0.000,91143.531,9.252,0.000,0.000,0.981,-9.751,0.009,-0.008,-0.008,-0.008,0.000,0.000
25.182,0,0,-3.802,0.113,-8.094,-4.200,0.192,-12.487,-2.086,0.154,-9.492,0.000,0.000,0.0116870,0.000,9144.000,0.013,5.684,4.575,1.508,911.483,9.255,883.464,-0.114,-9.659,-0.005,1.082,0.000,0.011,-0.002,0.000,0.000,0.000,-0.005,0.669,0.007,0.743,0.0000000,0.0000000,0.000,0.000,0.000,0.000,0,00:00:00,-1020,0.000,0.000,91140.383,9.250,0.000,0.000,0.978,-9.776,-0.034,0.010,0.014,-0.011,0.000,0.000
25.283,0,0,-3.829,0.120,-8.085,-4.200,0.201,-12.474,-2.093,0.148,-9.605,0.000,0.000,0.0116870,0.000,9144.000,0.013,6.006,4.728,1.529,911.477,9.255,883.518,-0.025,-9.775,0.018,1.055,0.028,-0.020,-0.017,0.000,0.000,0.000,-0.004,0.668,0.005,0.744,0.0000000,0.0000000,0.000,0.000,0.000,0.000,0,00:00:00,-1020,0.000,0.000,91144.125,9.253,0.000,0.000,1.098,-9.755,-0.035,-0.008,-0.015,0.004,0.000,0.000
25.384,0,0,-3.853,0.128,-8.077,-4.192,0.221,-12.459,-2.019,0.269,-9.555,0.000,0.000,0.0116870,0.000,9144.000,0.013,6.138,4.883,1.554,911.478,9.255,883.504,-0.025,-9.717,0.146,1.009,0.017,0.007,0.025,0.000,0.000,0.000,-0.000,0.669,0.007,0.743,0.0000000,0.0000000,0.000,0.000,0.000,0.000,0,00:00:00,-1020,0.000,0.000,91144.375,9.253,0.000,0.000,1.034,-9.760,0.062,-0.009,-0.000,0.008,0.000,0.000
25.485,0,0,-3.872,0.136,-8.043,-4.188,0.215,-12.432,-2.072,0.020,-9.631,0.000,0.000,0.0116870,0.000,9144.000,0.013,6.014,5.041,1.572,911.456,9.254,883.703,0.172,-9.795,-0.130,1.044,-0.037,-0.003,0.015,0.000,0.000,0.000,-0.006,0.669,0.005,0.743,0.0000000,0.0000000,0.000,0.000,0.000,0.000,0,00:00:00,-1020,0.000,0.000,91148.625,9.255,0.000,0.000,0.995,-9.693,0.017,0.001,0.007,0.003,0.000,0.000
25.586,0,0,-3.888,0.143,-8.026,-4.172,0.223,-12.437,-1.957,0.153,-9.811,0.000,0.000,0.0116870,0.000,9144.000,0.013,6.059,5.198,1.572,911.469,9.254,883.584,0.073,-9.958,0.003,0.971,0.003,0.037,0.003,0.000,0.000,0.000,-0.005,0.671,0.006,0.741,0.0000000,0.0000000,0.000,0.000,0.000,0.000,0,00:00:00,-1020,0.000,0.000,91150.570,9.256,0.000,0.000,1.041,-9.700,-0.060,0.006,-0.011,0.003,0.000,0.000
25.687,0,0,-3.901,0.151,-8.004,-4.169,0.234,-12.403,-2.092,0.190,-9.454,0.000,0.000,0.0116870,0.000,9144.000,0.013,5.709,5.359,1.608,911.463,9.254,883.646,0.130,-9.625,0.020,1.073,-0.029,-0.029,-0.026,0.000,0.000,0.000,-0.006,0.668,0.006,0.744,0.0000000,0.0000000,0.000,0.000,0.000,0.000,0,00:00:00,-1020,0.000,0.000,91150.375,9.256,0.000,0.000,0.989,-9.672,0.043,-0.001,0.015,0.007,0.000,0.000
25.788,0,0,-3.913,0.158,-7.999,-4.169,0.234,-12.383,-2.117,0.091,-9.439,0.000,0.000,0.0116870,0.000,9144.000,0.013,6.117,5.523,1.645,911.477,9.255,883.516,0.009,-9.614,-0.047,1.075,0.030,-0.004,-0.010,0.000,0.000,0.000,-0.006,0.667,0.004,0.745,0.0000000,0.0000000,0.000,0.000,0.000,0.000,0,00:00:00,-1020,0.000,0.000,91151.547,9.257,0.000,0.000,1.007,-9.792,0.052,0.009,-0.010,0.006,0.000,0.000
25.889,0,0,-3.922,0.165,-8.036,-4.144,0.244,-12.411,-1.875,0.180,-9.598,0.000,0.000,0.0116870,0.000,9144.000,0.013,6.261,5.690,1.666,911.506,9.256,883.254,-0.288,-9.739,0.087,0.901,0.054,0.001,-0.004,0.000,0.000,0.000,-0.002,0.671,0.004,0.742,0.0000000,0.0000000,0.000,0.000,0.000,0.000,0,00:00:00,-1020,0.000,0.000,91142.328,9.252,0.000,0.000,1.078,-9.767,0.077,0.015,0.013,0.009,0.000,0.000
25.990,0,0,-3.928,0.171,-8.046,-4.146,0.249,-12.421,-2.138,0.145,-9.640,0.000,0.000,0.0116870,0.000,9144.000,0.013,5.771,5.858,1.683,911.487,9.255,883.419,-0.117,-9.813,0.063,1.109,0.015,0.018,-0.001,0.000,0.000,0.000,-0.001,0.669,0.004,0.743,0.0000000,0.0000000,0.000,0.000,0.000,0.000,0,00:00:00,-1020,0.000,0.000,91144.031,9.253,0.000,0.000,1.003,-9.769,0.020,0.003,-0.008,-0.015,0.000,0.000
26.091,0,0,-3.934,0.178,-8.024,-4.139,0.245,-12.402,-2.048,0.059,-9.607,0.000,0.000,0.0116870,0.000,9144.000,0.013,6.058,6.028,1.703,911.461,9.254,883.661,0.115,-9.770,-0.006,1.018,0.013,-0.029,-0.004,0.000,0.000,0.000,-0.001,0.669,0.003,0.744,0.0000000,0.0000000,0.000,0.000,0.000,0.000,0,00:00:00,-1020,0.000,0.000,91144.742,9.253,0.000,0.000,1.074,-9.756,-0.011,-0.019,0.008,-0.042,0.000,0.000
26.192,0,0,-3.939,0.183,-8.007,-4.133,0.240,-12.388,-2.051,0.045,-9.607,0.000,0.000,0.0116870,0.000,9144.000,0.013,6.086,6.201,1.723,911.461,9.254,883.661,0.086,-9.770,-0.006,1.018,0.013,-0.029,-0.004,0.000,0.000,0.000,-0.002,0.668,0.002,0.744,0.0000000,0.0000000,0.000,0.000,0.000,0.000,0,00:00:00,-1020,0.000,0.000,91144.742,9.253,0.000,0.000,1.074,-9.756,-0.011,-0.019,0.008,-0.042,0.000,0.000
26.293,0,0,-3.944,0.188,-8.017,-4.138,0.249,-12.407,-2.158,0.191,-9.731,0.000,0.000,0.0116870,0.000,9144.000,0.013,6.101,6.374,1.731,911.479,9.255,883.498,-0.088,-9.908,0.126,1.099,-0.005,0.012,-0.000,0.000,0.000,0.000,0.001,0.668,0.004,0.744,0.0000000,0.0000000,0.000,0.000,0.000,0.000,0,00:00:00,-1020,0.000,0.000,91145.750,9.254,0.000,0.000,1.035,-9.675,0.072,0.001,-0.011,0.005,0.000,0.000
26.394,0,0,-3.949,0.192,-8.015,-4.158,0.228,-12.403,-2.308,-0.102,-9.598,0.000,0.000,0.0116870,0.000,9144.000,0.013,6.179,6.549,1.753,911.469,9.254,883.586,-0.011,-9.799,-0.132,1.195,0.018,-0.002,-0.031,0.000,0.000,0.000,-0.003,0.665,-0.000,0.746,0.0000000,0.0000000,0.000,0.000,0.000,0.000,0,00:00:00,-1020,0.000,0.000,91146.648,9.254,0.000,0.000,1.056,-9.759,-0.012,-0.013,-0.009,0.008,0.000,0.000
26.495,0,0,-3.956,0.194,-8.016,-4.181,0.205,-12.400,-2.340,-0.129,-9.590,0.000,0.000,0.0116870,0.000,9144.000,0.014,6.571,6.727,1.775,911.469,9.254,883.586,-0.027,-9.799,-0.132,1.195,0.018,-0.002,-0.031,0.000,0.000,0.000,-0.004,0.664,-0.003,0.748,0.0000000,0.0000000,0.000,0.000,0.000,0.000,0,00:00:00,-1020,0.000,0.000,91146.648,9.254,0.000,0.000,1.056,-9.759,-0.012,-0.013,-0.009,0.008,0.000,0.000
26.596,0,0,-3.962,0.193,-8.034,-4.155,0.178,-12.409,-1.851,-0.160,-9.575,0.000,0.000,0.0116870,0.000,9144.000,0.013,6.767,6.906,1.798,911.483,9.255,883.461,-0.155,-9.714,-0.146,0.863,0.020,0.017,-0.008,0.000,0.000,0.000,-0.005,0.670,-0.004,0.742,0.0000000,0.0000000,0.000,0.000,0.000,0.000,0,00:00:00,-1020,0.000,0.000,91154.711,9.259,0.000,0.000,1.002,-9.781,-0.003,-0.007,0.015,-0.009,0.000,0.000
26.697,0,0,-3.967,0.190,-8.033,-4.147,0.165,-12.400,-2.034,-0.034,-9.540,0.000,0.000,0.0116870,0.000,9144.000,0.013,5.873,7.089,1.825,911.471,9.254,883.566,-0.036,-9.698,-0.030,1.043,-0.011,0.039,-0.017,0.000,0.000,0.000,-0.003,0.670,-0.003,0.743,0.0000000,0.0000000,0.000,0.000,0.000,0.000,0,00:00:00,-1020,0.000,0.000,91149.328,9.256,0.000,0.000,1.033,-9.842,-0.013,0.015,0.023,-0.005,0.000,0.000
26.798,0,0,-3.970,0.187,-7.999,-4.127,0.159,-12.370,-1.900,0.039,-9.582,0.000,0.000,0.0116870,0.000,9144.000,0.013,5.895,7.274,1.848,911.448,9.253,883.774,0.201,-9.723,0.020,0.949,-0.022,0.032,-0.031,0.000,0.000,0.000,-0.003,0.671,-0.001,0.741,0.0000000,0.0000000,0.000,0.000,0.000,0.000,0,00:00:00,-1020,0.000,0.000,91152.195,9.257,0.000,0.000,1.051,-9.688,0.015,-0.011,0.010,-0.008,0.000,0.000
26.899,0,0,-3.972,0.184,-8.016,-4.113,0.152,-12.367,-1.970,0.035,-9.445,0.000,0.000,0.0116870,0.000,9144.000,0.013,5.641,7.462,1.884,911.492,9.256,883.379,-0.160,-9.596,-0.003,1.001,-0.018,-0.011,0.003,0.000,0.000,0.000,-0.002,0.670,0.001,0.742,0.0000000,0.0000000,0.000,0.000,0.000,0.000,0,00:00:00,-1020,0.000,0.000,91140.414,9.250,0.000,0.000,1.005,-9.698,0.049,0.010,0.003,0.000,0.000,0.000
27.000,0,0,-3.973,0.180,-8.030,-4.102,0.148,-12.362,-1.985,0.053,-9.442,0.000,0.000,0.0116870,0.000,9144.000,0.013,5.828,7.654,1.921,911.492,9.256,883.379,-0.150,-9.596,-0.003,1.001,-0.018,-0.011,0.003,0.000,0.000,0.000,-0.003,0.670,0.002,0.743,0.0000000,0.0000000,0.000,0.000,0.000,0.000,0,00:00:00,-1020,0.000,0.000,91140.414,9.250,0.000,0.000,1.005,-9.698,0.049,0.010,0.003,0.000,0.000,0.000
27.101,0,0,-3.974,0.177,-8.014,-4.113,0.155,-12.342,-2.209,0.166,-9.512,0.000,0.000,0.0116870,0.000,9144.000,0.014,5.921,7.849,1.951,911.471,9.254,883.568,0.041,-9.700,0.076,1.135,-0.027,-0.035,0.011,0.000,0.000,0.000,-0.002,0.667,0.004,0.745,0.0000000,0.0000000,0.000,0.000,0.000,0.000,0,00:00:00,-1020,0.000,0.000,91136.375,9.248,0.000,0.000,0.989,-9.740,0.023,-0.001,-0.003,0.005,0.000,0.000
27.202,0,0,-3.975,0.175,-8.035,-4.103,0.160,-12.377,-1.996,0.135,-9.790,0.000,0.000,0.0116870,0.000,9144.000,0.014,6.400,8.045,1.953,911.496,9.256,883.343,-0.204,-9.945,0.048,0.970,-0.004,0.011,-0.053,0.000,0.000,0.000,-0.002,0.669,0.004,0.743,0.0000000,0.0000000,0.000,0.000,0.000,0.000,0,00:00:00,-1020,0.000,0.000,91141.922,9.251,0.000,0.000,0.955,-9.711,0.122,-0.014,0.006,0.002,0.000,0.000
27.303,0,0,-3.975,0.174,-8.012,-4.103,0.178,-12.358,-2.094,0.270,-9.592,0.000,0.000,0.0116870,0.000,9144.000,0.014,5.953,8.242,1.975,911.462,9.254,883.646,0.102,-9.763,0.123,1.062,-0.059,-0.010,-0.008,0.000,0.000,0.000,-0.002,0.668,0.007,0.744,0.0000000,0.0000000,0.000,0.000,0.000,0.000,0,00:00:00,-1020,0.000,0.000,91147.734,9.255,0.000,0.000,0.986,-9.751,0.025,0.003,-0.007,0.007,0.000,0.000
27.404,0,0,-3.975,0.174,-7.990,-4.074,0.184,-12.359,-1.811,0.155,-9.771,0.000,0.000,0.0116870,0.000,9144.000,0.013,6.111,8.440,1.979,911.461,9.254,883.659,0.107,-9.901,0.016,0.867,0.008,0.020,0.012,0.000,0.000,0.000,-0.003,0.672,0.007,0.740,0.0000000,0.0000000,0.000,0.000,0.000,0.000,0,00:00:00,-1020,0.000,0.000,91156.219,9.260,0.000,0.000,1.032,-9.683,-0.074,-0.003,0.007,0.008,0.000,0.000
27.505,0,0,-3.972,0.174,-7.993,-4.046,0.181,-12.356,-1.811,0.066,-9.550,0.000,0.000,0.0116870,0.000,9144.000,0.013,5.501,8.640,2.005,911.479,9.255,883.493,-0.048,-9.677,-0.069,0.914,0.004,0.037,0.056,0.000,0.000,0.000,-0.004,0.673,0.006,0.739,0.0000000,0.0000000,0.000,0.000,0.000,0.000,0,00:00:00,-1020,0.000,0.000,91154.008,9.259,0.000,0.000,0.977,-9.711,0.098,-0.003,-0.005,0.008,0.000,0.000
27.606,0,0,-3.969,0.174,-8.003,-4.054,0.177,-12.371,-2.163,0.050,-9.672,0.000,0.000,0.0116870,0.000,9144.000,0.013,5.343,8.842,2.018,911.487,9.255,883.425,-0.104,-9.843,-0.093,1.154,-0.012,0.034,0.003,0.000,0.000,0.000,-0.006,0.670,0.004,0.743,0.0000000,0.0000000,0.000,0.000,0.000,0.000,0,00:00:00,-1020,0.000,0.000,91138.969,9.250,0.000,0.000,1.085,-9.698,-0.034,0.005,0.001,0.004,0.000,0.000
27.707,0,0,-3.966,0.174,-7.971,-4.032,0.187,-12.361,-1.871,0.191,-9.744,0.000,0.000,0.0116870,0.000,9144.000,0.013,5.917,9.045,2.025,911.455,9.253,883.714,0.193,-9.882,0.064,0.906,0.021,-0.018,-0.011,0.000,0.000,0.000,-0.004,0.672,0.005,0.741,0.0000000,0.0000000,0.000,0.000,0.000,0.000,0,00:00:00,-1020,0.000,0.000,91147.008,9.254,0.000,0.000,1.048,-9.756,-0.027,-0.006,0.020,0.015,0.000,0.000
27.808,0,0,-3.961,0.175,-8.003,-4.007,0.180,-12.383,-1.832,0.018,-9.576,0.000,0.000,0.0116870,0.000,9144.000,0.013,5.630,9.250,2.049,911.500,9.256,883.307,-0.240,-9.708,-0.065,0.894,0.042,-0.043,0.012,0.000,0.000,0.000,-0.004,0.672,0.003,0.741,0.0000000,0.0000000,0.000,0.000,0.000,0.000,0,00:00:00,-1020,0.000,0.000,91147.281,9.255,0.000,0.000,1.065,-9.696,0.126,0.009,0.000,-0.003,0.000,0.000
27.909,0,0,-3.956,0.175,-8.032,-4.013,0.182,-12.400,-2.143,0.114,-9.577,0.000,0.000,0.0116870,0.000,9144.000,0.013,5.568,9.457,2.072,911.498,9.256,883.324,-0.235,-9.749,-0.003,1.126,-0.034,0.019,0.007,0.000,0.000,0.000,-0.004,0.669,0.004,0.743,0.0000000,0.0000000,0.000,0.000,0.000,0.000,0,00:00:00,-1020,0.000,0.000,91150.539,9.256,0.000,0.000,1.057,-9.713,-0.065,0.004,0.000,0.020,0.000,0.000
28.010,0,0,-3.953,0.175,-8.043,-4.053,0.183,-12.419,-2.464,0.099,-9.740,0.000,0.000,0.0116870,0.000,9144.000,0.014,6.024,9.665,2.079,911.486,9.255,883.434,-0.122,-9.963,-0.017,1.301,0.004,-0.009,0.002,0.000,0.000,0.000,-0.004,0.664,0.004,0.748,0.0000000,0.0000000,0.000,0.000,0.000,0.000,0,00:00:00,-1020,0.000,0.000,91152.539,9.258,0.000,0.000,1.077,-9.747,0.018,-0.007,-0.003,0.015,0.000,0.000
28.111,0,0,-3.953,0.174,-8.014,-4.054,0.160,-12.390,-2.086,-0.139,-9.568,0.000,0.000,0.0116870,0.000,9144.000,0.014,6.756,9.875,2.103,911.456,9.254,883.707,0.161,-9.737,-0.249,1.024,-0.009,0.024,-0.002,0.000,0.000,0.000,-0.009,0.667,0.000,0.745,0.0000000,0.0000000,0.000,0.000,0.000,0.000,0,00:00:00,-1020,0.000,0.000,91154.492,9.259,0.000,0.000,1.002,-9.729,-0.041,-0.006,0.002,0.003,0.000,0.000
28.212,0,0,-3.953,0.174,-7.994,-4.063,0.179,-12.388,-2.166,0.281,-9.748,0.000,0.000,0.0116870,0.000,9144.000,0.014,6.310,10.086,2.109,911.465,9.254,883.625,0.110,-9.931,0.152,1.072,-0.007,-0.045,-0.029,0.000,0.000,0.000,-0.005,0.667,0.005,0.745,0.0000000,0.0000000,0.000,0.000,0.000,0.000,0,00:00:00,-1020,0.000,0.000,91147.516,9.255,0.000,0.000,1.045,-9.737,-0.047,0.006,-0.007,0.001,0.000,0.000
28.313,0,0,-3.954,0.174,-7.974,-4.065,0.195,-12.359,-2.100,0.257,-9.469,0.000,0.000,0.0116870,0.000,9144.000,0.014,6.364,10.300,2.143,911.462,9.254,883.648,0.119,-9.644,0.136,1.056,0.011,0.016,-0.011,0.000,0.000,0.000,-0.002,0.667,0.006,0.745,0.0000000,0.0000000,0.000,0.000,0.000,0.000,0,00:00:00,-1020,0.000,0.000,91149.758,9.256,0.000,0.000,0.929,-9.813,0.014,-0.014,0.011,-0.001,0.000,0.000
28.414,0,0,-3.956,0.176,-8.000,-4.094,0.207,-12.382,-2.362,0.203,-9.640,0.000,0.000,0.0116870,0.000,9144.000,0.014,6.260,10.516,2.160,911.497,9.256,883.337,-0.199,-9.850,0.082,1.233,0.009,0.019,0.023,0.000,0.000,0.000,-0.001,0.665,0.007,0.747,0.0000000,0.0000000,0.000,0.000,0.000,0.000,0,00:00:00,-1020,0.000,0.000,91150.164,9.256,0.000,0.000,0.964,-9.732,0.054,-0.000,-0.007,0.002,0.000,0.000
28.515,0,0,-3.961,0.179,-8.023,-4.126,0.217,-12.401,-2.394,0.198,-9.632,0.000,0.000,0.0116870,0.000,9144.000,0.014,6.642,10.734,2.178,911.497,9.256,883.337,-0.190,-9.850,0.082,1.233,0.009,0.019,0.023,0.000,0.000,0.000,0.000,0.664,0.007,0.748,0.0000000,0.0000000,0.000,0.000,0.000,0.000,0,00:00:00,-1020,0.000,0.000,91150.164,9.256,0.000,0.000,0.964,-9.732,0.054,-0.000,-0.007,0.002,0.000,0.000
28.616,0,0,-3.968,0.182,-8.017,-4.138,0.208,-12.379,-2.201,0.010,-9.448,0.000,0.000,0.0116870,0.000,9144.000,0.014,6.833,10.955,2.214,911.476,9.255,883.525,0.002,-9.639,-0.078,1.093,0.018,0.002,0.015,0.000,0.000,0.000,-0.002,0.665,0.004,0.747,0.0000000,0.0000000,0.000,0.000,0.000,0.000,0,00:00:00,-1020,0.000,0.000,91157.828,9.261,0.000,0.000,1.027,-9.643,0.031,-0.003,-0.002,0.009,0.000,0.000
28.717,0,0,-3.974,0.184,-8.032,-4.145,0.215,-12.392,-2.156,0.165,-9.630,0.000,0.000,0.0116870,0.000,9144.000,0.014,6.646,11.179,2.232,911.492,9.256,883.381,-0.158,-9.811,0.081,1.068,0.015,0.007,0.031,0.000,0.000,0.000,-0.000,0.666,0.005,0.746,0.0000000,0.0000000,0.000,0.000,0.000,0.000,0,00:00:00,-1020,0.000,0.000,91159.289,9.262,0.000,0.000,1.063,-9.680,0.078,-0.002,-0.010,0.005,0.000,0.000
28.818,0,0,-3.979,0.186,-7.995,-4.113,0.195,-12.357,-1.774,-0.101,-9.544,0.000,0.000,0.0116870,0.000,9144.000,0.014,6.410,11.405,2.259,911.456,9.254,883.703,0.211,-9.672,-0.174,0.827,-0.000,0.000,0.006,0.000,0.000,0.000,-0.005,0.671,0.001,0.741,0.0000000,0.0000000,0.000,0.000,0.000,0.000,0,00:00:00,-1020,0.000,0.000,91151.852,9.257,0.000,0.000,1.016,-9.751,0.040,-0.004,0.001,-0.005,0.000,0.000
28.919,0,0,-3.981,0.186,-7.973,-4.088,0.187,-12.335,-1.849,0.013,-9.542,0.000,0.000,0.0116870,0.000,9144.000,0.014,5.648,11.633,2.286,911.467,9.254,883.605,0.119,-9.675,-0.082,0.926,-0.022,0.020,0.028,0.000,0.000,0.000,-0.006,0.672,0.002,0.740,0.0000000,0.0000000,0.000,0.000,0.000,0.000,0,00:00:00,-1020,0.000,0.000,91149.000,9.256,0.000,0.000,1.023,-9.681,-0.037,0.009,-0.028,0.007,0.000,0.000
29.020,0,0,-3.981,0.186,-7.970,-4.060,0.199,-12.343,-1.811,0.215,-9.679,0.000,0.000,0.0116870,0.000,9144.000,0.014,5.500,11.863,2.299,911.481,9.255,883.482,-0.009,-9.808,0.082,0.902,-0.031,0.013,0.006,0.000,0.000,0.000,-0.004,0.673,0.005,0.739,0.0000000,0.0000000,0.000,0.000,0.000,0.000,0,00:00:00,-1020,0.000,0.000,91146.391,9.254,0.000,0.000,1.025,-9.757,-0.037,-0.000,-0.009,0.003,0.000,0.000
29.121,0,0,-3.978,0.187,-7.921,-4.044,0.207,-12.324,-1.931,0.183,-9.764,0.000,0.000,0.0116870,0.000,9144.000,0.014,5.341,12.093,2.303,911.441,9.253,883.843,0.338,-9.906,0.047,0.988,0.005,0.007,0.023,0.000,0.000,0.000,-0.003,0.672,0.006,0.740,0.0000000,0.0000000,0.000,0.000,0.000,0.000,0,00:00:00,-1020,0.000,0.000,91141.477,9.251,0.000,0.000,1.037,-9.711,0.001,0.006,-0.007,-0.017,0.000,0.000
29.222,0,0,-3.974,0.188,-7.946,-4.019,0.197,-12.349,-1.844,-0.005,-9.630,0.000,0.000,0.0116870,0.000,9144.000,0.014,5.498,12.325,2.321,911.493,9.256,883.368,-0.165,-9.761,-0.112,0.918,0.017,-0.010,-0.016,0.000,0.000,0.000,-0.005,0.673,0.003,0.740,0.0000000,0.0000000,0.000,0.000,0.000,0.000,0,00:00:00,-1020,0.000,0.000,91151.031,9.257,0.000,0.000,1.060,-9.772,-0.042,-0.006,-0.006,-0.001,0.000,0.000
29.323,0,0,-3.969,0.189,-7.979,-4.015,0.213,-12.374,-2.039,0.257,-9.593,0.000,0.000,0.0116870,0.000,9144.000,0.014,5.464,12.560,2.343,911.500,9.256,883.306,-0.227,-9.752,0.142,1.062,0.003,0.018,0.006,0.000,0.000,0.000,-0.002,0.671,0.006,0.742,0.0000000,0.0000000,0.000,0.000,0.000,0.000,0,00:00:00,-1020,0.000,0.000,91150.273,9.256,0.000,0.000,0.963,-9.809,-0.010,0.004,-0.011,-0.008,0.000,0.000
29.424,0,0,-3.964,0.192,-8.005,-4.013,0.229,-12.391,-2.065,0.260,-9.588,0.000,0.000,0.0116870,0.000,9144.000,0.014,5.788,12.796,2.365,911.500,9.256,883.306,-0.195,-9.752,0.142,1.062,0.003,0.018,0.006,0.000,0.000,0.000,0.000,0.669,0.007,0.743,0.0000000,0.0000000,0.000,0.000,0.000,0.000,0,00:00:00,-1020,0.000,0.000,91150.273,9.256,0.000,0.000,0.963,-9.809,-0.010,0.004,-0.011,-0.008,0.000,0.000
29.525,0,0,-3.959,0.195,-8.019,-4.007,0.238,-12.387,-2.026,0.191,-9.477,0.000,0.000,0.0116870,0.000,9144.000,0.014,5.950,13.036,2.398,911.494,9.256,883.357,-0.129,-9.638,0.077,1.026,-0.002,0.004,-0.013,0.000,0.000,0.000,-0.001,0.669,0.007,0.743,0.0000000,0.0000000,0.000,0.000,0.000,0.000,0,00:00:00,-1020,0.000,0.000,91145.523,9.254,0.000,0.000,0.935,-9.727,-0.021,0.014,0.007,-0.001,0.000,0.000
29.626,0,0,-3.956,0.198,-8.007,-4.032,0.230,-12.368,-2.326,0.029,-9.501,0.000,0.000,0.0116870,0.000,9144.000,0.014,6.000,13.279,2.429,911.475,9.255,883.532,0.036,-9.706,-0.040,1.217,0.047,-0.014,0.027,0.000,0.000,0.000,-0.001,0.665,0.004,0.747,0.0000000,0.0000000,0.000,0.000,0.000,0.000,0,00:00:00,-1020,0.000,0.000,91139.531,9.250,0.000,0.000,0.964,-9.696,-0.009,0.023,-0.010,0.002,0.000,0.000
29.727,0,0,-3.955,0.201,-8.040,-4.056,0.236,-12.387,-2.309,0.160,-9.554,0.000,0.000,0.0116870,0.000,9144.000,0.014,6.611,13.525,2.455,911.513,9.257,883.187,-0.276,-9.759,0.079,1.183,-0.006,0.027,0.019,0.000,0.000,0.000,0.000,0.665,0.005,0.747,0.0000000,0.0000000,0.000,0.000,0.000,0.000,0,00:00:00,-1020,0.000,0.000,91151.734,9.257,0.000,0.000,1.006,-9.726,0.079,0.013,0.013,-0.001,0.000,0.000
29.828,0,0,-3.954,0.204,-7.972,-4.043,0.239,-12.329,-1.955,0.144,-9.541,0.000,0.000,0.0116870,0.000,9144.000,0.014,6.684,13.773,2.482,911.433,9.252,883.916,0.414,-9.697,0.058,0.919,-0.003,-0.042,0.034,0.000,0.000,0.000,0.000,0.668,0.006,0.744,0.0000000,0.0000000,0.000,0.000,0.000,0.000,0,00:00:00,-1020,0.000,0.000,91158.062,9.261,0.000,0.000,1.016,-9.717,-0.022,0.003,0.008,0.007,0.000,0.000
29.929,0,0,-3.953,0.207,-7.910,-4.034,0.255,-12.287,-1.984,0.261,-9.609,0.000,0.000,0.0116870,0.000,9144.000,0.014,6.170,14.023,2.502,911.430,9.252,883.942,0.412,-9.766,0.138,0.974,-0.033,-0.018,0.002,0.000,0.000,0.000,0.000,0.669,0.008,0.743,0.0000000,0.0000000,0.000,0.000,0.000,0.000,0,00:00:00,-1020,0.000,0.000,91144.195,9.253,0.000,0.000,1.040,-9.722,-0.053,-0.004,0.009,-0.016,0.000,0.000
30.030,0,0,-3.950,0.211,-7.914,-4.018,0.259,-12.283,-1.918,0.154,-9.474,0.000,0.000,0.0116870,0.000,9144.000,0.014,5.984,14.276,2.535,911.478,9.255,883.505,-0.030,-9.621,0.035,0.952,0.000,0.005,0.019,0.000,0.000,0.000,-0.001,0.670,0.007,0.742,0.0000000,0.0000000,0.000,0.000,0.000,0.000,0,00:00:00,-1020,0.000,0.000,91155.734,9.260,0.000,0.000,1.019,-9.823,-0.039,0.002,-0.017,-0.000,0.000,0.000
30.131,0,0,-3.947,0.215,-7.920,-4.000,0.263,-12.281,-1.904,0.154,-9.477,0.000,0.000,0.0116870,0.000,9144.000,0.014,5.803,14.533,2.569,911.478,9.255,883.505,-0.044,-9.621,0.035,0.952,0.000,0.005,0.019,0.000,0.000,0.000,-0.001,0.671,0.007,0.741,0.0000000,0.0000000,0.000,0.000,0.000,0.000,0,00:00:00,-1020,0.000,0.000,91155.734,9.260,0.000,0.000,1.019,-9.823,-0.039,0.002,-0.017,-0.000,0.000,0.000
30.232,0,0,-3.941,0.220,-7.930,-3.972,0.270,-12.290,-1.790,0.187,-9.546,0.000,0.000,0.0116870,0.000,9144.000,0.014,5.713,14.793,2.595,911.485,9.255,883.441,-0.082,-9.675,0.066,0.869,0.000,-0.027,0.020,0.000,0.000,0.000,-0.001,0.672,0.007,0.740,0.0000000,0.0000000,0.000,0.000,0.000,0.000,0,00:00:00,-1020,0.000,0.000,91149.617,9.256,0.000,0.000,0.933,-9.797,0.024,0.003,-0.010,0.020,0.000,0.000
30.333,0,0,-3.934,0.223,-7.916,-3.964,0.255,-12.286,-1.988,-0.030,-9.612,0.000,0.000,0.0116870,0.000,9144.000,0.014,5.499,15.054,2.615,911.470,9.254,883.574,0.085,-9.760,-0.184,1.027,-0.048,0.025,-0.009,0.000,0.000,0.000,-0.008,0.671,0.004,0.741,0.0000000,0.0000000,0.000,0.000,0.000,0.000,0,00:00:00,-1020,0.000,0.000,91147.430,9.255,0.000,0.000,1.069,-9.789,-0.081,-0.006,0.018,0.001,0.000,0.000
30.434,0,0,-3.927,0.225,-7.928,-3.950,0.248,-12.277,-1.933,0.049,-9.349,0.000,0.000,0.0116870,0.000,9144.000,0.014,5.681,15.320,2.661,911.491,9.256,883.386,-0.100,-9.496,-0.088,0.978,0.011,-0.005,-0.013,0.000,0.000,0.000,-0.008,0.670,0.003,0.742,0.0000000,0.0000000,0.000,0.000,0.000,0.000,0,00:00:00,-1020,0.000,0.000,91141.133,9.251,0.000,0.000,0.955,-9.729,0.097,0.005,0.005,-0.002,0.000,0.000
30.535,0,0,-3.920,0.226,-7.939,-3.938,0.240,-12.267,-1.942,0.036,-9.347,0.000,0.000,0.0116870,0.000,9144.000,0.014,5.797,15.591,2.707,911.491,9.256,883.386,-0.102,-9.496,-0.088,0.978,0.011,-0.005,-0.013,0.000,0.000,0.000,-0.008,0.670,0.002,0.742,0.0000000,0.0000000,0.000,0.000,0.000,0.000,0,00:00:00,-1020,0.000,0.000,91141.133,9.251,0.000,0.000,0.955,-9.729,0.097,0.005,0.005,-0.002,0.000,0.000
30.636,0,0,-3.913,0.227,-7.925,-3.954,0.249,-12.239,-2.211,0.208,-9.344,0.000,0.000,0.0116870,0.000,9144.000,0.014,5.855,15.867,2.754,911.474,9.255,883.544,0.056,-9.532,0.098,1.168,0.024,0.032,-0.001,0.000,0.000,0.000,-0.004,0.667,0.004,0.745,0.0000000,0.0000000,0.000,0.000,0.000,0.000,0,00:00:00,-1020,0.000,0.000,91144.492,9.253,0.000,0.000,1.061,-9.666,0.051,-0.008,0.012,-0.004,0.000,0.000
30.737,0,0,-3.909,0.229,-7.907,-3.973,0.256,-12.210,-2.249,0.191,-9.335,0.000,0.000,0.0116870,0.000,9144.000,0.014,6.330,16.147,2.801,911.474,9.255,883.544,0.075,-9.532,0.098,1.168,0.024,0.032,-0.001,0.000,0.000,0.000,-0.001,0.665,0.005,0.746,0.0000000,0.0000000,0.000,0.000,0.000,0.000,0,00:00:00,-1020,0.000,0.000,91144.492,9.253,0.000,0.000,1.061,-9.666,0.051,-0.008,0.012,-0.004,0.000,0.000
30.838,0,0,-3.905,0.231,-7.894,-3.970,0.252,-12.202,-2.019,0.081,-9.506,0.000,0.000,0.0116870,0.000,9144.000,0.015,6.567,16.430,2.832,911.474,9.255,883.540,0.050,-9.668,-0.010,0.990,-0.004,0.022,-0.016,0.000,0.000,0.000,-0.003,0.668,0.004,0.744,0.0000000,0.0000000,0.000,0.000,0.000,0.000,0,00:00:00,-1020,0.000,0.000,91138.711,9.249,0.000,0.000,0.999,-9.752,-0.054,0.004,0.012,-0.012,0.000,0.000
30.939,0,0,-3.902,0.232,-7.871,-3.973,0.238,-12.212,-2.078,-0.017,-9.746,0.000,0.000,0.0116870,0.000,9144.000,0.015,6.143,16.714,2.838,911.461,9.254,883.659,0.135,-9.910,-0.096,1.045,0.006,0.023,-0.017,0.000,0.000,0.000,-0.005,0.669,0.002,0.743,0.0000000,0.0000000,0.000,0.000,0.000,0.000,0,00:00:00,-1020,0.000,0.000,91145.133,9.253,0.000,0.000,1.039,-9.693,-0.072,0.007,0.005,-0.009,0.000,0.000
31.040,0,0,-3.900,0.231,-7.853,-3.974,0.223,-12.224,-2.067,-0.028,-9.749,0.000,0.000,0.0116870,0.000,9144.000,0.015,6.017,16.998,2.844,911.461,9.254,883.659,0.133,-9.910,-0.096,1.045,0.006,0.023,-0.017,0.000,0.000,0.000,-0.006,0.669,0.000,0.743,0.0000000,0.0000000,0.000,0.000,0.000,0.000,0,00:00:00,-1020,0.000,0.000,91145.133,9.253,0.000,0.000,1.039,-9.693,-0.072,0.007,0.005,-0.009,0.000,0.000
31.141,0,0,-3.897,0.230,-7.845,-3.976,0.220,-12.242,-2.070,0.091,-9.743,0.000,0.000,0.0116870,0.000,9144.000,0.015,5.954,17.283,2.851,911.470,9.254,883.579,0.086,-9.906,0.014,1.050,-0.003,0.023,0.011,0.000,0.000,0.000,-0.004,0.670,0.002,0.743,0.0000000,0.0000000,0.000,0.000,0.000,0.000,0,00:00:00,-1020,0.000,0.000,91141.797,9.251,0.000,0.000,0.968,-9.683,0.035,-0.007,0.013,-0.003,0.000,0.000
31.242,0,0,-3.895,0.227,-7.849,-3.957,0.202,-12.268,-1.854,-0.059,-9.737,0.000,0.000,0.0116870,0.000,9144.000,0.015,5.938,17.569,2.858,911.477,9.255,883.512,0.012,-9.872,-0.130,0.886,0.002,-0.042,0.002,0.000,0.000,0.000,-0.006,0.671,0.000,0.741,0.0000000,0.0000000,0.000,0.000,0.000,0.000,0,00:00:00,-1020,0.000,0.000,91152.000,9.257,0.000,0.000,0.976,-9.659,0.019,-0.005,-0.002,-0.003,0.000,0.000
31.343,0,0,-3.892,0.224,-7.860,-3.977,0.185,-12.284,-2.246,-0.045,-9.601,0.000,0.000,0.0116870,0.000,9144.000,0.015,5.655,17.857,2.879,911.478,9.255,883.505,-0.022,-9.789,-0.121,1.180,-0.006,-0.009,0.031,0.000,0.000,0.000,-0.006,0.667,0.000,0.745,0.0000000,0.0000000,0.000,0.000,0.000,0.000,0,00:00:00,-1020,0.000,0.000,91150.125,9.256,0.000,0.000,1.052,-9.786,-0.016,0.010,-0.005,-0.012,0.000,0.000
31.444,0,0,-3.892,0.219,-7.871,-4.002,0.170,-12.297,-2.299,-0.037,-9.589,0.000,0.000,0.0116870,0.000,9144.000,0.015,6.290,18.147,2.901,911.478,9.255,883.505,-0.030,-9.789,-0.121,1.180,-0.006,-0.009,0.031,0.000,0.000,0.000,-0.007,0.665,0.001,0.747,0.0000000,0.0000000,0.000,0.000,0.000,0.000,0,00:00:00,-1020,0.000,0.000,91150.125,9.256,0.000,0.000,1.052,-9.786,-0.016,0.010,-0.005,-0.012,0.000,0.000
31.545,0,0,-3.894,0.214,-7.882,-4.033,0.177,-12.310,-2.352,0.176,-9.596,0.000,0.000,0.0116870,0.000,9144.000,0.015,6.608,18.439,2.923,911.477,9.255,883.511,-0.027,-9.807,0.077,1.208,-0.003,0.025,0.009,0.000,0.000,0.000,-0.003,0.664,0.004,0.747,0.0000000,0.0000000,0.000,0.000,0.000,0.000,0,00:00:00,-1020,0.000,0.000,91137.242,9.249,0.000,0.000,1.017,-9.778,-0.013,0.008,0.004,0.010,0.000,0.000
31.646,0,0,-3.899,0.210,-7.908,-4.058,0.164,-12.319,-2.301,-0.015,-9.451,0.000,0.000,0.0116870,0.000,9144.000,0.015,6.745,18.735,2.958,911.490,9.256,883.393,-0.145,-9.658,-0.103,1.157,0.004,-0.021,0.000,0.000,0.000,0.000,-0.005,0.664,0.002,0.748,0.0000000,0.0000000,0.000,0.000,0.000,0.000,0,00:00:00,-1020,0.000,0.000,91151.195,9.257,0.000,0.000,1.020,-9.712,0.009,0.009,-0.017,-0.009,0.000,0.000
31.747,0,0,-3.905,0.204,-7.938,-4.066,0.150,-12.349,-2.133,-0.029,-9.647,0.000,0.000,0.0116870,0.000,9144.000,0.015,6.848,19.033,2.975,911.490,9.256,883.393,-0.181,-9.826,-0.108,1.026,0.010,-0.034,0.007,0.000,0.000,0.000,-0.006,0.666,0.001,0.746,0.0000000,0.0000000,0.000,0.000,0.000,0.000,0,00:00:00,-1020,0.000,0.000,91144.922,9.253,0.000,0.000,1.157,-9.712,0.018,0.009,0.002,0.007,0.000,0.000
31.848,0,0,-3.911,0.199,-7.914,-4.073,0.148,-12.329,-2.123,0.083,-9.560,0.000,0.000,0.0116870,0.000,9144.000,0.015,6.504,19.333,3.000,911.455,9.253,883.718,0.181,-9.737,-0.007,1.050,-0.011,-0.013,-0.014,0.000,0.000,0.000,-0.005,0.667,0.002,0.745,0.0000000,0.0000000,0.000,0.000,0.000,0.000,0,00:00:00,-1020,0.000,0.000,91145.266,9.253,0.000,0.000,1.022,-9.765,-0.004,0.000,-0.002,-0.009,0.000,0.000
31.949,0,0,-3.918,0.194,-7.935,-4.102,0.160,-12.345,-2.354,0.219,-9.582,0.000,0.000,0.0116870,0.000,9144.000,0.015,6.366,19.635,3.023,911.492,9.256,883.382,-0.126,-9.794,0.091,1.215,-0.028,-0.006,0.014,0.000,0.000,0.000,-0.003,0.664,0.006,0.747,0.0000000,0.0000000,0.000,0.000,0.000,0.000,0,00:00:00,-1020,0.000,0.000,91159.273,9.262,0.000,0.000,1.023,-9.842,-0.033,-0.008,0.002,0.017,0.000,0.000
32.050,0,0,-3.926,0.191,-7.955,-4.115,0.166,-12.362,-2.187,0.163,-9.604,0.000,0.000,0.0116870,0.000,9144.000,0.015,6.733,19.939,3.043,911.490,9.256,883.399,-0.124,-9.792,0.062,1.074,0.027,-0.027,-0.019,0.000,0.000,0.000,-0.002,0.665,0.005,0.746,0.0000000,0.0000000,0.000,0.000,0.000,0.000,0,00:00:00,-1020,0.000,0.000,91157.477,9.261,0.000,0.000,0.942,-9.774,0.061,0.008,0.002,0.010,0.000,0.000
32.151,0,0,-3.934,0.187,-7.949,-4.109,0.141,-12.354,-2.008,-0.151,-9.571,0.000,0.000,0.0116870,0.000,9144.000,0.015,6.574,20.246,3.067,911.470,9.254,883.582,0.051,-9.729,-0.215,0.977,0.023,0.010,-0.009,0.000,0.000,0.000,-0.006,0.668,-0.000,0.744,0.0000000,0.0000000,0.000,0.000,0.000,0.000,0,00:00:00,-1020,0.000,0.000,91149.992,9.256,0.000,0.000,1.002,-9.728,-0.014,0.007,-0.003,0.007,0.000,0.000
32.252,0,0,-3.939,0.183,-7.968,-4.071,0.152,-12.361,-1.696,0.206,-9.517,0.000,0.000,0.0116870,0.000,9144.000,0.015,6.125,20.555,3.096,911.489,9.255,883.406,-0.132,-9.635,0.127,0.794,-0.005,0.008,0.001,0.000,0.000,0.000,-0.002,0.673,0.004,0.740,0.0000000,0.0000000,0.000,0.000,0.000,0.000,0,00:00:00,-1020,0.000,0.000,91146.266,9.254,0.000,0.000,1.015,-9.734,-0.039,0.002,0.002,-0.006,0.000,0.000
32.353,0,0,-3.942,0.180,-7.959,-4.071,0.155,-12.355,-2.072,0.127,-9.602,0.000,0.000,0.0116870,0.000,9144.000,0.015,5.396,20.867,3.117,911.469,9.254,883.585,0.053,-9.764,0.030,1.073,-0.012,-0.026,0.033,0.000,0.000,0.000,-0.002,0.670,0.005,0.743,0.0000000,0.0000000,0.000,0.000,0.000,0.000,0,00:00:00,-1020,0.000,0.000,91146.109,9.254,0.000,0.000,0.976,-9.799,0.054,0.018,-0.014,0.020,0.000,0.000
32.454,0,0,-3.944,0.177,-7.953,-4.075,0.160,-12.351,-2.114,0.143,-9.592,0.000,0.000,0.0116870,0.000,9144.000,0.015,5.908,21.181,3.139,911.469,9.254,883.585,0.042,-9.764,0.030,1.073,-0.012,-0.026,0.033,0.000,0.000,0.000,-0.002,0.668,0.006,0.744,0.0000000,0.0000000,0.000,0.000,0.000,0.000,0,00:00:00,-1020,0.000,0.000,91146.109,9.254,0.000,0.000,0.976,-9.799,0.054,0.018,-0.014,0.020,0.000,0.000
32.555,0,0,-3.947,0.175,-7.969,-4.080,0.147,-12.355,-2.135,-0.038,-9.512,0.000,0.000,0.0116870,0.000,9144.000,0.015,6.164,21.498,3.169,911.485,9.255,883.438,-0.118,-9.685,-0.139,1.100,0.001,0.054,-0.002,0.000,0.000,0.000,-0.005,0.668,0.003,0.744,0.0000000,0.0000000,0.000,0.000,0.000,0.000,0,00:00:00,-1020,0.000,0.000,91138.641,9.249,0.000,0.000,1.042,-9.587,0.123,-0.006,-0.005,0.001,0.000,0.000
32.656,0,0,-3.949,0.172,-8.036,-4.042,0.146,-12.417,-1.692,0.078,-9.711,0.000,0.000,0.0116870,0.000,9144.000,0.015,6.169,21.816,3.179,911.528,9.258,883.052,-0.489,-9.827,-0.032,0.779,-0.005,0.000,0.005,0.000,0.000,0.000,-0.005,0.673,0.003,0.739,0.0000000,0.0000000,0.000,0.000,0.000,0.000,0,00:00:00,-1020,0.000,0.000,91141.297,9.251,0.000,0.000,1.119,-9.733,0.085,0.013,-0.008,0.017,0.000,0.000
32.757,0,0,-3.947,0.169,-8.021,-4.029,0.145,-12.396,-1.949,0.077,-9.550,0.000,0.000,0.0116870,0.000,9144.000,0.015,5.349,22.136,3.205,911.468,9.254,883.593,0.068,-9.695,-0.050,1.003,-0.017,0.001,0.024,0.000,0.000,0.000,-0.006,0.672,0.004,0.741,0.0000000,0.0000000,0.000,0.000,0.000,0.000,0,00:00:00,-1020,0.000,0.000,91156.000,9.260,0.000,0.000,1.077,-9.709,0.021,0.007,-0.002,-0.001,0.000,0.000
32.858,0,0,-3.945,0.166,-8.008,-4.018,0.145,-12.379,-1.972,0.095,-9.545,0.000,0.000,0.0116870,0.000,9144.000,0.015,5.625,22.459,3.231,911.468,9.254,883.593,0.050,-9.695,-0.050,1.003,-0.017,0.001,0.024,0.000,0.000,0.000,-0.006,0.671,0.005,0.742,0.0000000,0.0000000,0.000,0.000,0.000,0.000,0,00:00:00,-1020,0.000,0.000,91156.000,9.260,0.000,0.000,1.077,-9.709,0.021,0.007,-0.002,-0.001,0.000,0.000
32.959,0,0,-3.942,0.164,-7.992,-4.009,0.148,-12.360,-1.983,0.114,-9.542,0.000,0.000,0.0116870,0.000,9144.000,0.015,5.763,22.785,3.258,911.468,9.254,883.593,0.078,-9.695,-0.050,1.003,-0.017,0.001,0.024,0.000,0.000,0.000,-0.007,0.670,0.005,0.742,0.0000000,0.0000000,0.000,0.000,0.000,0.000,0,00:00:00,-1020,0.000,0.000,91156.000,9.260,0.000,0.000,1.077,-9.709,0.021,0.007,-0.002,-0.001,0.000,0.000
33.060,0,0,-3.939,0.163,-7.949,-4.011,0.170,-12.332,-2.091,0.297,-9.638,0.000,0.000,0.0116870,0.000,9144.000,0.015,5.832,23.113,3.275,911.449,9.253,883.764,0.274,-9.808,0.128,1.064,0.005,-0.014,-0.004,0.000,0.000,0.000,-0.004,0.669,0.008,0.743,0.0000000,0.0000000,0.000,0.000,0.000,0.000,0,00:00:00,-1020,0.000,0.000,91151.836,9.257,0.000,0.000,0.951,-9.766,-0.014,0.013,0.001,0.000,0.000,0.000
33.161,0,0,-3.937,0.165,-7.910,-4.015,0.191,-12.309,-2.108,0.295,-9.635,0.000,0.000,0.0116870,0.000,9144.000,0.015,6.051,23.442,3.293,911.449,9.253,883.764,0.274,-9.808,0.128,1.064,0.005,-0.014,-0.004,0.000,0.000,0.000,-0.002,0.668,0.009,0.744,0.0000000,0.0000000,0.000,0.000,0.000,0.000,0,00:00:00,-1020,0.000,0.000,91151.836,9.257,0.000,0.000,0.951,-9.766,-0.014,0.013,0.001,0.000,0.000,0.000
33.262,0,0,-3.934,0.167,-7.891,-4.001,0.203,-12.290,-1.935,0.211,-9.516,0.000,0.000,0.0116870,0.000,9144.000,0.015,6.160,23.774,3.322,911.464,9.254,883.631,0.151,-9.668,0.036,0.942,-0.017,-0.024,-0.019,0.000,0.000,0.000,-0.004,0.670,0.008,0.743,0.0000000,0.0000000,0.000,0.000,0.000,0.000,0,00:00:00,-1020,0.000,0.000,91147.961,9.255,0.000,0.000,1.022,-9.773,-0.016,0.005,0.003,-0.005,0.000,0.000
33.363,0,0,-3.930,0.170,-7.874,-3.974,0.205,-12.268,-1.793,0.109,-9.438,0.000,0.000,0.0116870,0.000,9144.000,0.015,5.932,24.110,3.359,911.464,9.254,883.630,0.143,-9.568,-0.065,0.870,-0.006,0.000,0.008,0.000,0.000,0.000,-0.006,0.672,0.007,0.741,0.0000000,0.0000000,0.000,0.000,0.000,0.000,0,00:00:00,-1020,0.000,0.000,91144.812,9.253,0.000,0.000,1.051,-9.664,-0.019,-0.006,-0.000,-0.017,0.000,0.000
33.464,0,0,-3.924,0.173,-7.899,-3.963,0.211,-12.289,-1.960,0.153,-9.556,0.000,0.000,0.0116870,0.000,9144.000,0.016,5.563,24.449,3.385,911.496,9.256,883.342,-0.154,-9.705,-0.005,0.996,0.019,-0.005,-0.004,0.000,0.000,0.000,-0.006,0.671,0.006,0.742,0.0000000,0.0000000,0.000,0.000,0.000,0.000,0,00:00:00,-1020,0.000,0.000,91148.312,9.255,0.000,0.000,1.033,-9.752,-0.025,0.000,0.009,-0.007,0.000,0.000
33.565,0,0,-3.919,0.177,-7.858,-3.972,0.226,-12.242,-2.149,0.237,-9.371,0.000,0.000,0.0116870,0.000,9144.000,0.016,5.726,24.792,3.429,911.447,9.253,883.791,0.302,-9.552,0.102,1.118,0.029,-0.017,0.008,0.000,0.000,0.000,-0.002,0.668,0.007,0.745,0.0000000,0.0000000,0.000,0.000,0.000,0.000,0,00:00:00,-1020,0.000,0.000,91143.508,9.252,0.000,0.000,1.019,-9.786,0.022,0.019,0.016,0.022,0.000,0.000
33.666,0,0,-3.916,0.181,-7.816,-3.994,0.234,-12.219,-2.278,0.171,-9.592,0.000,0.000,0.0116870,0.000,9144.000,0.016,6.247,25.137,3.450,911.448,9.253,883.780,0.326,-9.790,0.045,1.175,0.021,0.008,0.043,0.000,0.000,0.000,-0.001,0.666,0.007,0.746,0.0000000,0.0000000,0.000,0.000,0.000,0.000,0,00:00:00,-1020,0.000,0.000,91146.289,9.254,0.000,0.000,1.039,-9.794,-0.007,0.014,0.003,0.003,0.000,0.000
33.767,0,0,-3.913,0.186,-7.833,-3.987,0.244,-12.253,-1.983,0.203,-9.707,0.000,0.000,0.0116870,0.000,9144.000,0.016,6.522,25.483,3.461,911.488,9.255,883.415,-0.059,-9.863,0.078,0.952,-0.000,-0.008,0.006,0.000,0.000,0.000,-0.001,0.669,0.007,0.743,0.0000000,0.0000000,0.000,0.000,0.000,0.000,0,00:00:00,-1020,0.000,0.000,91147.195,9.254,0.000,0.000,1.011,-9.698,-0.006,0.010,0.013,0.018,0.000,0.000
33.868,0,0,-3.911,0.190,-7.852,-4.001,0.210,-12.276,-2.198,-0.238,-9.609,0.000,0.000,0.0116870,0.000,9144.000,0.016,6.040,25.831,3.481,911.491,9.256,883.389,-0.073,-9.789,-0.344,1.128,-0.001,-0.008,0.017,0.000,0.000,0.000,-0.009,0.667,0.000,0.745,0.0000000,0.0000000,0.000,0.000,0.000,0.000,0,00:00:00,-1020,0.000,0.000,91139.664,9.250,0.000,0.000,0.989,-9.770,-0.073,-0.015,-0.008,-0.002,0.000,0.000
33.969,0,0,-3.911,0.191,-7.826,-4.017,0.216,-12.264,-2.214,0.160,-9.607,0.000,0.000,0.0116870,0.000,9144.000,0.016,6.330,26.181,3.501,911.454,9.253,883.724,0.241,-9.795,0.048,1.129,0.001,0.019,-0.015,0.000,0.000,0.000,-0.006,0.667,0.003,0.745,0.0000000,0.0000000,0.000,0.000,0.000,0.000,0,00:00:00,-1020,0.000,0.000,91149.039,9.256,0.000,0.000,1.093,-9.774,0.046,0.017,0.009,0.008,0.000,0.000
34.070,0,0,-3.912,0.193,-7.805,-4.016,0.204,-12.246,-2.047,-0.018,-9.492,0.000,0.000,0.0116870,0.000,9144.000,0.016,6.398,26.534,3.533,911.452,9.253,883.737,0.218,-9.656,-0.129,1.020,-0.009,0.025,-0.025,0.000,0.000,0.000,-0.008,0.668,0.001,0.744,0.0000000,0.0000000,0.000,0.000,0.000,0.000,0,00:00:00,-1020,0.000,0.000,91157.094,9.260,0.000,0.000,1.035,-9.734,-0.039,0.006,-0.010,-0.001,0.000,0.000
34.171,0,0,-3.912,0.192,-7.785,-4.013,0.189,-12.233,-2.028,-0.043,-9.524,0.000,0.000,0.0116870,0.000,9144.000,0.016,6.141,26.890,3.562,911.450,9.253,883.761,0.224,-9.683,-0.113,1.023,0.041,0.033,-0.009,0.000,0.000,0.000,-0.007,0.669,-0.001,0.743,0.0000000,0.0000000,0.000,0.000,0.000,0.000,0,00:00:00,-1020,0.000,0.000,91153.328,9.258,0.000,0.000,1.013,-9.712,0.001,0.008,-0.000,0.015,0.000,0.000
34.272,0,0,-3.913,0.192,-7.822,-4.028,0.188,-12.259,-2.207,0.090,-9.490,0.000,0.000,0.0116870,0.000,9144.000,0.016,5.992,27.250,3.594,911.491,9.256,883.389,-0.171,-9.676,0.005,1.143,-0.014,0.007,-0.022,0.000,0.000,0.000,-0.006,0.667,0.001,0.745,0.0000000,0.0000000,0.000,0.000,0.000,0.000,0,00:00:00,-1020,0.000,0.000,91148.844,9.255,0.000,0.000,0.975,-9.733,-0.005,0.012,0.003,-0.010,0.000,0.000
34.373,0,0,-3.913,0.190,-7.845,-4.004,0.178,-12.282,-1.819,0.002,-9.570,0.000,0.000,0.0116870,0.000,9144.000,0.016,6.347,27.612,3.618,911.482,9.255,883.471,-0.094,-9.703,-0.099,0.856,-0.010,-0.009,0.036,0.000,0.000,0.000,-0.006,0.671,0.002,0.742,0.0000000,0.0000000,0.000,0.000,0.000,0.000,0,00:00:00,-1020,0.000,0.000,91155.109,9.259,0.000,0.000,0.971,-9.739,0.015,0.016,0.016,0.001,0.000,0.000
34.474,0,0,-3.911,0.189,-7.886,-3.990,0.190,-12.320,-1.920,0.215,-9.617,0.000,0.000,0.0116870,0.000,9144.000,0.016,5.721,27.975,3.637,911.499,9.256,883.316,-0.224,-9.761,0.111,0.962,0.003,0.004,-0.016,0.000,0.000,0.000,-0.003,0.671,0.004,0.741,0.0000000,0.0000000,0.000,0.000,0.000,0.000,0,00:00:00,-1020,0.000,0.000,91141.734,9.251,0.000,0.000,0.974,-9.733,0.023,-0.009,-0.000,-0.003,0.000,0.000
34.575,0,0,-3.909,0.189,-7.934,-3.980,0.186,-12.366,-1.955,0.056,-9.661,0.000,0.000,0.0116870,0.000,9144.000,0.016,5.664,28.340,3.652,911.503,9.256,883.280,-0.295,-9.807,-0.034,0.991,0.016,0.016,0.016,0.000,0.000,0.000,-0.003,0.671,0.003,0.741,0.0000000,0.0000000,0.000,0.000,0.000,0.000,0,00:00:00,-1020,0.000,0.000,91139.078,9.250,0.000,0.000,1.022,-9.690,0.014,0.018,-0.004,0.012,0.000,0.000
34.676,0,0,-3.905,0.189,-7.968,-3.957,0.203,-12.405,-1.825,0.269,-9.747,0.000,0.000,0.0116870,0.000,9144.000,0.016,5.671,28.706,3.658,911.485,9.255,883.440,-0.208,-9.876,0.196,0.907,0.026,0.029,-0.006,0.000,0.000,0.000,0.001,0.673,0.006,0.739,0.0000000,0.0000000,0.000,0.000,0.000,0.000,0,00:00:00,-1020,0.000,0.000,91146.641,9.254,0.000,0.000,0.980,-9.773,0.041,-0.011,0.007,-0.001,0.000,0.000
34.777,0,0,-3.900,0.189,-8.029,-3.942,0.188,-12.459,-1.904,-0.048,-9.721,0.000,0.000,0.0116870,0.000,9144.000,0.016,5.375,29.073,3.667,911.510,9.257,883.218,-0.412,-9.858,-0.116,0.964,-0.007,-0.004,-0.008,0.000,0.000,0.000,-0.003,0.672,0.002,0.740,0.0000000,0.0000000,0.000,0.000,0.000,0.000,0,00:00:00,-1020,0.000,0.000,91146.102,9.254,0.000,0.000,1.173,-9.700,-0.002,-0.013,0.002,-0.013,0.000,0.000
34.878,0,0,-3.895,0.188,-8.044,-3.950,0.185,-12.474,-2.125,0.068,-9.716,0.000,0.000,0.0116870,0.000,9144.000,0.016,5.494,29.441,3.676,911.479,9.255,883.500,-0.110,-9.884,0.003,1.107,0.006,-0.004,0.010,0.000,0.000,0.000,-0.002,0.669,0.002,0.743,0.0000000,0.0000000,0.000,0.000,0.000,0.000,0,00:00:00,-1020,0.000,0.000,91146.594,9.254,0.000,0.000,1.035,-9.668,0.061,-0.016,-0.021,-0.003,0.000,0.000
34.979,0,0,-3.891,0.188,-8.052,-3.941,0.186,-12.478,-1.966,0.114,-9.660,0.000,0.000,0.0116870,0.000,9144.000,0.016,5.951,29.810,3.691,911.473,9.255,883.552,-0.071,-9.810,0.042,0.982,-0.009,0.017,-0.023,0.000,0.000,0.000,-0.002,0.671,0.003,0.742,0.0000000,0.0000000,0.000,0.000,0.000,0.000,0,00:00:00,-1020,0.000,0.000,91147.312,9.255,0.000,0.000,0.964,-9.735,-0.027,-0.008,-0.024,0.001,0.000,0.000
35.080,0,0,-3.886,0.187,-8.109,-3.927,0.186,-12.510,-1.901,0.094,-9.589,0.000,0.000,0.0116870,0.000,9144.000,0.016,5.786,30.181,3.714,911.512,9.257,883.198,-0.422,-9.731,0.037,0.937,0.017,-0.024,-0.000,0.000,0.000,0.000,-0.001,0.671,0.003,0.741,0.0000000,0.0000000,0.000,0.000,0.000,0.000,0,00:00:00,-1020,0.000,0.000,91148.961,9.256,0.000,0.000,0.985,-9.748,0.016,0.000,0.021,-0.010,0.000,0.000
35.181,0,0,-3.880,0.186,-8.160,-3.912,0.184,-12.537,-1.895,0.079,-9.590,0.000,0.000,0.0116870,0.000,9144.000,0.016,5.712,30.555,3.735,911.512,9.257,883.198,-0.422,-9.731,0.037,0.937,0.017,-0.024,-0.000,0.000,0.000,0.000,-0.000,0.671,0.003,0.741,0.0000000,0.0000000,0.000,0.000,0.000,0.000,0,00:00:00,-1020,0.000,0.000,91148.961,9.256,0.000,0.000,0.985,-9.748,0.016,0.000,0.021,-0.010,0.000,0.000
35.282,0,0,-3.873,0.186,-8.179,-3.898,0.179,-12.566,-1.898,0.044,-9.889,0.000,0.000,0.0116870,0.000,9144.000,0.016,5.675,30.927,3.728,911.492,9.256,883.378,-0.218,-10.025,0.036,0.948,0.031,0.026,-0.026,0.000,0.000,0.000,0.001,0.673,0.001,0.740,0.0000000,0.0000000,0.000,0.000,0.000,0.000,0,00:00:00,-1020,0.000,0.000,91142.703,9.252,0.000,0.000,1.021,-9.844,0.025,0.012,-0.004,-0.005,0.000,0.000
35.383,0,0,-3.866,0.185,-8.170,-3.901,0.180,-12.548,-2.061,0.110,-9.641,0.000,0.000,0.0116870,0.000,9144.000,0.016,5.463,31.302,3.745,911.473,9.255,883.552,-0.028,-9.801,0.121,1.067,0.024,-0.007,-0.007,0.000,0.000,0.000,0.003,0.670,0.002,0.742,0.0000000,0.0000000,0.000,0.000,0.000,0.000,0,00:00:00,-1020,0.000,0.000,91149.938,9.256,0.000,0.000,1.059,-9.734,0.008,-0.008,-0.000,-0.001,0.000,0.000
35.484,0,0,-3.860,0.183,-8.219,-3.896,0.174,-12.573,-1.974,0.039,-9.618,0.000,0.000,0.0116870,0.000,9144.000,0.016,5.859,31.678,3.764,911.519,9.257,883.135,-0.442,-9.768,0.063,0.995,0.011,0.020,-0.015,0.000,0.000,0.000,0.003,0.671,0.001,0.742,0.0000000,0.0000000,0.000,0.000,0.000,0.000,0,00:00:00,-1020,0.000,0.000,91149.469,9.256,0.000,0.000,1.021,-9.732,0.017,0.016,0.009,-0.008,0.000,0.000
35.585,0,0,-3.855,0.182,-8.195,-3.912,0.167,-12.534,-2.191,0.024,-9.554,0.000,0.000,0.0116870,0.000,9144.000,0.016,5.783,32.057,3.789,911.471,9.254,883.569,0.043,-9.734,0.026,1.148,-0.020,0.023,0.017,0.000,0.000,0.000,0.002,0.668,0.001,0.744,0.0000000,0.0000000,0.000,0.000,0.000,0.000,0,00:00:00,-1020,0.000,0.000,91149.672,9.256,0.000,0.000,1.022,-9.773,0.020,-0.010,0.010,-0.025,0.000,0.000
35.686,0,0,-3.851,0.179,-8.152,-3.898,0.153,-12.490,-1.888,-0.041,-9.604,0.000,0.000,0.0116870,0.000,9144.000,0.016,6.190,32.438,3.810,911.459,9.254,883.674,0.181,-9.746,-0.052,0.908,-0.019,-0.013,0.006,0.000,0.000,0.000,-0.000,0.670,0.000,0.742,0.0000000,0.0000000,0.000,0.000,0.000,0.000,0,00:00:00,-1020,0.000,0.000,91147.805,9.255,0.000,0.000,1.087,-9.794,0.001,-0.004,0.000,-0.006,0.000,0.000
35.787,0,0,-3.846,0.177,-8.111,-3.901,0.151,-12.457,-2.052,0.076,-9.674,0.000,0.000,0.0116870,0.000,9144.000,0.016,5.794,32.820,3.823,911.462,9.254,883.652,0.180,-9.835,0.033,1.033,-0.027,-0.029,0.024,0.000,0.000,0.000,-0.000,0.669,0.002,0.743,0.0000000,0.0000000,0.000,0.000,0.000,0.000,0,00:00:00,-1020,0.000,0.000,91150.484,9.256,0.000,0.000,0.982,-9.730,-0.000,-0.005,0.001,0.008,0.000,0.000
35.888,0,0,-3.842,0.173,-8.095,-3.906,0.129,-12.425,-2.070,-0.127,-9.470,0.000,0.000,0.0116870,0.000,9144.000,0.016,5.978,33.206,3.857,911.478,9.255,883.504,0.020,-9.635,-0.165,1.058,-0.009,0.016,-0.014,0.000,0.000,0.000,-0.005,0.669,-0.001,0.744,0.0000000,0.0000000,0.000,0.000,0.000,0.000,0,00:00:00,-1020,0.000,0.000,91154.516,9.259,0.000,0.000,0.951,-9.693,-0.093,-0.002,-0.009,-0.005,0.000,0.000
35.989,0,0,-3.839,0.168,-8.058,-3.910,0.115,-12.391,-2.054,-0.053,-9.583,0.000,0.000,0.0116870,0.000,9144.000,0.016,6.074,33.594,3.880,911.464,9.254,883.636,0.170,-9.747,-0.095,1.020,-0.003,-0.037,0.004,0.000,0.000,0.000,-0.005,0.668,-0.001,0.744,0.0000000,0.0000000,0.000,0.000,0.000,0.000,0,00:00:00,-1020,0.000,0.000,91153.875,9.258,0.000,0.000,1.038,-9.804,-0.040,0.009,0.008,0.000,0.000,0.000
36.090,0,0,-3.837,0.162,-8.047,-3.919,0.105,-12.379,-2.107,-0.011,-9.577,0.000,0.000,0.0116870,0.000,9144.000,0.016,6.129,33.985,3.904,911.488,9.255,883.410,-0.002,-9.749,-0.030,1.054,0.026,-0.031,-0.004,0.000,0.000,0.000,-0.003,0.668,-0.001,0.745,0.0000000,0.0000000,0.000,0.000,0.000,0.000,0,00:00:00,-1020,0.000,0.000,91144.625,9.253,0.000,0.000,1.106,-9.752,0.098,-0.004,0.014,-0.011,0.000,0.000
