State - Time (s),State - Stage,State - Stage,State - PX (m),State - PY (m),State - PZ (m),State - VX (m/s),State - VY (m/s),State - VZ (m/s),State - AX (m/s/s),State - AY (m/s/s),State - AZ (m/s/s),State - Actuation Angle (deg),State - Acutal Angle (deg),State - CdA,State - Est Apo (m),State - Target Apogee (m),State - Mach Number,State - Tilt [deg],State - Pos - Accel Integrated [m],State - Velo - Accel Integrated [m/s],MockBarometer - Pres (hPa),MockBarometer - Temp (C),MockBarometer - Alt ASL (m),MockBarometer - Alt AGL (m),MockIMU - AccX (m/s^2),MockIMU - AccY (m/s^2),MockIMU - AccZ (m/s^2),MockIMU - GyroX (rad/s),MockIMU - GyroY (rad/s),MockIMU - GyroZ (rad/s),MockIMU - MagX (uT),MockIMU - MagY (uT),MockIMU - MagZ (uT),MockIMU - OriX,MockIMU - OriY,MockIMU - OriZ,MockIMU - OriW,MockGPS - Lat,MockGPS - Lon,MockGPS - Alt (m),MockGPS - Disp X (m),MockGPS - Disp Y (m),MockGPS - Disp Z (m),MockGPS - Fix Quality,MockGPS - Time of Day,E5 - Rel Steps,MockBR - Battery Voltage (V),MockBR - ALT (m),MockBR - PRES (Pa),MockBR - TEMP (C),MockBR - VEL (m/s),MockBR - ANG (deg),MockBR - ACCX (m/s^2),MockBR - ACCY (m/s^2),MockBR - ACCZ (m/s^2),MockBR - GYROX (rad/s),MockBR - GYROY (rad/s),MockBR - GYROZ (rad/s),MockBR - ROLL (deg),MockBR - TILT (deg)
22.975,0,0,-2054.894,-26.137,-1468.985,-178.881,-2.275,-127.877,-7.786,-0.099,-5.566,0.000,0.000,0.0116870,0.000,9144.000,0.532,4.000,0.042,0.424,911.461,9.254,883.659,0.000,-9.512,-0.151,1.051,-0.027,0.003,0.010,0.000,0.000,0.000,-0.007,0.357,0.001,0.934,0.0000000,0.0000000,0.000,0.000,0.000,0.000,0,00:00:00,-825,0.000,0.000,91146.039,9.254,0.000,0.000,1.039,-9.722,0.010,-0.006,0.013,-0.037,0.000,0.000
23.076,0,0,-0.119,-0.002,0.045,1.054,0.011,0.318,-5.060,-0.088,-8.060,0.000,0.000,0.0116870,0.000,9144.000,0.004,48.141,0.102,0.599,911.447,9.253,883.783,0.062,-9.473,-0.189,0.889,-0.010,-0.006,-0.015,0.000,0.000,0.000,-0.011,0.524,0.001,0.852,0.0000000,0.0000000,0.000,0.000,0.000,0.000,0,00:00:00,-825,0.000,0.000,91152.320,9.258,0.000,0.000,1.062,-9.683,-0.074,0.007,-0.008,-0.005,0.000,0.000
23.177,0,0,-0.016,0.001,0.018,0.681,0.041,-0.580,-3.704,0.292,-8.881,0.000,0.000,0.0116870,0.000,9144.000,0.003,26.767,0.172,0.692,911.454,9.253,883.727,0.004,-9.570,0.145,1.031,-0.012,-0.009,0.006,0.000,0.000,0.000,-0.005,0.598,0.006,0.801,0.0000000,0.0000000,0.000,0.000,0.000,0.000,0,00:00:00,-825,0.000,0.000,91145.836,9.254,0.000,0.000,0.973,-9.773,0.040,0.010,-0.011,0.005,0.000,0.000
23.278,0,0,0.025,0.003,-0.090,0.373,0.049,-1.532,-3.036,0.086,-9.423,0.000,0.000,0.0116870,0.000,9144.000,0.002,16.484,0.245,0.731,911.468,9.254,883.599,-0.093,-9.839,-0.080,1.091,-0.014,-0.042,0.008,0.000,0.000,0.000,-0.007,0.632,0.005,0.775,0.0000000,0.0000000,0.000,0.000,0.000,0.000,0,00:00:00,-825,0.000,0.000,91151.742,9.257,0.000,0.000,1.030,-9.793,-0.018,-0.005,-0.007,0.012,0.000,0.000
23.379,0,0,0.037,0.007,-0.242,0.129,0.072,-2.475,-2.403,0.234,-9.386,0.000,0.000,0.0116870,0.000,9144.000,0.002,11.527,0.322,0.774,911.471,9.254,883.571,-0.096,-9.642,0.074,0.977,0.012,0.029,0.003,0.000,0.000,0.000,-0.005,0.652,0.007,0.758,0.0000000,0.0000000,0.000,0.000,0.000,0.000,0,00:00:00,-825,0.000,0.000,91148.016,9.255,0.000,0.000,1.039,-9.726,-0.038,0.007,0.007,-0.002,0.000,0.000
23.480,0,0,0.032,0.012,-0.422,-0.084,0.096,-3.424,-2.101,0.234,-9.530,0.000,0.000,0.0116870,0.000,9144.000,0.002,8.575,0.402,0.802,911.456,9.254,883.707,0.032,-9.718,0.062,0.923,-0.011,-0.004,-0.004,0.000,0.000,0.000,-0.004,0.663,0.008,0.749,0.0000000,0.0000000,0.000,0.000,0.000,0.000,0,00:00:00,-825,0.000,0.000,91150.797,9.257,0.000,0.000,1.005,-9.717,-0.058,0.007,-0.011,0.001,0.000,0.000
23.581,0,0,0.010,0.019,-0.702,-0.305,0.107,-4.378,-2.191,0.116,-9.603,0.000,0.000,0.0116870,0.000,9144.000,0.003,7.010,0.484,0.822,911.481,9.255,883.481,-0.166,-9.793,-0.029,1.062,0.024,-0.021,-0.011,0.000,0.000,0.000,-0.005,0.665,0.006,0.747,0.0000000,0.0000000,0.000,0.000,0.000,0.000,0,00:00:00,-825,0.000,0.000,91138.469,9.249,0.000,0.000,1.018,-9.667,-0.050,-0.014,0.004,-0.003,0.000,0.000
23.682,0,0,-0.027,0.026,-0.992,-0.521,0.120,-5.320,-2.140,0.134,-9.675,0.000,0.000,0.0116870,0.000,9144.000,0.003,6.661,0.568,0.836,911.447,9.253,883.787,0.122,-9.855,-0.037,1.039,-0.025,-0.037,0.014,0.000,0.000,0.000,-0.006,0.666,0.006,0.746,0.0000000,0.0000000,0.000,0.000,0.000,0.000,0,00:00:00,-825,0.000,0.000,91157.797,9.261,0.000,0.000,1.020,-9.790,0.032,0.008,0.000,-0.009,0.000,0.000
23.783,0,0,-0.079,0.034,-1.372,-0.746,0.145,-6.239,-2.243,0.246,-9.542,0.000,0.000,0.0116870,0.000,9144.000,0.003,6.448,0.654,0.863,911.471,9.254,883.571,-0.083,-9.737,0.061,1.149,-0.016,0.031,-0.021,0.000,0.000,0.000,-0.006,0.666,0.007,0.746,0.0000000,0.0000000,0.000,0.000,0.000,0.000,0,00:00:00,-825,0.000,0.000,91150.875,9.257,0.000,0.000,0.988,-9.699,0.027,-0.002,0.004,0.012,0.000,0.000
23.884,0,0,-0.145,0.043,-1.836,-0.959,0.159,-7.141,-2.128,0.146,-9.515,0.000,0.000,0.0116870,0.000,9144.000,0.004,6.500,0.744,0.892,911.505,9.256,883.263,-0.352,-9.690,-0.060,1.081,-0.029,0.067,-0.010,0.000,0.000,0.000,-0.008,0.668,0.007,0.745,0.0000000,0.0000000,0.000,0.000,0.000,0.000,0,00:00:00,-825,0.000,0.000,91145.023,9.253,0.000,0.000,0.976,-9.725,0.023,0.011,-0.007,0.002,0.000,0.000
23.985,0,0,-0.224,0.054,-2.308,-1.149,0.176,-8.005,-1.923,0.179,-9.538,0.000,0.000,0.0116870,0.000,9144.000,0.004,6.240,0.835,0.919,911.476,9.255,883.519,-0.095,-9.686,-0.053,0.938,-0.028,0.009,-0.004,0.000,0.000,0.000,-0.010,0.670,0.008,0.742,0.0000000,0.0000000,0.000,0.000,0.000,0.000,0,00:00:00,-825,0.000,0.000,91149.750,9.256,0.000,0.000,0.972,-9.810,0.072,-0.003,-0.010,-0.007,0.000,0.000
24.086,0,0,-0.316,0.065,-2.826,-1.363,0.198,-8.828,-2.173,0.228,-9.508,0.000,0.000,0.0116870,0.000,9144.000,0.005,5.859,0.930,0.949,911.484,9.255,883.450,-0.165,-9.690,-0.012,1.132,-0.007,0.019,0.005,0.000,0.000,0.000,-0.009,0.668,0.008,0.744,0.0000000,0.0000000,0.000,0.000,0.000,0.000,0,00:00:00,-825,0.000,0.000,91146.609,9.254,0.000,0.000,0.978,-9.715,-0.067,-0.010,0.013,-0.010,0.000,0.000
24.187,0,0,-0.420,0.078,-3.358,-1.578,0.216,-9.577,-2.211,0.201,-9.327,0.000,0.000,0.0116870,0.000,9144.000,0.006,6.206,1.030,0.998,911.473,9.255,883.548,-0.067,-9.520,-0.040,1.135,-0.006,-0.011,-0.001,0.000,0.000,0.000,-0.010,0.666,0.008,0.746,0.0000000,0.0000000,0.000,0.000,0.000,0.000,0,00:00:00,-825,0.000,0.000,91147.117,9.254,0.000,0.000,1.007,-9.716,0.014,-0.007,-0.012,0.004,0.000,0.000
24.288,0,0,-0.538,0.093,-3.940,-1.791,0.256,-10.310,-2.204,0.406,-9.563,0.000,0.000,0.0116870,0.000,9144.000,0.006,6.534,1.132,1.023,911.509,9.257,883.227,-0.388,-9.758,0.163,1.101,0.011,-0.021,-0.026,0.000,0.000,0.000,-0.006,0.666,0.011,0.746,0.0000000,0.0000000,0.000,0.000,0.000,0.000,0,00:00:00,-825,0.000,0.000,91155.172,9.259,0.000,0.000,1.053,-9.799,0.067,0.003,-0.009,-0.002,0.000,0.000
24.389,0,0,-0.666,0.110,-4.492,-1.968,0.294,-10.954,-1.898,0.404,-9.584,0.000,0.000,0.0116870,0.000,9144.000,0.007,6.546,1.237,1.045,911.475,9.255,883.534,-0.081,-9.736,0.127,0.898,-0.037,-0.012,-0.009,0.000,0.000,0.000,-0.006,0.669,0.013,0.743,0.0000000,0.0000000,0.000,0.000,0.000,0.000,0,00:00:00,-825,0.000,0.000,91143.578,9.252,0.000,0.000,1.049,-9.757,0.041,0.008,-0.005,0.007,0.000,0.000
24.490,0,0,-0.804,0.129,-5.023,-2.169,0.309,-11.496,-2.165,0.175,-9.402,0.000,0.000,0.0116870,0.000,9144.000,0.007,5.945,1.346,1.086,911.463,9.254,883.645,0.030,-9.584,-0.110,1.118,-0.025,-0.002,-0.020,0.000,0.000,0.000,-0.011,0.667,0.010,0.745,0.0000000,0.0000000,0.000,0.000,0.000,0.000,0,00:00:00,-825,0.000,0.000,91152.648,9.258,0.000,0.000,1.035,-9.676,-0.002,0.007,0.012,-0.002,0.000,0.000
24.591,0,0,-0.950,0.148,-5.554,-2.349,0.319,-11.988,-2.010,0.131,-9.573,0.000,0.000,0.0116870,0.000,9144.000,0.008,6.308,1.457,1.110,911.484,9.255,883.450,-0.165,-9.731,-0.162,0.992,-0.007,0.013,0.025,0.000,0.000,0.000,-0.013,0.669,0.009,0.743,0.0000000,0.0000000,0.000,0.000,0.000,0.000,0,00:00:00,-825,0.000,0.000,91152.883,9.258,0.000,0.000,0.932,-9.737,0.047,-0.006,0.002,0.015,0.000,0.000
24.692,0,0,-1.103,0.167,-6.060,-2.508,0.337,-12.393,-1.862,0.228,-9.476,0.000,0.000,0.0116870,0.000,9144.000,0.008,6.028,1.571,1.143,911.493,9.256,883.370,-0.245,-9.617,-0.056,0.913,0.010,0.015,0.011,0.000,0.000,0.000,-0.013,0.671,0.009,0.741,0.0000000,0.0000000,0.000,0.000,0.000,0.000,0,00:00:00,-825,0.000,0.000,91151.320,9.257,0.000,0.000,1.010,-9.716,-0.031,0.001,-0.004,-0.006,0.000,0.000
24.793,0,0,-1.261,0.187,-6.505,-2.664,0.351,-12.693,-1.893,0.192,-9.412,0.000,0.000,0.0116870,0.000,9144.000,0.009,5.682,1.689,1.183,911.476,9.255,883.524,-0.090,-9.555,-0.088,0.947,0.006,-0.010,0.036,0.000,0.000,0.000,-0.012,0.671,0.009,0.741,0.0000000,0.0000000,0.000,0.000,0.000,0.000,0,00:00:00,-825,0.000,0.000,91147.031,9.254,0.000,0.000,1.041,-9.780,0.070,0.012,0.001,0.008,0.000,0.000
24.894,0,0,-1.422,0.206,-6.900,-2.813,0.364,-12.915,-1.894,0.190,-9.411,0.000,0.000,0.0116870,0.000,9144.000,0.009,5.701,1.811,1.223,911.476,9.255,883.524,-0.090,-9.555,-0.088,0.947,0.006,-0.010,0.036,0.000,0.000,0.000,-0.012,0.671,0.009,0.741,0.0000000,0.0000000,0.000,0.000,0.000,0.000,0,00:00:00,-825,0.000,0.000,91147.031,9.254,0.000,0.000,1.041,-9.780,0.070,0.012,0.001,0.008,0.000,0.000
24.995,0,0,-1.586,0.227,-7.246,-2.961,0.401,-13.082,-1.961,0.434,-9.530,0.000,0.000,0.0116870,0.000,9144.000,0.010,5.710,1.936,1.251,911.482,9.255,883.465,-0.136,-9.687,0.145,0.992,0.003,-0.004,-0.007,0.000,0.000,0.000,-0.008,0.670,0.012,0.742,0.0000000,0.0000000,0.000,0.000,0.000,0.000,0,00:00:00,-825,0.000,0.000,91152.500,9.258,0.000,0.000,1.110,-9.783,-0.037,0.006,-0.005,0.012,0.000,0.000
25.096,0,0,-1.751,0.247,-7.562,-3.120,0.402,-13.210,-2.163,0.093,-9.601,0.000,0.000,0.0116870,0.000,9144.000,0.010,5.789,2.064,1.272,911.507,9.257,883.247,-0.321,-9.777,-0.184,1.122,-0.005,0.007,-0.045,0.000,0.000,0.000,-0.013,0.668,0.008,0.744,0.0000000,0.0000000,0.000,0.000,0.000,0.000,0,00:00:00,-825,0.000,0.000,91140.805,9.251,0.000,0.000,0.963,-9.682,-0.064,0.018,-0.005,-0.002,0.000,0.000
25.197,0,0,-1.917,0.267,-7.846,-3.257,0.430,-13.302,-2.039,0.372,-9.614,0.000,0.000,0.0116870,0.000,9144.000,0.010,6.147,2.193,1.291,911.527,9.258,883.064,-0.486,-9.782,0.059,1.019,-0.033,0.010,-0.022,0.000,0.000,0.000,-0.012,0.669,0.011,0.743,0.0000000,0.0000000,0.000,0.000,0.000,0.000,0,00:00:00,-825,0.000,0.000,91144.273,9.253,0.000,0.000,1.076,-9.738,-0.005,-0.013,-0.007,-0.010,0.000,0.000
25.298,0,0,-2.083,0.288,-8.011,-3.411,0.453,-13.301,-2.314,0.334,-9.711,0.000,0.000,0.0116870,0.000,9144.000,0.011,6.018,2.323,1.301,911.475,9.255,883.534,0.022,-9.916,0.004,1.204,-0.008,-0.000,0.017,0.000,0.000,0.000,-0.011,0.666,0.012,0.746,0.0000000,0.0000000,0.000,0.000,0.000,0.000,0,00:00:00,-825,0.000,0.000,91156.914,9.260,0.000,0.000,1.031,-9.720,0.027,-0.002,-0.020,-0.005,0.000,0.000
25.399,0,0,-2.249,0.310,-8.147,-3.553,0.476,-13.272,-2.293,0.353,-9.636,0.000,0.000,0.0116870,0.000,9144.000,0.011,6.471,2.455,1.319,911.486,9.255,883.436,-0.073,-9.842,-0.007,1.165,-0.033,-0.005,0.009,0.000,0.000,0.000,-0.012,0.665,0.014,0.747,0.0000000,0.0000000,0.000,0.000,0.000,0.000,0,00:00:00,-825,0.000,0.000,91138.242,9.249,0.000,0.000,1.098,-9.769,0.029,-0.003,-0.002,-0.004,0.000,0.000
25.500,0,0,-2.412,0.331,-8.205,-3.688,0.506,-13.178,-2.334,0.435,-9.515,0.000,0.000,0.0116870,0.000,9144.000,0.012,6.627,2.590,1.348,911.456,9.254,883.703,0.200,-9.734,0.068,1.189,-0.007,-0.009,-0.008,0.000,0.000,0.000,-0.011,0.664,0.015,0.748,0.0000000,0.0000000,0.000,0.000,0.000,0.000,0,00:00:00,-825,0.000,0.000,91149.141,9.256,0.000,0.000,1.064,-9.666,-0.042,0.007,0.002,0.020,0.000,0.000
25.601,0,0,-2.570,0.354,-8.274,-3.793,0.542,-13.136,-2.153,0.505,-9.836,0.000,0.000,0.0116870,0.000,9144.000,0.012,6.820,2.724,1.346,911.488,9.255,883.414,-0.086,-10.026,0.095,1.053,-0.026,0.015,0.027,0.000,0.000,0.000,-0.011,0.667,0.017,0.745,0.0000000,0.0000000,0.000,0.000,0.000,0.000,0,00:00:00,-825,0.000,0.000,91143.289,9.252,0.000,0.000,1.012,-9.662,0.096,-0.009,-0.012,-0.001,0.000,0.000
25.702,0,0,-2.721,0.377,-8.300,-3.879,0.562,-13.025,-2.068,0.366,-9.353,0.000,0.000,0.0116870,0.000,9144.000,0.012,6.364,2.863,1.391,911.481,9.255,883.480,0.022,-9.530,0.005,1.032,0.029,-0.008,0.012,0.000,0.000,0.000,-0.011,0.667,0.015,0.745,0.0000000,0.0000000,0.000,0.000,0.000,0.000,0,00:00:00,-825,0.000,0.000,91142.766,9.252,0.000,0.000,1.019,-9.614,-0.039,0.013,-0.004,0.002,0.000,0.000
25.803,0,0,-2.863,0.400,-8.321,-3.952,0.595,-12.949,-2.044,0.514,-9.607,0.000,0.000,0.0116870,0.000,9144.000,0.013,6.294,3.004,1.411,911.493,9.256,883.370,-0.084,-9.781,0.128,1.023,-0.015,0.028,-0.016,0.000,0.000,0.000,-0.010,0.669,0.017,0.743,0.0000000,0.0000000,0.000,0.000,0.000,0.000,0,00:00:00,-825,0.000,0.000,91150.219,9.256,0.000,0.000,1.043,-9.550,0.003,-0.002,-0.001,-0.000,0.000,0.000
25.904,0,0,-2.996,0.424,-8.329,-4.012,0.628,-12.877,-2.022,0.529,-9.611,0.000,0.000,0.0116870,0.000,9144.000,0.013,6.053,3.147,1.431,911.493,9.256,883.370,-0.110,-9.781,0.128,1.023,-0.015,0.028,-0.016,0.000,0.000,0.000,-0.010,0.669,0.018,0.743,0.0000000,0.0000000,0.000,0.000,0.000,0.000,0,00:00:00,-825,0.000,0.000,91150.219,9.256,0.000,0.000,1.043,-9.550,0.003,-0.002,-0.001,-0.000,0.000,0.000
26.005,0,0,-3.118,0.448,-8.324,-4.061,0.661,-12.808,-2.011,0.543,-9.612,0.000,0.000,0.0116870,0.000,9144.000,0.013,5.932,3.293,1.451,911.493,9.256,883.370,-0.104,-9.781,0.128,1.023,-0.015,0.028,-0.016,0.000,0.000,0.000,-0.010,0.670,0.019,0.742,0.0000000,0.0000000,0.000,0.000,0.000,0.000,0,00:00:00,-825,0.000,0.000,91150.219,9.256,0.000,0.000,1.043,-9.550,0.003,-0.002,-0.001,-0.000,0.000,0.000
26.106,0,0,-3.230,0.471,-8.267,-4.117,0.669,-12.701,-2.174,0.313,-9.531,0.000,0.000,0.0116870,0.000,9144.000,0.013,5.872,3.441,1.479,911.461,9.254,883.661,0.208,-9.717,-0.081,1.120,0.011,-0.020,0.009,0.000,0.000,0.000,-0.013,0.667,0.016,0.745,0.0000000,0.0000000,0.000,0.000,0.000,0.000,0,00:00:00,-825,0.000,0.000,91143.641,9.252,0.000,0.000,1.081,-9.735,0.037,0.003,-0.002,0.010,0.000,0.000
26.207,0,0,-3.335,0.492,-8.253,-4.195,0.672,-12.668,-2.473,0.285,-9.810,0.000,0.000,0.0116870,0.000,9144.000,0.013,6.279,3.588,1.479,911.500,9.256,883.302,-0.103,-10.036,-0.116,1.298,-0.000,0.021,0.006,0.000,0.000,0.000,-0.015,0.664,0.014,0.747,0.0000000,0.0000000,0.000,0.000,0.000,0.000,0,00:00:00,-825,0.000,0.000,91155.258,9.259,0.000,0.000,0.981,-9.756,-0.135,-0.006,0.005,-0.011,0.000,0.000
26.308,0,0,-3.431,0.511,-8.162,-4.221,0.670,-12.578,-2.034,0.242,-9.753,0.000,0.000,0.0116870,0.000,9144.000,0.013,6.766,3.737,1.485,911.439,9.253,883.863,0.427,-9.918,-0.131,0.965,0.017,-0.015,-0.028,0.000,0.000,0.000,-0.017,0.668,0.011,0.744,0.0000000,0.0000000,0.000,0.000,0.000,0.000,0,00:00:00,-825,0.000,0.000,91149.141,9.256,0.000,0.000,0.967,-9.715,-0.089,-0.017,0.001,-0.006,0.000,0.000
26.409,0,0,-3.518,0.529,-8.111,-4.266,0.695,-12.512,-2.293,0.525,-9.577,0.000,0.000,0.0116870,0.000,9144.000,0.014,6.206,3.888,1.508,911.467,9.254,883.607,0.181,-9.790,0.136,1.179,-0.008,-0.020,0.010,0.000,0.000,0.000,-0.012,0.665,0.015,0.746,0.0000000,0.0000000,0.000,0.000,0.000,0.000,0,00:00:00,-825,0.000,0.000,91152.484,9.258,0.000,0.000,1.040,-9.672,-0.005,0.008,0.002,0.007,0.000,0.000
26.510,0,0,-3.597,0.544,-8.030,-4.310,0.679,-12.447,-2.346,0.133,-9.729,0.000,0.000,0.0116870,0.000,9144.000,0.014,6.595,4.039,1.516,911.441,9.253,883.843,0.411,-9.935,-0.250,1.192,-0.003,0.004,0.006,0.000,0.000,0.000,-0.017,0.664,0.011,0.747,0.0000000,0.0000000,0.000,0.000,0.000,0.000,0,00:00:00,-825,0.000,0.000,91150.281,9.256,0.000,0.000,1.021,-9.793,0.046,0.001,0.002,0.003,0.000,0.000
26.611,0,0,-3.668,0.558,-8.021,-4.329,0.691,-12.422,-2.153,0.417,-9.517,0.000,0.000,0.0116870,0.000,9144.000,0.014,6.707,4.194,1.545,911.492,9.256,883.375,-0.053,-9.707,0.066,1.069,0.027,0.019,-0.041,0.000,0.000,0.000,-0.014,0.666,0.012,0.746,0.0000000,0.0000000,0.000,0.000,0.000,0.000,0,00:00:00,-825,0.000,0.000,91143.094,9.252,0.000,0.000,1.009,-9.763,0.018,0.016,-0.002,0.001,0.000,0.000
26.712,0,0,-3.732,0.571,-7.913,-4.344,0.692,-12.332,-2.162,0.324,-9.559,0.000,0.000,0.0116870,0.000,9144.000,0.014,6.444,4.351,1.571,911.413,9.251,884.092,0.653,-9.746,-0.043,1.080,-0.013,-0.011,0.011,0.000,0.000,0.000,-0.014,0.666,0.013,0.745,0.0000000,0.0000000,0.000,0.000,0.000,0.000,0,00:00:00,-825,0.000,0.000,91140.008,9.250,0.000,0.000,0.958,-9.663,0.006,-0.001,-0.001,0.012,0.000,0.000
26.813,0,0,-3.787,0.582,-7.901,-4.349,0.699,-12.316,-2.103,0.382,-9.503,0.000,0.000,0.0116870,0.000,9144.000,0.014,6.414,4.511,1.601,911.482,9.255,883.465,0.041,-9.684,0.022,1.050,0.001,0.008,-0.043,0.000,0.000,0.000,-0.014,0.667,0.013,0.745,0.0000000,0.0000000,0.000,0.000,0.000,0.000,0,00:00:00,-825,0.000,0.000,91137.570,9.249,0.000,0.000,1.035,-9.710,0.074,-0.014,0.003,-0.002,0.000,0.000
26.914,0,0,-3.835,0.592,-7.882,-4.353,0.704,-12.317,-2.124,0.370,-9.709,0.000,0.000,0.0116870,0.000,9144.000,0.014,6.278,4.672,1.611,911.477,9.255,883.512,0.104,-9.888,0.004,1.070,0.000,0.023,-0.016,0.000,0.000,0.000,-0.013,0.668,0.013,0.744,0.0000000,0.0000000,0.000,0.000,0.000,0.000,0,00:00:00,-825,0.000,0.000,91154.375,9.259,0.000,0.000,1.083,-9.838,0.070,-0.010,-0.000,-0.010,0.000,0.000
27.015,0,0,-3.877,0.602,-7.847,-4.349,0.716,-12.281,-2.080,0.448,-9.431,0.000,0.000,0.0116870,0.000,9144.000,0.014,6.160,4.837,1.649,911.463,9.254,883.638,0.240,-9.611,0.096,1.045,0.013,-0.021,0.013,0.000,0.000,0.000,-0.010,0.667,0.015,0.744,0.0000000,0.0000000,0.000,0.000,0.000,0.000,0,00:00:00,-825,0.000,0.000,91146.656,9.254,0.000,0.000,1.016,-9.731,-0.004,-0.010,-0.010,0.001,0.000,0.000
27.116,0,0,-3.912,0.613,-7.875,-4.332,0.740,-12.302,-1.961,0.576,-9.517,0.000,0.000,0.0116870,0.000,9144.000,0.014,6.242,5.005,1.679,911.505,9.256,883.262,-0.178,-9.684,0.189,0.968,-0.025,0.001,0.007,0.000,0.000,0.000,-0.008,0.669,0.018,0.743,0.0000000,0.0000000,0.000,0.000,0.000,0.000,0,00:00:00,-825,0.000,0.000,91138.906,9.250,0.000,0.000,1.010,-9.748,-0.081,-0.008,0.005,0.008,0.000,0.000
27.217,0,0,-3.941,0.623,-7.890,-4.332,0.755,-12.312,-2.159,0.485,-9.517,0.000,0.000,0.0116870,0.000,9144.000,0.014,5.970,5.176,1.708,911.492,9.256,883.375,-0.089,-9.707,0.070,1.106,-0.031,-0.021,-0.012,0.000,0.000,0.000,-0.011,0.667,0.019,0.745,0.0000000,0.0000000,0.000,0.000,0.000,0.000,0,00:00:00,-825,0.000,0.000,91142.406,9.252,0.000,0.000,1.032,-9.752,-0.063,0.022,-0.008,0.025,0.000,0.000
27.318,0,0,-3.964,0.634,-7.862,-4.295,0.765,-12.296,-1.795,0.445,-9.580,0.000,0.000,0.0116870,0.000,9144.000,0.014,6.298,5.349,1.731,911.456,9.254,883.709,0.212,-9.721,0.031,0.840,0.001,-0.026,0.041,0.000,0.000,0.000,-0.011,0.671,0.018,0.741,0.0000000,0.0000000,0.000,0.000,0.000,0.000,0,00:00:00,-825,0.000,0.000,91150.695,9.257,0.000,0.000,1.013,-9.734,-0.025,-0.005,-0.004,0.010,0.000,0.000
27.419,0,0,-3.982,0.645,-7.890,-4.279,0.779,-12.314,-2.013,0.493,-9.481,0.000,0.000,0.0116870,0.000,9144.000,0.014,5.692,5.525,1.764,911.495,9.256,883.352,-0.161,-9.649,0.073,1.044,-0.009,0.037,-0.010,0.000,0.000,0.000,-0.012,0.670,0.018,0.742,0.0000000,0.0000000,0.000,0.000,0.000,0.000,0,00:00:00,-825,0.000,0.000,91152.430,9.258,0.000,0.000,1.122,-9.843,-0.076,-0.002,0.002,-0.001,0.000,0.000
27.520,0,0,-3.997,0.656,-7.919,-4.285,0.794,-12.338,-2.239,0.508,-9.568,0.000,0.000,0.0116870,0.000,9144.000,0.014,5.827,5.704,1.788,911.495,9.256,883.350,-0.178,-9.769,0.055,1.173,-0.026,-0.001,0.007,0.000,0.000,0.000,-0.013,0.667,0.019,0.745,0.0000000,0.0000000,0.000,0.000,0.000,0.000,0,00:00:00,-825,0.000,0.000,91152.195,9.257,0.000,0.000,1.042,-9.691,0.011,-0.011,-0.013,0.006,0.000,0.000
27.621,0,0,-4.008,0.668,-7.941,-4.256,0.821,-12.348,-1.889,0.629,-9.477,0.000,0.000,0.0116870,0.000,9144.000,0.014,6.338,5.886,1.821,911.492,9.256,883.379,-0.145,-9.637,0.187,0.932,0.008,0.049,-0.005,0.000,0.000,0.000,-0.010,0.670,0.021,0.742,0.0000000,0.0000000,0.000,0.000,0.000,0.000,0,00:00:00,-825,0.000,0.000,91146.898,9.254,0.000,0.000,1.064,-9.816,-0.054,0.002,-0.004,-0.012,0.000,0.000
27.722,0,0,-4.016,0.680,-7.957,-4.234,0.842,-12.365,-1.955,0.571,-9.623,0.000,0.000,0.0116870,0.000,9144.000,0.014,5.789,6.070,1.840,911.481,9.255,883.481,-0.104,-9.786,0.121,0.985,0.004,-0.001,0.039,0.000,0.000,0.000,-0.010,0.671,0.021,0.742,0.0000000,0.0000000,0.000,0.000,0.000,0.000,0,00:00:00,-825,0.000,0.000,91144.484,9.253,0.000,0.000,1.037,-9.926,-0.013,-0.012,-0.013,0.007,0.000,0.000
27.823,0,0,-4.021,0.694,-7.981,-4.216,0.866,-12.367,-2.002,0.620,-9.417,0.000,0.000,0.0116870,0.000,9144.000,0.014,5.772,6.258,1.879,911.487,9.255,883.423,-0.172,-9.590,0.168,1.037,-0.006,0.033,0.008,0.000,0.000,0.000,-0.009,0.670,0.022,0.742,0.0000000,0.0000000,0.000,0.000,0.000,0.000,0,00:00:00,-825,0.000,0.000,91152.656,9.258,0.000,0.000,0.940,-9.652,0.106,0.001,-0.015,-0.016,0.000,0.000
27.924,0,0,-4.025,0.708,-7.990,-4.211,0.891,-12.373,-2.116,0.625,-9.574,0.000,0.000,0.0116870,0.000,9144.000,0.014,5.877,6.448,1.903,911.475,9.255,883.532,-0.077,-9.763,0.189,1.092,0.025,0.000,-0.016,0.000,0.000,0.000,-0.008,0.668,0.022,0.744,0.0000000,0.0000000,0.000,0.000,0.000,0.000,0,00:00:00,-825,0.000,0.000,91145.617,9.254,0.000,0.000,1.026,-9.698,0.055,0.004,0.007,0.001,0.000,0.000
28.025,0,0,-4.026,0.723,-7.985,-4.164,0.892,-12.374,-1.701,0.397,-9.641,0.000,0.000,0.0116870,0.000,9144.000,0.014,6.128,6.640,1.920,911.462,9.254,883.652,0.016,-9.766,-0.013,0.794,0.011,0.005,-0.011,0.000,0.000,0.000,-0.011,0.673,0.018,0.739,0.0000000,0.0000000,0.000,0.000,0.000,0.000,0,00:00:00,-825,0.000,0.000,91144.719,9.253,0.000,0.000,0.910,-9.846,0.002,0.010,-0.000,0.005,0.000,0.000
28.126,0,0,-4.024,0.735,-7.979,-4.154,0.883,-12.350,-2.064,0.305,-9.399,0.000,0.000,0.0116870,0.000,9144.000,0.014,5.373,6.836,1.961,911.465,9.254,883.625,0.029,-9.566,-0.092,1.085,-0.005,0.005,-0.019,0.000,0.000,0.000,-0.015,0.670,0.015,0.742,0.0000000,0.0000000,0.000,0.000,0.000,0.000,0,00:00:00,-825,0.000,0.000,91155.156,9.259,0.000,0.000,0.962,-9.810,0.032,0.007,0.007,-0.006,0.000,0.000
28.227,0,0,-4.021,0.745,-7.961,-4.146,0.868,-12.351,-2.074,0.252,-9.727,0.000,0.000,0.0116870,0.000,9144.000,0.014,5.907,7.033,1.969,911.455,9.254,883.712,0.109,-9.894,-0.154,1.034,-0.002,-0.040,-0.008,0.000,0.000,0.000,-0.017,0.669,0.013,0.743,0.0000000,0.0000000,0.000,0.000,0.000,0.000,0,00:00:00,-825,0.000,0.000,91142.797,9.252,0.000,0.000,1.002,-9.751,0.018,0.013,0.004,-0.005,0.000,0.000
28.328,0,0,-4.019,0.755,-7.945,-4.146,0.881,-12.327,-2.146,0.534,-9.456,0.000,0.000,0.0116870,0.000,9144.000,0.014,6.051,7.234,2.005,911.457,9.254,883.695,0.107,-9.648,0.100,1.099,-0.035,0.001,-0.025,0.000,0.000,0.000,-0.015,0.667,0.017,0.745,0.0000000,0.0000000,0.000,0.000,0.000,0.000,0,00:00:00,-825,0.000,0.000,91151.789,9.257,0.000,0.000,1.074,-9.813,0.075,0.004,-0.011,-0.005,0.000,0.000
28.429,0,0,-4.017,0.763,-7.924,-4.144,0.869,-12.320,-2.126,0.287,-9.657,0.000,0.000,0.0116870,0.000,9144.000,0.014,6.274,7.436,2.020,911.455,9.253,883.718,0.156,-9.833,-0.129,1.077,0.021,0.041,0.002,0.000,0.000,0.000,-0.017,0.668,0.014,0.744,0.0000000,0.0000000,0.000,0.000,0.000,0.000,0,00:00:00,-825,0.000,0.000,91154.016,9.259,0.000,0.000,1.102,-9.716,0.038,0.004,0.001,0.007,0.000,0.000
28.530,0,0,-4.014,0.770,-7.926,-4.119,0.863,-12.323,-1.889,0.349,-9.573,0.000,0.000,0.0116870,0.000,9144.000,0.014,6.147,7.640,2.044,911.477,9.255,883.511,-0.002,-9.721,-0.038,0.922,0.033,0.018,0.029,0.000,0.000,0.000,-0.015,0.671,0.014,0.741,0.0000000,0.0000000,0.000,0.000,0.000,0.000,0,00:00:00,-825,0.000,0.000,91152.242,9.257,0.000,0.000,1.003,-9.717,-0.057,-0.003,0.004,-0.004,0.000,0.000
28.631,0,0,-4.012,0.776,-7.940,-4.133,0.865,-12.334,-2.269,0.435,-9.574,0.000,0.000,0.0116870,0.000,9144.000,0.014,5.732,7.847,2.067,911.487,9.255,883.425,-0.088,-9.775,0.005,1.201,-0.045,0.017,-0.017,0.000,0.000,0.000,-0.016,0.667,0.016,0.745,0.0000000,0.0000000,0.000,0.000,0.000,0.000,0,00:00:00,-825,0.000,0.000,91141.172,9.251,0.000,0.000,1.058,-9.872,0.055,0.006,0.006,0.004,0.000,0.000
28.732,0,0,-4.009,0.782,-7.956,-4.106,0.862,-12.341,-1.859,0.382,-9.530,0.000,0.000,0.0116870,0.000,9144.000,0.014,6.316,8.056,2.095,911.495,9.256,883.350,-0.103,-9.676,-0.065,0.891,-0.022,0.010,0.007,0.000,0.000,0.000,-0.017,0.670,0.016,0.742,0.0000000,0.0000000,0.000,0.000,0.000,0.000,0,00:00:00,-825,0.000,0.000,91141.711,9.251,0.000,0.000,1.049,-9.766,0.038,-0.004,-0.000,0.013,0.000,0.000
28.833,0,0,-4.004,0.786,-7.914,-4.069,0.856,-12.300,-1.750,0.362,-9.481,0.000,0.000,0.0116870,0.000,9144.000,0.014,5.760,8.269,2.128,911.453,9.253,883.735,0.287,-9.610,-0.056,0.854,0.028,0.019,0.012,0.000,0.000,0.000,-0.016,0.673,0.015,0.739,0.0000000,0.0000000,0.000,0.000,0.000,0.000,0,00:00:00,-825,0.000,0.000,91153.461,9.258,0.000,0.000,1.000,-9.727,0.022,0.010,0.012,-0.007,0.000,0.000
28.934,0,0,-3.998,0.791,-7.882,-4.062,0.864,-12.291,-2.050,0.493,-9.701,0.000,0.000,0.0116870,0.000,9144.000,0.014,5.365,8.483,2.139,911.457,9.254,883.698,0.248,-9.870,0.055,1.063,-0.001,-0.010,0.018,0.000,0.000,0.000,-0.014,0.670,0.017,0.742,0.0000000,0.0000000,0.000,0.000,0.000,0.000,0,00:00:00,-825,0.000,0.000,91150.289,9.256,0.000,0.000,0.948,-9.789,0.005,0.001,-0.000,-0.000,0.000,0.000
29.035,0,0,-3.992,0.796,-7.917,-4.067,0.884,-12.306,-2.156,0.619,-9.433,0.000,0.000,0.0116870,0.000,9144.000,0.014,5.784,8.701,2.177,911.508,9.257,883.232,-0.220,-9.628,0.175,1.128,-0.010,0.007,-0.013,0.000,0.000,0.000,-0.012,0.668,0.020,0.744,0.0000000,0.0000000,0.000,0.000,0.000,0.000,0,00:00:00,-825,0.000,0.000,91143.000,9.252,0.000,0.000,1.052,-9.832,-0.013,-0.006,-0.001,-0.015,0.000,0.000
29.136,0,0,-3.989,0.802,-7.871,-4.084,0.888,-12.276,-2.271,0.457,-9.597,0.000,0.000,0.0116870,0.000,9144.000,0.014,6.213,8.921,2.198,911.442,9.253,883.828,0.340,-9.804,-0.010,1.159,-0.019,-0.035,0.008,0.000,0.000,0.000,-0.014,0.665,0.019,0.746,0.0000000,0.0000000,0.000,0.000,0.000,0.000,0,00:00:00,-825,0.000,0.000,91143.508,9.252,0.000,0.000,1.038,-9.628,0.048,0.021,-0.004,0.005,0.000,0.000
29.237,0,0,-3.986,0.808,-7.842,-4.066,0.896,-12.271,-1.922,0.505,-9.702,0.000,0.000,0.0116870,0.000,9144.000,0.014,6.577,9.142,2.209,911.449,9.253,883.767,0.246,-9.862,0.066,0.906,0.028,-0.019,-0.018,0.000,0.000,0.000,-0.013,0.669,0.018,0.743,0.0000000,0.0000000,0.000,0.000,0.000,0.000,0,00:00:00,-825,0.000,0.000,91144.844,9.253,0.000,0.000,1.025,-9.770,-0.000,-0.012,-0.020,-0.000,0.000,0.000
29.338,0,0,-3.982,0.814,-7.860,-4.064,0.897,-12.274,-2.076,0.443,-9.432,0.000,0.000,0.0116870,0.000,9144.000,0.014,5.966,9.366,2.247,911.484,9.255,883.454,-0.066,-9.609,0.011,1.066,-0.007,0.024,-0.010,0.000,0.000,0.000,-0.014,0.668,0.017,0.743,0.0000000,0.0000000,0.000,0.000,0.000,0.000,0,00:00:00,-825,0.000,0.000,91144.922,9.253,0.000,0.000,0.998,-9.660,-0.026,-0.008,-0.001,0.024,0.000,0.000
29.439,0,0,-3.979,0.820,-7.880,-4.063,0.899,-12.280,-2.085,0.448,-9.429,0.000,0.000,0.0116870,0.000,9144.000,0.014,6.080,9.595,2.285,911.484,9.255,883.454,-0.103,-9.609,0.011,1.066,-0.007,0.024,-0.010,0.000,0.000,0.000,-0.015,0.668,0.017,0.744,0.0000000,0.0000000,0.000,0.000,0.000,0.000,0,00:00:00,-825,0.000,0.000,91144.922,9.253,0.000,0.000,0.998,-9.660,-0.026,-0.008,-0.001,0.024,0.000,0.000
29.540,0,0,-3.977,0.825,-7.849,-4.072,0.903,-12.263,-2.181,0.475,-9.611,0.000,0.000,0.0116870,0.000,9144.000,0.014,6.137,9.825,2.305,911.442,9.253,883.829,0.256,-9.804,0.032,1.106,0.003,-0.020,-0.011,0.000,0.000,0.000,-0.014,0.667,0.017,0.745,0.0000000,0.0000000,0.000,0.000,0.000,0.000,0,00:00:00,-825,0.000,0.000,91148.719,9.255,0.000,0.000,1.012,-9.753,-0.004,0.010,-0.006,0.023,0.000,0.000
29.641,0,0,-3.975,0.830,-7.934,-4.053,0.902,-12.352,-1.902,0.428,-9.780,0.000,0.000,0.0116870,0.000,9144.000,0.014,6.345,10.056,2.308,911.531,9.258,883.027,-0.550,-9.932,-0.023,0.898,-0.003,-0.027,0.011,0.000,0.000,0.000,-0.015,0.670,0.017,0.742,0.0000000,0.0000000,0.000,0.000,0.000,0.000,0,00:00:00,-825,0.000,0.000,91150.117,9.256,0.000,0.000,1.025,-9.721,-0.104,0.000,0.000,0.001,0.000,0.000
29.742,0,0,-3.972,0.835,-7.921,-4.043,0.924,-12.328,-1.986,0.655,-9.438,0.000,0.000,0.0116870,0.000,9144.000,0.014,5.833,10.290,2.345,911.460,9.254,883.668,0.104,-9.612,0.196,1.006,-0.011,-0.011,0.014,0.000,0.000,0.000,-0.012,0.669,0.021,0.742,0.0000000,0.0000000,0.000,0.000,0.000,0.000,0,00:00:00,-825,0.000,0.000,91146.312,9.254,0.000,0.000,0.953,-9.718,0.006,-0.002,0.005,0.006,0.000,0.000
29.843,0,0,-3.969,0.842,-7.908,-4.049,0.927,-12.295,-2.143,0.471,-9.336,0.000,0.000,0.0116870,0.000,9144.000,0.014,5.936,10.530,2.392,911.456,9.254,883.704,0.109,-9.527,0.024,1.107,0.005,-0.009,0.000,0.000,0.000,0.000,-0.013,0.667,0.019,0.745,0.0000000,0.0000000,0.000,0.000,0.000,0.000,0,00:00:00,-825,0.000,0.000,91140.188,9.250,0.000,0.000,1.010,-9.680,0.052,0.001,0.010,0.012,0.000,0.000
29.944,0,0,-3.966,0.849,-7.907,-4.030,0.956,-12.310,-1.894,0.733,-9.704,0.000,0.000,0.0116870,0.000,9144.000,0.014,6.309,10.770,2.403,911.465,9.254,883.627,0.015,-9.868,0.263,0.922,-0.001,0.020,-0.012,0.000,0.000,0.000,-0.010,0.671,0.022,0.741,0.0000000,0.0000000,0.000,0.000,0.000,0.000,0,00:00:00,-825,0.000,0.000,91151.203,9.257,0.000,0.000,0.959,-9.734,0.036,-0.010,0.009,0.004,0.000,0.000
30.045,0,0,-3.961,0.856,-7.928,-3.999,0.946,-12.336,-1.774,0.352,-9.668,0.000,0.000,0.0116870,0.000,9144.000,0.014,5.763,11.012,2.417,911.484,9.255,883.448,-0.122,-9.798,-0.096,0.858,0.010,-0.006,0.023,0.000,0.000,0.000,-0.014,0.673,0.018,0.739,0.0000000,0.0000000,0.000,0.000,0.000,0.000,0,00:00:00,-825,0.000,0.000,91150.141,9.256,0.000,0.000,1.047,-9.728,0.033,-0.010,0.009,0.001,0.000,0.000
30.146,0,0,-3.954,0.862,-7.921,-3.973,0.947,-12.309,-1.819,0.466,-9.356,0.000,0.000,0.0116870,0.000,9144.000,0.014,5.400,11.258,2.463,911.462,9.254,883.647,0.056,-9.499,0.044,0.906,0.008,-0.045,-0.032,0.000,0.000,0.000,-0.014,0.672,0.017,0.740,0.0000000,0.0000000,0.000,0.000,0.000,0.000,0,00:00:00,-825,0.000,0.000,91151.367,9.257,0.000,0.000,1.002,-9.734,0.023,0.016,-0.010,-0.008,0.000,0.000
30.247,0,0,-3.945,0.868,-7.900,-3.958,0.942,-12.303,-1.917,0.399,-9.655,0.000,0.000,0.0116870,0.000,9144.000,0.014,5.555,11.506,2.478,911.451,9.253,883.753,0.157,-9.803,-0.047,0.974,-0.017,0.024,-0.024,0.000,0.000,0.000,-0.016,0.672,0.016,0.740,0.0000000,0.0000000,0.000,0.000,0.000,0.000,0,00:00:00,-825,0.000,0.000,91136.094,9.248,0.000,0.000,0.986,-9.692,-0.017,0.003,-0.006,-0.000,0.000,0.000
30.348,0,0,-3.937,0.871,-7.957,-3.954,0.916,-12.353,-2.033,0.203,-9.633,0.000,0.000,0.0116870,0.000,9144.000,0.014,5.545,11.755,2.496,911.512,9.257,883.193,-0.379,-9.789,-0.234,1.045,-0.004,0.004,-0.003,0.000,0.000,0.000,-0.020,0.670,0.013,0.742,0.0000000,0.0000000,0.000,0.000,0.000,0.000,0,00:00:00,-825,0.000,0.000,91147.711,9.255,0.000,0.000,1.052,-9.823,0.086,-0.001,-0.002,0.026,0.000,0.000
30.449,0,0,-3.929,0.874,-7.916,-3.942,0.924,-12.299,-1.943,0.535,-9.349,0.000,0.000,0.0116870,0.000,9144.000,0.014,5.807,12.010,2.542,911.443,9.253,883.827,0.282,-9.513,0.094,0.974,-0.001,-0.020,0.026,0.000,0.000,0.000,-0.016,0.670,0.017,0.742,0.0000000,0.0000000,0.000,0.000,0.000,0.000,0,00:00:00,-825,0.000,0.000,91144.914,9.253,0.000,0.000,1.010,-9.805,-0.019,0.000,0.001,-0.011,0.000,0.000
30.550,0,0,-3.921,0.876,-7.963,-3.934,0.926,-12.333,-1.979,0.487,-9.546,0.000,0.000,0.0116870,0.000,9144.000,0.014,5.884,12.266,2.568,911.506,9.257,883.248,-0.329,-9.710,0.015,0.995,-0.014,0.002,0.056,0.000,0.000,0.000,-0.015,0.670,0.019,0.742,0.0000000,0.0000000,0.000,0.000,0.000,0.000,0,00:00:00,-825,0.000,0.000,91151.461,9.257,0.000,0.000,0.987,-9.688,0.031,-0.016,-0.002,-0.007,0.000,0.000
30.651,0,0,-3.912,0.878,-7.948,-3.910,0.901,-12.314,-1.816,0.207,-9.490,0.000,0.000,0.0116870,0.000,9144.000,0.014,5.863,12.526,2.600,911.466,9.254,883.617,0.080,-9.621,-0.247,0.888,-0.003,0.007,-0.027,0.000,0.000,0.000,-0.021,0.672,0.014,0.740,0.0000000,0.0000000,0.000,0.000,0.000,0.000,0,00:00:00,-825,0.000,0.000,91157.547,9.261,0.000,0.000,1.062,-9.839,0.066,-0.004,-0.006,0.003,0.000,0.000
30.752,0,0,-3.902,0.877,-7.938,-3.884,0.874,-12.301,-1.792,0.200,-9.495,0.000,0.000,0.0116870,0.000,9144.000,0.014,5.547,12.790,2.632,911.466,9.254,883.617,0.048,-9.621,-0.247,0.888,-0.003,0.007,-0.027,0.000,0.000,0.000,-0.024,0.673,0.011,0.739,0.0000000,0.0000000,0.000,0.000,0.000,0.000,0,00:00:00,-825,0.000,0.000,91157.547,9.261,0.000,0.000,1.062,-9.839,0.066,-0.004,-0.006,0.003,0.000,0.000
30.853,0,0,-3.892,0.874,-7.946,-3.902,0.863,-12.301,-2.216,0.342,-9.492,0.000,0.000,0.0116870,0.000,9144.000,0.014,5.389,13.056,2.664,911.480,9.255,883.491,-0.075,-9.681,-0.122,1.175,-0.015,-0.012,0.014,0.000,0.000,0.000,-0.023,0.668,0.013,0.744,0.0000000,0.0000000,0.000,0.000,0.000,0.000,0,00:00:00,-825,0.000,0.000,91150.523,9.256,0.000,0.000,1.034,-9.749,-0.032,-0.012,-0.007,-0.005,0.000,0.000
30.954,0,0,-3.884,0.872,-7.984,-3.894,0.877,-12.347,-1.962,0.597,-9.737,0.000,0.000,0.0116870,0.000,9144.000,0.014,6.186,13.323,2.671,911.504,9.256,883.273,-0.286,-9.904,0.066,0.956,-0.038,-0.004,0.031,0.000,0.000,0.000,-0.019,0.670,0.019,0.742,0.0000000,0.0000000,0.000,0.000,0.000,0.000,0,00:00:00,-825,0.000,0.000,91148.930,9.256,0.000,0.000,1.056,-9.648,0.044,-0.005,-0.001,0.011,0.000,0.000
31.055,0,0,-3.876,0.870,-7.984,-3.893,0.869,-12.335,-2.025,0.383,-9.465,0.000,0.000,0.0116870,0.000,9144.000,0.014,5.860,13.593,2.705,911.474,9.255,883.544,-0.037,-9.631,-0.115,1.028,0.013,0.004,-0.010,0.000,0.000,0.000,-0.021,0.669,0.017,0.743,0.0000000,0.0000000,0.000,0.000,0.000,0.000,0,00:00:00,-825,0.000,0.000,91148.805,9.255,0.000,0.000,1.026,-9.782,-0.069,0.010,0.004,0.014,0.000,0.000
31.156,0,0,-3.869,0.867,-8.039,-3.901,0.863,-12.387,-2.111,0.396,-9.691,0.000,0.000,0.0116870,0.000,9144.000,0.014,5.964,13.865,2.717,911.519,9.257,883.130,-0.433,-9.867,-0.097,1.078,0.015,0.025,-0.003,0.000,0.000,0.000,-0.020,0.669,0.016,0.743,0.0000000,0.0000000,0.000,0.000,0.000,0.000,0,00:00:00,-825,0.000,0.000,91151.992,9.257,0.000,0.000,1.061,-9.711,0.068,0.021,-0.025,0.010,0.000,0.000
31.257,0,0,-3.863,0.865,-8.069,-3.914,0.856,-12.403,-2.158,0.380,-9.546,0.000,0.000,0.0116870,0.000,9144.000,0.014,6.027,14.140,2.744,911.503,9.256,883.282,-0.279,-9.732,-0.092,1.096,0.014,-0.022,-0.003,0.000,0.000,0.000,-0.020,0.667,0.015,0.745,0.0000000,0.0000000,0.000,0.000,0.000,0.000,0,00:00:00,-825,0.000,0.000,91144.148,9.253,0.000,0.000,1.085,-9.743,-0.005,0.008,-0.002,-0.007,0.000,0.000
31.358,0,0,-3.858,0.861,-8.087,-3.896,0.844,-12.421,-1.858,0.339,-9.681,0.000,0.000,0.0116870,0.000,9144.000,0.014,6.289,14.415,2.757,911.497,9.256,883.329,-0.206,-9.824,-0.132,0.880,0.005,-0.006,-0.019,0.000,0.000,0.000,-0.021,0.671,0.014,0.741,0.0000000,0.0000000,0.000,0.000,0.000,0.000,0,00:00:00,-825,0.000,0.000,91146.055,9.254,0.000,0.000,0.956,-9.680,0.049,0.000,-0.015,-0.013,0.000,0.000
31.459,0,0,-3.851,0.859,-8.065,-3.855,0.864,-12.396,-1.614,0.650,-9.558,0.000,0.000,0.0116870,0.000,9144.000,0.014,5.718,14.693,2.782,911.464,9.254,883.636,0.064,-9.686,0.146,0.747,-0.029,-0.038,0.001,0.000,0.000,0.000,-0.017,0.674,0.020,0.738,0.0000000,0.0000000,0.000,0.000,0.000,0.000,0,00:00:00,-825,0.000,0.000,91145.203,9.253,0.000,0.000,0.950,-9.695,-0.017,0.005,-0.009,0.004,0.000,0.000
31.560,0,0,-3.841,0.858,-8.091,-3.826,0.882,-12.417,-1.726,0.629,-9.642,0.000,0.000,0.0116870,0.000,9144.000,0.014,5.173,14.973,2.799,911.506,9.257,883.250,-0.264,-9.775,0.161,0.866,0.047,0.005,-0.016,0.000,0.000,0.000,-0.013,0.675,0.020,0.738,0.0000000,0.0000000,0.000,0.000,0.000,0.000,0,00:00:00,-825,0.000,0.000,91154.781,9.259,0.000,0.000,1.042,-9.769,0.030,0.006,-0.014,0.007,0.000,0.000
31.661,0,0,-3.831,0.858,-8.066,-3.819,0.882,-12.391,-1.953,0.449,-9.557,0.000,0.000,0.0116870,0.000,9144.000,0.014,5.105,15.256,2.824,911.462,9.254,883.652,0.078,-9.710,-0.000,1.029,0.008,0.027,-0.039,0.000,0.000,0.000,-0.015,0.672,0.018,0.740,0.0000000,0.0000000,0.000,0.000,0.000,0.000,0,00:00:00,-825,0.000,0.000,91145.773,9.254,0.000,0.000,1.109,-9.734,0.029,-0.007,-0.012,0.006,0.000,0.000
31.762,0,0,-3.821,0.858,-8.080,-3.813,0.879,-12.397,-1.943,0.424,-9.580,0.000,0.000,0.0116870,0.000,9144.000,0.014,5.500,15.540,2.847,911.491,9.256,883.383,-0.185,-9.734,-0.056,0.988,-0.033,-0.006,0.014,0.000,0.000,0.000,-0.017,0.671,0.018,0.741,0.0000000,0.0000000,0.000,0.000,0.000,0.000,0,00:00:00,-825,0.000,0.000,91145.438,9.253,0.000,0.000,0.881,-9.696,0.094,-0.000,0.015,0.014,0.000,0.000
31.863,0,0,-3.811,0.858,-8.077,-3.807,0.881,-12.374,-1.948,0.466,-9.411,0.000,0.000,0.0116870,0.000,9144.000,0.014,5.664,15.829,2.887,911.483,9.255,883.462,-0.084,-9.571,0.018,0.989,0.026,-0.002,-0.005,0.000,0.000,0.000,-0.016,0.670,0.017,0.742,0.0000000,0.0000000,0.000,0.000,0.000,0.000,0,00:00:00,-825,0.000,0.000,91157.719,9.261,0.000,0.000,0.969,-9.649,-0.016,-0.012,0.017,0.013,0.000,0.000
31.964,0,0,-3.800,0.858,-8.075,-3.780,0.877,-12.375,-1.727,0.411,-9.638,0.000,0.000,0.0116870,0.000,9144.000,0.014,5.788,16.119,2.904,911.488,9.255,883.419,-0.093,-9.766,-0.028,0.821,0.018,-0.018,0.008,0.000,0.000,0.000,-0.015,0.673,0.016,0.739,0.0000000,0.0000000,0.000,0.000,0.000,0.000,0,00:00:00,-825,0.000,0.000,91135.594,9.248,0.000,0.000,0.893,-9.734,0.008,0.012,0.000,0.003,0.000,0.000
32.065,0,0,-3.789,0.858,-8.046,-3.772,0.879,-12.342,-1.911,0.469,-9.494,0.000,0.000,0.0116870,0.000,9144.000,0.014,5.346,16.413,2.936,911.465,9.254,883.621,0.100,-9.645,0.026,0.985,-0.005,0.015,0.019,0.000,0.000,0.000,-0.015,0.672,0.018,0.740,0.0000000,0.0000000,0.000,0.000,0.000,0.000,0,00:00:00,-825,0.000,0.000,91142.789,9.252,0.000,0.000,0.963,-9.725,-0.049,0.014,0.001,-0.001,0.000,0.000
32.166,0,0,-3.778,0.858,-8.000,-3.743,0.869,-12.297,-1.704,0.360,-9.475,0.000,0.000,0.0116870,0.000,9144.000,0.014,5.547,16.710,2.969,911.457,9.254,883.697,0.228,-9.597,-0.066,0.834,0.009,0.015,-0.016,0.000,0.000,0.000,-0.016,0.674,0.015,0.738,0.0000000,0.0000000,0.000,0.000,0.000,0.000,0,00:00:00,-825,0.000,0.000,91144.875,9.253,0.000,0.000,1.084,-9.727,-0.102,0.000,0.000,0.013,0.000,0.000
32.267,0,0,-3.766,0.857,-7.981,-3.739,0.884,-12.290,-1.937,0.594,-9.608,0.000,0.000,0.0116870,0.000,9144.000,0.014,5.214,17.009,2.989,911.482,9.255,883.473,0.051,-9.766,0.141,1.011,-0.011,0.023,0.010,0.000,0.000,0.000,-0.013,0.672,0.019,0.740,0.0000000,0.0000000,0.000,0.000,0.000,0.000,0,00:00:00,-825,0.000,0.000,91146.875,9.254,0.000,0.000,1.074,-9.738,0.027,0.012,0.012,0.012,0.000,0.000
32.368,0,0,-3.755,0.858,-7.923,-3.746,0.883,-12.241,-2.042,0.447,-9.494,0.000,0.000,0.0116870,0.000,9144.000,0.015,5.498,17.311,3.021,911.447,9.253,883.785,0.349,-9.663,-0.012,1.059,-0.014,-0.002,0.004,0.000,0.000,0.000,-0.015,0.670,0.018,0.742,0.0000000,0.0000000,0.000,0.000,0.000,0.000,0,00:00:00,-825,0.000,0.000,91149.992,9.256,0.000,0.000,1.026,-9.771,-0.050,0.005,-0.008,-0.004,0.000,0.000
32.469,0,0,-3.746,0.858,-7.866,-3.756,0.884,-12.197,-2.075,0.460,-9.486,0.000,0.000,0.0116870,0.000,9144.000,0.015,5.884,17.616,3.053,911.447,9.253,883.785,0.368,-9.663,-0.012,1.059,-0.014,-0.002,0.004,0.000,0.000,0.000,-0.016,0.668,0.018,0.743,0.0000000,0.0000000,0.000,0.000,0.000,0.000,0,00:00:00,-825,0.000,0.000,91149.992,9.256,0.000,0.000,1.026,-9.771,-0.050,0.005,-0.008,-0.004,0.000,0.000
32.570,0,0,-3.737,0.859,-7.846,-3.744,0.894,-12.200,-1.846,0.549,-9.655,0.000,0.000,0.0116870,0.000,9144.000,0.015,6.077,17.923,3.069,911.473,9.255,883.552,0.135,-9.805,0.044,0.892,-0.026,0.004,-0.002,0.000,0.000,0.000,-0.016,0.671,0.020,0.741,0.0000000,0.0000000,0.000,0.000,0.000,0.000,0,00:00:00,-825,0.000,0.000,91145.492,9.253,0.000,0.000,1.037,-9.752,0.082,0.005,-0.013,-0.001,0.000,0.000
32.671,0,0,-3.730,0.861,-7.801,-3.751,0.914,-12.172,-2.031,0.654,-9.533,0.000,0.000,0.0116870,0.000,9144.000,0.015,5.627,18.233,3.096,911.450,9.253,883.755,0.335,-9.712,0.163,1.044,0.015,-0.010,-0.011,0.000,0.000,0.000,-0.013,0.670,0.021,0.742,0.0000000,0.0000000,0.000,0.000,0.000,0.000,0,00:00:00,-825,0.000,0.000,91147.617,9.255,0.000,0.000,1.024,-9.684,0.001,0.012,0.012,-0.012,0.000,0.000
32.772,0,0,-3.723,0.865,-7.756,-3.761,0.933,-12.146,-2.052,0.642,-9.530,0.000,0.000,0.0116870,0.000,9144.000,0.015,5.909,18.545,3.125,911.450,9.253,883.755,0.358,-9.712,0.163,1.044,0.015,-0.010,-0.011,0.000,0.000,0.000,-0.011,0.669,0.022,0.743,0.0000000,0.0000000,0.000,0.000,0.000,0.000,0,00:00:00,-825,0.000,0.000,91147.617,9.255,0.000,0.000,1.024,-9.684,0.001,0.012,0.012,-0.012,0.000,0.000
32.873,0,0,-3.719,0.869,-7.757,-3.779,0.942,-12.171,-2.136,0.540,-9.675,0.000,0.000,0.0116870,0.000,9144.000,0.015,6.050,18.859,3.138,911.483,9.255,883.462,0.068,-9.863,0.056,1.087,-0.001,-0.001,-0.004,0.000,0.000,0.000,-0.013,0.668,0.021,0.744,0.0000000,0.0000000,0.000,0.000,0.000,0.000,0,00:00:00,-825,0.000,0.000,91143.133,9.252,0.000,0.000,1.030,-9.706,0.023,0.012,-0.004,0.008,0.000,0.000
32.974,0,0,-3.716,0.874,-7.758,-3.784,0.941,-12.179,-2.004,0.453,-9.518,0.000,0.000,0.0116870,0.000,9144.000,0.015,6.174,19.176,3.167,911.481,9.255,883.480,0.071,-9.685,-0.020,1.004,-0.003,0.025,0.003,0.000,0.000,0.000,-0.015,0.669,0.019,0.743,0.0000000,0.0000000,0.000,0.000,0.000,0.000,0,00:00:00,-825,0.000,0.000,91150.805,9.257,0.000,0.000,1.070,-9.703,-0.028,0.011,0.010,-0.002,0.000,0.000
33.075,0,0,-3.715,0.879,-7.725,-3.822,0.956,-12.152,-2.328,0.611,-9.443,0.000,0.000,0.0116870,0.000,9144.000,0.015,5.974,19.496,3.204,911.452,9.253,883.742,0.326,-9.667,0.117,1.225,-0.018,-0.015,-0.006,0.000,0.000,0.000,-0.014,0.665,0.021,0.747,0.0000000,0.0000000,0.000,0.000,0.000,0.000,0,00:00:00,-825,0.000,0.000,91146.008,9.254,0.000,0.000,1.056,-9.761,-0.074,-0.009,0.013,0.003,0.000,0.000
33.176,0,0,-3.716,0.884,-7.764,-3.824,0.961,-12.189,-1.975,0.513,-9.518,0.000,0.000,0.0116870,0.000,9144.000,0.015,6.641,19.819,3.233,911.501,9.256,883.296,-0.177,-9.687,0.023,0.957,-0.004,0.020,-0.034,0.000,0.000,0.000,-0.016,0.668,0.020,0.743,0.0000000,0.0000000,0.000,0.000,0.000,0.000,0,00:00:00,-825,0.000,0.000,91152.875,9.258,0.000,0.000,0.988,-9.700,-0.050,0.000,0.002,-0.017,0.000,0.000
33.277,0,0,-3.718,0.889,-7.795,-3.832,0.968,-12.222,-2.040,0.540,-9.555,0.000,0.000,0.0116870,0.000,9144.000,0.015,6.082,20.145,3.259,911.494,9.256,883.357,-0.135,-9.731,0.051,1.027,0.007,0.008,0.022,0.000,0.000,0.000,-0.015,0.669,0.020,0.743,0.0000000,0.0000000,0.000,0.000,0.000,0.000,0,00:00:00,-825,0.000,0.000,91150.164,9.256,0.000,0.000,1.002,-9.800,0.014,0.019,0.005,0.002,0.000,0.000
33.378,0,0,-3.720,0.895,-7.829,-3.844,0.978,-12.247,-2.077,0.570,-9.494,0.000,0.000,0.0116870,0.000,9144.000,0.015,6.032,20.474,3.290,911.493,9.256,883.372,-0.166,-9.679,0.068,1.045,-0.016,-0.032,-0.015,0.000,0.000,0.000,-0.015,0.668,0.021,0.744,0.0000000,0.0000000,0.000,0.000,0.000,0.000,0,00:00:00,-825,0.000,0.000,91146.938,9.254,0.000,0.000,0.974,-9.626,-0.108,0.011,0.017,0.005,0.000,0.000
33.479,0,0,-3.723,0.900,-7.836,-3.849,0.978,-12.257,-2.001,0.474,-9.557,0.000,0.000,0.0116870,0.000,9144.000,0.015,6.188,20.806,3.315,911.472,9.254,883.563,0.010,-9.725,-0.016,0.994,0.007,0.009,-0.025,0.000,0.000,0.000,-0.017,0.669,0.019,0.743,0.0000000,0.0000000,0.000,0.000,0.000,0.000,0,00:00:00,-825,0.000,0.000,91147.148,9.254,0.000,0.000,1.038,-9.785,0.011,0.001,-0.006,-0.008,0.000,0.000
33.580,0,0,-3.726,0.905,-7.835,-3.847,0.979,-12.267,-1.941,0.485,-9.626,0.000,0.000,0.0116870,0.000,9144.000,0.015,5.985,21.139,3.334,911.462,9.254,883.650,0.067,-9.785,0.011,0.960,0.022,-0.002,0.022,0.000,0.000,0.000,-0.015,0.670,0.019,0.742,0.0000000,0.0000000,0.000,0.000,0.000,0.000,0,00:00:00,-825,0.000,0.000,91149.109,9.256,0.000,0.000,1.009,-9.756,-0.018,0.017,0.002,0.006,0.000,0.000
33.681,0,0,-3.728,0.910,-7.837,-3.843,0.978,-12.279,-1.925,0.467,-9.630,0.000,0.000,0.0116870,0.000,9144.000,0.015,5.798,21.474,3.352,911.462,9.254,883.650,0.057,-9.785,0.011,0.960,0.022,-0.002,0.022,0.000,0.000,0.000,-0.015,0.671,0.018,0.741,0.0000000,0.0000000,0.000,0.000,0.000,0.000,0,00:00:00,-825,0.000,0.000,91149.109,9.256,0.000,0.000,1.009,-9.756,-0.018,0.017,0.002,0.006,0.000,0.000
33.782,0,0,-3.730,0.914,-7.915,-3.847,0.984,-12.330,-1.997,0.540,-9.465,0.000,0.000,0.0116870,0.000,9144.000,0.016,5.705,21.813,3.386,911.518,9.257,883.140,-0.490,-9.634,0.077,1.024,-0.004,0.006,0.053,0.000,0.000,0.000,-0.013,0.670,0.020,0.742,0.0000000,0.0000000,0.000,0.000,0.000,0.000,0,00:00:00,-825,0.000,0.000,91150.016,9.256,0.000,0.000,1.045,-9.681,0.007,-0.001,0.001,0.009,0.000,0.000
33.883,0,0,-3.731,0.919,-7.884,-3.836,0.988,-12.312,-1.855,0.521,-9.622,0.000,0.000,0.0116870,0.000,9144.000,0.016,5.868,22.154,3.405,911.437,9.252,883.880,0.249,-9.771,0.046,0.909,-0.007,-0.007,0.008,0.000,0.000,0.000,-0.014,0.672,0.020,0.741,0.0000000,0.0000000,0.000,0.000,0.000,0.000,0,00:00:00,-825,0.000,0.000,91147.875,9.255,0.000,0.000,0.998,-9.756,0.019,0.013,0.013,0.005,0.000,0.000
33.984,0,0,-3.732,0.922,-7.880,-3.827,0.976,-12.325,-1.869,0.370,-9.723,0.000,0.000,0.0116870,0.000,9144.000,0.016,5.610,22.495,3.414,911.455,9.253,883.716,0.079,-9.864,-0.075,0.929,0.032,-0.001,0.016,0.000,0.000,0.000,-0.015,0.672,0.017,0.740,0.0000000,0.0000000,0.000,0.000,0.000,0.000,0,00:00:00,-825,0.000,0.000,91145.992,9.254,0.000,0.000,1.048,-9.814,-0.008,0.013,0.003,0.004,0.000,0.000
34.085,0,0,-3.731,0.924,-7.879,-3.816,0.961,-12.339,-1.860,0.337,-9.726,0.000,0.000,0.0116870,0.000,9144.000,0.016,5.498,22.837,3.422,911.455,9.253,883.716,0.067,-9.864,-0.075,0.929,0.032,-0.001,0.016,0.000,0.000,0.000,-0.015,0.673,0.015,0.740,0.0000000,0.0000000,0.000,0.000,0.000,0.000,0,00:00:00,-825,0.000,0.000,91145.992,9.254,0.000,0.000,1.048,-9.814,-0.008,0.013,0.003,0.004,0.000,0.000
34.186,0,0,-3.730,0.925,-7.874,-3.806,0.943,-12.350,-1.856,0.306,-9.728,0.000,0.000,0.0116870,0.000,9144.000,0.015,5.442,23.180,3.430,911.455,9.253,883.716,0.107,-9.864,-0.075,0.929,0.032,-0.001,0.016,0.000,0.000,0.000,-0.015,0.673,0.013,0.740,0.0000000,0.0000000,0.000,0.000,0.000,0.000,0,00:00:00,-825,0.000,0.000,91145.992,9.254,0.000,0.000,1.048,-9.814,-0.008,0.013,0.003,0.004,0.000,0.000
34.287,0,0,-3.729,0.924,-7.920,-3.817,0.943,-12.371,-2.071,0.488,-9.451,0.000,0.000,0.0116870,0.000,9144.000,0.016,5.415,23.527,3.466,911.496,9.256,883.344,-0.253,-9.626,0.092,1.086,-0.021,0.001,-0.014,0.000,0.000,0.000,-0.013,0.670,0.016,0.743,0.0000000,0.0000000,0.000,0.000,0.000,0.000,0,00:00:00,-825,0.000,0.000,91149.594,9.256,0.000,0.000,0.999,-9.715,0.008,-0.014,-0.015,0.023,0.000,0.000
34.388,0,0,-3.727,0.924,-7.955,-3.793,0.936,-12.378,-1.722,0.418,-9.402,0.000,0.000,0.0116870,0.000,9144.000,0.016,5.923,23.878,3.507,911.496,9.256,883.342,-0.213,-9.531,0.037,0.831,0.013,0.018,0.004,0.000,0.000,0.000,-0.012,0.673,0.016,0.739,0.0000000,0.0000000,0.000,0.000,0.000,0.000,0,00:00:00,-825,0.000,0.000,91155.734,9.260,0.000,0.000,1.028,-9.778,-0.020,0.003,-0.002,-0.000,0.000,0.000
34.489,0,0,-3.724,0.922,-7.981,-3.788,0.930,-12.397,-1.912,0.428,-9.621,0.000,0.000,0.0116870,0.000,9144.000,0.016,5.400,24.230,3.526,911.493,9.256,883.369,-0.164,-9.770,0.030,0.974,-0.009,0.001,-0.012,0.000,0.000,0.000,-0.013,0.672,0.016,0.740,0.0000000,0.0000000,0.000,0.000,0.000,0.000,0,00:00:00,-825,0.000,0.000,91149.922,9.256,0.000,0.000,0.992,-9.796,0.003,-0.008,0.008,0.002,0.000,0.000
34.590,0,0,-3.719,0.920,-7.978,-3.746,0.916,-12.390,-1.540,0.346,-9.569,0.000,0.000,0.0116870,0.000,9144.000,0.016,5.544,24.585,3.550,911.472,9.254,883.563,0.019,-9.671,-0.023,0.727,0.023,0.028,-0.008,0.000,0.000,0.000,-0.013,0.676,0.014,0.736,0.0000000,0.0000000,0.000,0.000,0.000,0.000,0,00:00:00,-825,0.000,0.000,91146.586,9.254,0.000,0.000,1.025,-9.801,-0.036,-0.001,0.000,0.026,0.000,0.000
34.691,0,0,-3.712,0.917,-7.975,-3.728,0.908,-12.394,-1.777,0.397,-9.690,0.000,0.000,0.0116870,0.000,9144.000,0.016,4.841,24.941,3.562,911.472,9.254,883.561,0.028,-9.817,0.011,0.917,-0.008,0.014,0.022,0.000,0.000,0.000,-0.013,0.675,0.015,0.737,0.0000000,0.0000000,0.000,0.000,0.000,0.000,0,00:00:00,-825,0.000,0.000,91143.844,9.253,0.000,0.000,1.144,-9.621,-0.043,0.008,-0.005,-0.001,0.000,0.000
34.792,0,0,-3.704,0.914,-7.963,-3.713,0.900,-12.392,-1.794,0.407,-9.687,0.000,0.000,0.0116870,0.000,9144.000,0.016,5.051,25.299,3.574,911.472,9.254,883.561,0.090,-9.817,0.011,0.917,-0.008,0.014,0.022,0.000,0.000,0.000,-0.013,0.674,0.016,0.738,0.0000000,0.0000000,0.000,0.000,0.000,0.000,0,00:00:00,-825,0.000,0.000,91143.844,9.253,0.000,0.000,1.144,-9.621,-0.043,0.008,-0.005,-0.001,0.000,0.000
34.893,0,0,-3.698,0.910,-8.015,-3.742,0.886,-12.418,-2.237,0.335,-9.492,0.000,0.000,0.0116870,0.000,9144.000,0.016,5.156,25.659,3.606,911.516,9.257,883.159,-0.354,-9.681,-0.042,1.216,0.011,0.023,0.001,0.000,0.000,0.000,-0.013,0.668,0.014,0.744,0.0000000,0.0000000,0.000,0.000,0.000,0.000,0,00:00:00,-825,0.000,0.000,91148.953,9.256,0.000,0.000,0.940,-9.687,0.062,0.003,-0.001,0.018,0.000,0.000
34.994,0,0,-3.694,0.905,-8.001,-3.760,0.877,-12.393,-2.122,0.392,-9.485,0.000,0.000,0.0116870,0.000,9144.000,0.016,6.093,26.023,3.639,911.467,9.254,883.609,0.072,-9.668,0.032,1.078,0.019,-0.007,-0.008,0.000,0.000,0.000,-0.012,0.667,0.014,0.744,0.0000000,0.0000000,0.000,0.000,0.000,0.000,0,00:00:00,-825,0.000,0.000,91148.672,9.255,0.000,0.000,0.959,-9.710,0.057,0.011,-0.002,0.007,0.000,0.000
35.095,0,0,-3.691,0.900,-7.981,-3.759,0.871,-12.382,-1.926,0.414,-9.668,0.000,0.000,0.0116870,0.000,9144.000,0.016,6.246,26.389,3.653,911.461,9.254,883.656,0.122,-9.822,0.032,0.939,-0.013,0.015,0.022,0.000,0.000,0.000,-0.012,0.670,0.015,0.742,0.0000000,0.0000000,0.000,0.000,0.000,0.000,0,00:00:00,-825,0.000,0.000,91157.352,9.260,0.000,0.000,1.081,-9.731,0.021,-0.001,-0.002,-0.000,0.000,0.000
35.196,0,0,-3.688,0.895,-7.970,-3.754,0.867,-12.379,-1.888,0.429,-9.675,0.000,0.000,0.0116870,0.000,9144.000,0.016,5.809,26.755,3.666,911.461,9.254,883.656,0.080,-9.822,0.032,0.939,-0.013,0.015,0.022,0.000,0.000,0.000,-0.012,0.672,0.016,0.741,0.0000000,0.0000000,0.000,0.000,0.000,0.000,0,00:00:00,-825,0.000,0.000,91157.352,9.260,0.000,0.000,1.081,-9.731,0.021,-0.001,-0.002,-0.000,0.000,0.000
35.297,0,0,-3.685,0.891,-7.959,-3.747,0.865,-12.378,-1.870,0.444,-9.678,0.000,0.000,0.0116870,0.000,9144.000,0.016,5.591,27.123,3.680,911.461,9.254,883.656,0.081,-9.822,0.032,0.939,-0.013,0.015,0.022,0.000,0.000,0.000,-0.012,0.672,0.017,0.740,0.0000000,0.0000000,0.000,0.000,0.000,0.000,0,00:00:00,-825,0.000,0.000,91157.352,9.260,0.000,0.000,1.081,-9.731,0.021,-0.001,-0.002,-0.000,0.000,0.000
35.398,0,0,-3.682,0.886,-7.949,-3.739,0.864,-12.377,-1.860,0.458,-9.679,0.000,0.000,0.0116870,0.000,9144.000,0.016,5.481,27.492,3.693,911.461,9.254,883.656,0.084,-9.822,0.032,0.939,-0.013,0.015,0.022,0.000,0.000,0.000,-0.013,0.673,0.018,0.740,0.0000000,0.0000000,0.000,0.000,0.000,0.000,0,00:00:00,-825,0.000,0.000,91157.352,9.260,0.000,0.000,1.081,-9.731,0.021,-0.001,-0.002,-0.000,0.000,0.000
35.499,0,0,-3.680,0.881,-7.934,-3.772,0.846,-12.355,-2.261,0.289,-9.505,0.000,0.000,0.0116870,0.000,9144.000,0.016,5.427,27.865,3.723,911.459,9.254,883.680,0.128,-9.700,-0.120,1.202,0.011,-0.023,0.038,0.000,0.000,0.000,-0.015,0.667,0.015,0.745,0.0000000,0.0000000,0.000,0.000,0.000,0.000,0,00:00:00,-825,0.000,0.000,91157.195,9.260,0.000,0.000,1.011,-9.677,-0.033,0.002,0.001,-0.017,0.000,0.000
35.600,0,0,-3.682,0.875,-7.917,-3.812,0.828,-12.333,-2.335,0.279,-9.488,0.000,0.000,0.0116870,0.000,9144.000,0.016,6.310,28.240,3.755,911.459,9.254,883.680,0.137,-9.700,-0.120,1.202,0.011,-0.023,0.038,0.000,0.000,0.000,-0.016,0.664,0.014,0.747,0.0000000,0.0000000,0.000,0.000,0.000,0.000,0,00:00:00,-825,0.000,0.000,91157.195,9.260,0.000,0.000,1.011,-9.677,-0.033,0.002,0.001,-0.017,0.000,0.000
35.701,0,0,-3.686,0.869,-7.910,-3.826,0.830,-12.316,-2.074,0.473,-9.457,0.000,0.000,0.0116870,0.000,9144.000,0.016,6.752,28.619,3.791,911.467,9.254,883.604,0.069,-9.640,0.068,1.009,-0.004,-0.009,-0.011,0.000,0.000,0.000,-0.014,0.666,0.016,0.745,0.0000000,0.0000000,0.000,0.000,0.000,0.000,0,00:00:00,-825,0.000,0.000,91156.352,9.260,0.000,0.000,0.911,-9.691,-0.041,-0.007,-0.016,-0.020,0.000,0.000
35.802,0,0,-3.690,0.863,-7.857,-3.825,0.832,-12.278,-1.931,0.472,-9.582,0.000,0.000,0.0116870,0.000,9144.000,0.016,6.388,29.001,3.813,911.426,9.252,883.980,0.404,-9.742,0.045,0.929,-0.016,-0.009,0.004,0.000,0.000,0.000,-0.014,0.669,0.017,0.743,0.0000000,0.0000000,0.000,0.000,0.000,0.000,0,00:00:00,-825,0.000,0.000,91155.719,9.260,0.000,0.000,1.007,-9.788,0.035,-0.019,-0.003,-0.006,0.000,0.000
35.903,0,0,-3.694,0.858,-7.915,-3.836,0.820,-12.321,-2.054,0.338,-9.526,0.000,0.000,0.0116870,0.000,9144.000,0.016,5.945,29.385,3.842,911.518,9.257,883.142,-0.363,-9.694,-0.096,1.046,-0.021,0.018,-0.036,0.000,0.000,0.000,-0.017,0.669,0.015,0.743,0.0000000,0.0000000,0.000,0.000,0.000,0.000,0,00:00:00,-825,0.000,0.000,91147.820,9.255,0.000,0.000,1.149,-9.780,0.048,-0.012,0.014,-0.006,0.000,0.000
36.004,0,0,-3.699,0.852,-7.967,-3.848,0.810,-12.355,-2.060,0.350,-9.525,0.000,0.000,0.0116870,0.000,9144.000,0.016,5.998,29.772,3.870,911.518,9.257,883.142,-0.352,-9.694,-0.096,1.046,-0.021,0.018,-0.036,0.000,0.000,0.000,-0.019,0.669,0.014,0.743,0.0000000,0.0000000,0.000,0.000,0.000,0.000,0,00:00:00,-825,0.000,0.000,91147.820,9.255,0.000,0.000,1.149,-9.780,0.048,-0.012,0.014,-0.006,0.000,0.000
36.105,0,0,-3.704,0.846,-7.915,-3.855,0.818,-12.311,-2.018,0.526,-9.531,0.000,0.000,0.0116870,0.000,9144.000,0.016,6.025,30.162,3.898,911.441,9.253,883.843,0.355,-9.704,0.064,1.006,-0.011,-0.018,-0.021,0.000,0.000,0.000,-0.017,0.669,0.017,0.743,0.0000000,0.0000000,0.000,0.000,0.000,0.000,0,00:00:00,-825,0.000,0.000,91151.273,9.257,0.000,0.000,1.053,-9.809,-0.024,0.008,0.012,-0.012,0.000,0.000
36.206,0,0,-3.710,0.842,-7.866,-3.861,0.828,-12.272,-2.016,0.539,-9.531,0.000,0.000,0.0116870,0.000,9144.000,0.017,6.021,30.554,3.926,911.441,9.253,883.843,0.361,-9.704,0.064,1.006,-0.011,-0.018,-0.021,0.000,0.000,0.000,-0.016,0.669,0.018,0.743,0.0000000,0.0000000,0.000,0.000,0.000,0.000,0,00:00:00,-825,0.000,0.000,91151.273,9.257,0.000,0.000,1.053,-9.809,-0.024,0.008,0.012,-0.012,0.000,0.000
36.307,0,0,-3.716,0.839,-7.908,-3.884,0.838,-12.309,-2.184,0.540,-9.592,0.000,0.000,0.0116870,0.000,9144.000,0.017,6.019,30.949,3.948,911.506,9.257,883.251,-0.263,-9.788,0.101,1.126,0.040,0.008,-0.040,0.000,0.000,0.000,-0.013,0.667,0.018,0.744,0.0000000,0.0000000,0.000,0.000,0.000,0.000,0,00:00:00,-825,0.000,0.000,91151.188,9.257,0.000,0.000,0.984,-9.706,-0.067,0.006,0.004,0.009,0.000,0.000
36.408,0,0,-3.724,0.837,-7.905,-3.913,0.829,-12.298,-2.239,0.348,-9.466,0.000,0.000,0.0116870,0.000,9144.000,0.017,6.266,31.347,3.982,911.470,9.254,883.582,0.038,-9.666,-0.085,1.145,-0.010,-0.010,-0.019,0.000,0.000,0.000,-0.016,0.665,0.016,0.746,0.0000000,0.0000000,0.000,0.000,0.000,0.000,0,00:00:00,-825,0.000,0.000,91155.781,9.260,0.000,0.000,0.975,-9.745,0.009,0.003,-0.006,0.003,0.000,0.000
36.509,0,0,-3.734,0.835,-7.885,-3.951,0.841,-12.278,-2.341,0.564,-9.496,0.000,0.000,0.0116870,0.000,9144.000,0.017,6.539,31.749,4.014,911.453,9.253,883.733,0.157,-9.722,0.133,1.198,0.014,-0.018,-0.005,0.000,0.000,0.000,-0.013,0.664,0.018,0.748,0.0000000,0.0000000,0.000,0.000,0.000,0.000,0,00:00:00,-825,0.000,0.000,91151.094,9.257,0.000,0.000,1.077,-9.758,0.010,-0.005,-0.002,-0.011,0.000,0.000
36.610,0,0,-3.745,0.833,-7.913,-3.949,0.839,-12.310,-1.953,0.420,-9.648,0.000,0.000,0.0116870,0.000,9144.000,0.017,6.831,32.152,4.030,911.488,9.255,883.412,-0.176,-9.810,-0.017,0.919,-0.001,-0.002,0.031,0.000,0.000,0.000,-0.014,0.668,0.017,0.743,0.0000000,0.0000000,0.000,0.000,0.000,0.000,0,00:00:00,-825,0.000,0.000,91142.930,9.252,0.000,0.000,0.992,-9.786,0.042,-0.009,0.006,-0.001,0.000,0.000
36.711,0,0,-3.755,0.832,-7.916,-3.945,0.838,-12.316,-1.931,0.425,-9.596,0.000,0.000,0.0116870,0.000,9144.000,0.017,6.096,32.557,4.051,911.469,9.254,883.586,-0.005,-9.752,0.004,0.942,0.009,-0.017,-0.021,0.000,0.000,0.000,-0.014,0.670,0.016,0.742,0.0000000,0.0000000,0.000,0.000,0.000,0.000,0,00:00:00,-825,0.000,0.000,91151.422,9.257,0.000,0.000,0.963,-9.638,0.009,0.001,-0.005,-0.009,0.000,0.000
36.812,0,0,-3.764,0.830,-8.003,-3.958,0.829,-12.378,-2.108,0.351,-9.532,0.000,0.000,0.0116870,0.000,9144.000,0.017,5.856,32.965,4.079,911.531,9.258,883.024,-0.609,-9.707,-0.075,1.086,-0.015,0.017,-0.017,0.000,0.000,0.000,-0.016,0.668,0.015,0.743,0.0000000,0.0000000,0.000,0.000,0.000,0.000,0,00:00:00,-825,0.000,0.000,91150.469,9.256,0.000,0.000,0.990,-9.761,-0.067,0.007,0.009,0.006,0.000,0.000
36.913,0,0,-3.774,0.828,-8.026,-3.974,0.834,-12.384,-2.150,0.480,-9.492,0.000,0.000,0.0116870,0.000,9144.000,0.017,6.072,33.376,4.111,911.486,9.255,883.432,-0.200,-9.681,0.054,1.109,0.005,0.029,0.000,0.000,0.000,0.000,-0.014,0.668,0.017,0.744,0.0000000,0.0000000,0.000,0.000,0.000,0.000,0,00:00:00,-825,0.000,0.000,91147.250,9.255,0.000,0.000,1.059,-9.878,-0.073,0.004,0.001,-0.002,0.000,0.000
37.014,0,0,-3.784,0.826,-7.984,-3.997,0.812,-12.342,-2.218,0.219,-9.507,0.000,0.000,0.0116870,0.000,9144.000,0.017,6.220,33.790,4.141,911.442,9.253,883.829,0.244,-9.696,-0.213,1.138,-0.020,0.011,-0.002,0.000,0.000,0.000,-0.019,0.666,0.013,0.746,0.0000000,0.0000000,0.000,0.000,0.000,0.000,0,00:00:00,-825,0.000,0.000,91151.680,9.257,0.000,0.000,1.016,-9.845,0.103,0.012,0.006,-0.012,0.000,0.000
37.115,0,0,-3.794,0.823,-7.978,-3.984,0.823,-12.326,-1.863,0.539,-9.465,0.000,0.000,0.0116870,0.000,9144.000,0.017,6.425,34.208,4.176,911.467,9.254,883.609,0.005,-9.619,0.078,0.903,-0.018,0.044,0.030,0.000,0.000,0.000,-0.016,0.670,0.018,0.742,0.0000000,0.0000000,0.000,0.000,0.000,0.000,0,00:00:00,-825,0.000,0.000,91143.969,9.253,0.000,0.000,1.016,-9.696,-0.093,0.019,-0.001,-0.001,0.000,0.000
37.216,0,0,-3.803,0.822,-7.991,-3.984,0.831,-12.346,-2.000,0.510,-9.687,0.000,0.000,0.0116870,0.000,9144.000,0.017,5.766,34.626,4.188,911.479,9.255,883.497,-0.125,-9.852,0.050,1.014,0.017,0.010,0.015,0.000,0.000,0.000,-0.014,0.670,0.018,0.742,0.0000000,0.0000000,0.000,0.000,0.000,0.000,0,00:00:00,-825,0.000,0.000,91146.875,9.254,0.000,0.000,1.040,-9.705,-0.034,0.001,0.006,0.006,0.000,0.000
37.317,0,0,-3.810,0.820,-8.001,-3.978,0.824,-12.347,-1.949,0.369,-9.513,0.000,0.000,0.0116870,0.000,9144.000,0.017,5.791,35.048,4.218,911.482,9.255,883.468,-0.114,-9.667,-0.092,0.980,-0.012,0.004,0.034,0.000,0.000,0.000,-0.017,0.670,0.017,0.742,0.0000000,0.0000000,0.000,0.000,0.000,0.000,0,00:00:00,-825,0.000,0.000,91150.328,9.256,0.000,0.000,0.944,-9.668,0.051,0.011,0.009,0.007,0.000,0.000
37.418,0,0,-3.817,0.818,-8.041,-3.980,0.812,-12.383,-2.022,0.305,-9.644,0.000,0.000,0.0116870,0.000,9144.000,0.017,5.779,35.472,4.234,911.508,9.257,883.237,-0.337,-9.804,-0.153,1.022,-0.006,-0.001,-0.059,0.000,0.000,0.000,-0.020,0.670,0.014,0.742,0.0000000,0.0000000,0.000,0.000,0.000,0.000,0,00:00:00,-825,0.000,0.000,91139.445,9.250,0.000,0.000,1.071,-9.764,-0.020,0.001,-0.004,0.010,0.000,0.000
37.519,0,0,-3.823,0.816,-8.061,-3.977,0.820,-12.396,-1.978,0.510,-9.597,0.000,0.000,0.0116870,0.000,9144.000,0.017,5.867,35.897,4.256,911.493,9.256,883.371,-0.209,-9.763,0.066,0.982,0.020,-0.028,-0.009,0.000,0.000,0.000,-0.016,0.670,0.016,0.742,0.0000000,0.0000000,0.000,0.000,0.000,0.000,0,00:00:00,-825,0.000,0.000,91142.516,9.252,0.000,0.000,1.063,-9.764,-0.065,0.014,-0.001,0.001,0.000,0.000
37.620,0,0,-3.828,0.814,-8.030,-3.981,0.818,-12.373,-2.059,0.410,-9.627,0.000,0.000,0.0116870,0.000,9144.000,0.018,5.887,36.325,4.274,911.457,9.254,883.696,0.143,-9.798,-0.043,1.039,-0.009,-0.014,-0.005,0.000,0.000,0.000,-0.017,0.669,0.016,0.743,0.0000000,0.0000000,0.000,0.000,0.000,0.000,0,00:00:00,-825,0.000,0.000,91150.656,9.257,0.000,0.000,0.978,-9.761,0.032,0.005,-0.007,-0.005,0.000,0.000
37.721,0,0,-3.833,0.812,-8.021,-3.987,0.813,-12.365,-2.069,0.374,-9.597,0.000,0.000,0.0116870,0.000,9144.000,0.018,6.008,36.754,4.295,911.473,9.255,883.554,0.002,-9.768,-0.049,1.047,0.031,0.009,0.017,0.000,0.000,0.000,-0.016,0.669,0.015,0.743,0.0000000,0.0000000,0.000,0.000,0.000,0.000,0,00:00:00,-825,0.000,0.000,91145.289,9.253,0.000,0.000,1.105,-9.791,-0.046,-0.012,-0.008,-0.013,0.000,0.000
37.822,0,0,-3.838,0.810,-8.038,-3.985,0.802,-12.377,-2.004,0.322,-9.592,0.000,0.000,0.0116870,0.000,9144.000,0.018,6.038,37.186,4.317,911.503,9.256,883.277,-0.179,-9.752,-0.075,1.002,0.026,0.011,0.012,0.000,0.000,0.000,-0.016,0.669,0.014,0.743,0.0000000,0.0000000,0.000,0.000,0.000,0.000,0,00:00:00,-825,0.000,0.000,91143.508,9.252,0.000,0.000,1.035,-9.787,-0.086,0.000,-0.002,-0.008,0.000,0.000
37.923,0,0,-3.842,0.808,-8.013,-3.970,0.809,-12.360,-1.869,0.498,-9.624,0.000,0.000,0.0116870,0.000,9144.000,0.018,5.921,37.619,4.336,911.468,9.254,883.595,0.110,-9.772,0.081,0.919,-0.015,0.012,-0.013,0.000,0.000,0.000,-0.014,0.671,0.016,0.741,0.0000000,0.0000000,0.000,0.000,0.000,0.000,0,00:00:00,-825,0.000,0.000,91145.367,9.253,0.000,0.000,0.996,-9.728,-0.012,0.000,-0.014,0.012,0.000,0.000
38.024,0,0,-3.845,0.807,-8.057,-3.984,0.823,-12.400,-2.161,0.555,-9.679,0.000,0.000,0.0116870,0.000,9144.000,0.018,5.612,38.054,4.349,911.513,9.257,883.191,-0.363,-9.867,0.146,1.129,0.019,-0.002,-0.012,0.000,0.000,0.000,-0.011,0.669,0.018,0.743,0.0000000,0.0000000,0.000,0.000,0.000,0.000,0,00:00:00,-825,0.000,0.000,91149.992,9.256,0.000,0.000,0.998,-9.824,-0.090,-0.008,0.014,0.012,0.000,0.000
290.322,6,0,-0.050,0.017,36.829,-0.053,0.002,-4.683,-0.036,-0.009,-0.044,65.000,0.000,0.0119160,9161.085,9144.000,0.022,8.533,3597.009,7.298,907.418,9.015,920.382,36.852,-0.047,-0.016,0.029,0.007,-0.023,-0.015,0.000,0.000,0.000,-0.060,0.649,0.051,0.757,0.0000000,0.0000000,36.867,0.000,0.000,0.000,0,00:00:00,-6398,0.000,36.867,90735.672,9.011,40.291,0.000,0.011,-0.011,-0.066,0.004,0.012,-0.010,0.000,0.000
290.423,6,0,-0.051,0.016,36.361,-0.065,0.021,-4.691,-0.149,0.202,-0.125,65.000,0.000,0.0119160,9161.085,9144.000,0.022,8.665,3597.738,7.285,907.468,9.018,919.924,36.394,-0.175,0.181,0.123,0.043,0.007,0.008,0.000,0.000,0.000,-0.058,0.649,0.050,0.757,0.0000000,0.0000000,36.401,0.000,0.000,0.000,0,00:00:00,-6398,0.000,36.401,90748.914,9.019,40.291,0.000,-0.049,0.042,-0.072,-0.006,-0.009,0.000,0.000,0.000
290.524,6,0,-0.052,0.016,35.912,-0.058,0.016,-4.671,0.041,-0.040,0.012,65.000,0.000,0.0119160,9161.085,9144.000,0.022,8.628,3598.466,7.286,907.504,9.020,919.594,36.064,0.024,-0.038,-0.038,-0.003,0.002,-0.005,0.000,0.000,0.000,-0.059,0.649,0.050,0.757,0.0000000,0.0000000,35.934,0.000,0.000,0.000,0,00:00:00,-6398,0.000,35.934,90750.320,9.020,40.291,0.000,0.009,-0.052,-0.012,-0.005,-0.009,-0.009,0.000,0.000
290.625,6,0,-0.053,0.017,35.462,-0.071,0.022,-4.662,-0.152,0.066,-0.070,65.000,0.000,0.0119160,9161.085,9144.000,0.022,8.614,3599.194,7.279,907.556,9.023,919.125,35.595,-0.101,0.055,0.139,0.013,0.043,-0.001,0.000,0.000,0.000,-0.058,0.651,0.049,0.755,0.0000000,0.0000000,35.468,0.000,0.000,0.000,0,00:00:00,-6398,0.000,35.468,90753.125,9.022,40.291,0.000,-0.016,-0.030,-0.031,-0.010,-0.004,-0.006,0.000,0.000
290.726,6,0,-0.054,0.016,35.004,-0.074,0.005,-4.661,-0.056,-0.162,-0.084,65.000,0.000,0.0119160,9161.085,9144.000,0.022,8.367,3599.921,7.271,907.612,9.027,918.615,35.085,-0.067,-0.173,0.047,-0.006,-0.006,-0.010,0.000,0.000,0.000,-0.059,0.651,0.049,0.755,0.0000000,0.0000000,35.002,0.000,0.000,0.000,0,00:00:00,-6398,0.000,35.002,90766.078,9.029,40.291,0.000,-0.043,0.052,0.008,0.013,-0.012,-0.002,0.000,0.000
290.827,6,0,-0.056,0.015,34.581,-0.073,0.003,-4.645,-0.021,-0.012,-0.200,65.000,0.000,0.0119160,9161.085,9144.000,0.022,8.403,3600.647,7.251,907.634,9.028,918.411,34.881,-0.197,-0.042,-0.009,0.018,-0.028,0.002,0.000,0.000,0.000,-0.058,0.650,0.049,0.756,0.0000000,0.0000000,34.535,0.000,0.000,0.000,0,00:00:00,-6398,0.000,34.535,90777.797,9.036,40.291,0.000,0.030,-0.020,0.011,0.006,0.018,-0.000,0.000,0.000
290.928,6,0,-0.058,0.014,34.091,-0.081,0.006,-4.683,-0.107,0.039,-0.241,65.000,0.000,0.0119160,9161.085,9144.000,0.022,8.568,3601.369,7.227,907.734,9.034,917.503,33.973,-0.258,0.003,0.068,0.024,-0.031,-0.020,0.000,0.000,0.000,-0.058,0.649,0.047,0.758,0.0000000,0.0000000,34.069,0.000,0.000,0.000,0,00:00:00,-6398,0.000,34.069,90776.047,9.035,40.291,0.000,0.057,0.040,0.008,0.004,-0.004,-0.006,0.000,0.000
291.029,6,0,-0.059,0.013,33.610,-0.068,-0.008,-4.683,0.090,-0.129,0.064,65.000,0.000,0.0119160,9161.085,9144.000,0.022,8.748,3602.093,7.233,907.780,9.036,917.087,33.557,0.096,-0.118,-0.076,-0.044,0.022,0.014,0.000,0.000,0.000,-0.059,0.649,0.049,0.757,0.0000000,0.0000000,33.603,0.000,0.000,0.000,0,00:00:00,-6398,0.000,33.603,90780.039,9.038,40.291,0.000,0.027,0.104,-0.024,-0.008,-0.002,-0.018,0.000,0.000
291.130,6,0,-0.059,0.010,33.196,-0.056,-0.021,-4.633,0.090,-0.129,0.064,65.000,0.000,0.0119160,9161.085,9144.000,0.022,8.616,3602.817,7.240,907.780,9.036,917.087,33.557,0.096,-0.118,-0.076,-0.044,0.022,0.014,0.000,0.000,0.000,-0.060,0.650,0.051,0.756,0.0000000,0.0000000,33.603,0.000,0.000,0.000,0,00:00:00,-6398,0.000,33.603,90780.039,9.038,40.291,0.000,0.027,0.104,-0.024,-0.008,-0.002,-0.018,0.000,0.000
291.231,6,0,-0.059,0.007,32.686,-0.065,-0.022,-4.657,-0.119,-0.006,0.078,65.000,0.000,0.0119160,9161.085,9144.000,0.022,8.484,3603.541,7.247,907.904,9.044,915.952,32.422,0.059,0.007,0.130,-0.023,-0.031,-0.012,0.000,0.000,0.000,-0.061,0.649,0.051,0.757,0.0000000,0.0000000,32.670,0.000,0.000,0.000,0,00:00:00,-6398,0.000,32.670,90783.000,9.039,40.291,0.000,-0.052,0.016,0.043,0.014,-0.021,-0.020,0.000,0.000
291.332,6,0,-0.059,0.004,32.228,-0.047,-0.028,-4.654,0.148,-0.057,-0.062,65.000,0.000,0.0119160,9161.085,9144.000,0.022,8.657,3604.265,7.241,907.917,9.045,915.838,32.308,-0.029,-0.066,-0.154,0.041,0.013,0.021,0.000,0.000,0.000,-0.059,0.649,0.051,0.756,0.0000000,0.0000000,32.204,0.000,0.000,0.000,0,00:00:00,-6398,0.000,32.204,90790.641,9.044,40.291,0.000,0.026,-0.043,0.050,-0.003,-0.010,0.010,0.000,0.000
291.433,6,0,-0.057,0.001,31.835,-0.029,-0.034,-4.602,0.148,-0.058,-0.061,65.000,0.000,0.0119160,9161.085,9144.000,0.022,8.591,3604.989,7.235,907.917,9.045,915.838,32.308,-0.029,-0.066,-0.154,0.041,0.013,0.021,0.000,0.000,0.000,-0.057,0.650,0.050,0.756,0.0000000,0.0000000,32.204,0.000,0.000,0.000,0,00:00:00,-6398,0.000,32.204,90790.641,9.044,40.291,0.000,0.026,-0.043,0.050,-0.003,-0.010,0.010,0.000,0.000
291.534,6,0,-0.053,-0.002,31.306,-0.004,-0.028,-4.655,0.214,0.056,-0.055,65.000,0.000,0.0119160,9161.085,9144.000,0.022,8.525,3605.712,7.230,908.070,9.054,914.448,30.918,-0.030,0.048,-0.221,0.026,0.017,0.013,0.000,0.000,0.000,-0.056,0.651,0.050,0.756,0.0000000,0.0000000,31.271,0.000,0.000,0.000,0,00:00:00,-6398,0.000,31.271,90802.484,9.051,40.291,0.000,-0.048,-0.069,-0.056,0.007,0.012,0.012,0.000,0.000
291.635,6,0,-0.048,-0.004,30.778,0.002,-0.021,-4.703,0.041,0.076,-0.049,65.000,0.000,0.0119160,9161.085,9144.000,0.021,8.429,3606.434,7.225,908.124,9.057,913.956,30.426,-0.053,0.068,-0.049,-0.023,0.008,0.002,0.000,0.000,0.000,-0.057,0.651,0.051,0.755,0.0000000,0.0000000,30.805,0.000,0.000,0.000,0,00:00:00,-6398,0.000,30.805,90799.531,9.049,40.291,0.000,-0.075,-0.045,0.006,0.016,0.011,-0.012,0.000,0.000
291.736,6,0,-0.043,-0.005,30.300,0.008,-0.016,-4.716,0.033,0.046,-0.106,65.000,0.000,0.0119160,9161.085,9144.000,0.021,8.380,3607.156,7.214,908.140,9.058,913.813,30.283,-0.106,0.030,-0.049,0.017,0.015,-0.016,0.000,0.000,0.000,-0.056,0.652,0.050,0.755,0.0000000,0.0000000,30.339,0.000,0.000,0.000,0,00:00:00,-6398,0.000,30.339,90820.586,9.062,40.291,0.000,0.000,-0.062,-0.020,0.014,-0.027,-0.004,0.000,0.000
291.837,6,0,-0.038,-0.007,29.797,0.015,-0.030,-4.736,0.049,-0.144,-0.001,65.000,0.000,0.0119160,9161.085,9144.000,0.021,8.293,3607.877,7.214,908.212,9.062,913.158,29.628,0.027,-0.143,-0.045,-0.031,0.037,-0.002,0.000,0.000,0.000,-0.058,0.653,0.050,0.753,0.0000000,0.0000000,29.873,0.000,0.000,0.000,0,00:00:00,-6398,0.000,29.873,90816.523,9.059,40.291,0.000,0.036,0.057,-0.061,0.014,0.008,-0.008,0.000,0.000
291.938,6,0,-0.033,-0.010,29.362,0.022,-0.044,-4.704,0.049,-0.144,-0.002,65.000,0.000,0.0119160,9161.085,9144.000,0.021,8.076,3608.599,7.214,908.212,9.062,913.158,29.628,0.027,-0.143,-0.045,-0.031,0.037,-0.002,0.000,0.000,0.000,-0.059,0.654,0.051,0.752,0.0000000,0.0000000,29.873,0.000,0.000,0.000,0,00:00:00,-6398,0.000,29.873,90816.523,9.059,40.291,0.000,0.036,0.057,-0.061,0.014,0.008,-0.008,0.000,0.000
292.039,6,0,-0.027,-0.013,28.991,0.028,-0.058,-4.626,0.049,-0.144,-0.002,65.000,0.000,0.0119160,9161.085,9144.000,0.021,7.859,3609.320,7.214,908.212,9.062,913.158,29.628,0.027,-0.143,-0.045,-0.031,0.037,-0.002,0.000,0.000,0.000,-0.060,0.656,0.052,0.751,0.0000000,0.0000000,29.873,0.000,0.000,0.000,0,00:00:00,-6398,0.000,29.873,90816.523,9.059,40.291,0.000,0.036,0.057,-0.061,0.014,0.008,-0.008,0.000,0.000
292.140,6,0,-0.022,-0.018,28.494,0.028,-0.063,-4.626,-0.011,-0.057,0.222,65.000,0.000,0.0119160,9161.085,9144.000,0.022,7.641,3610.044,7.236,908.357,9.071,911.840,28.310,0.225,-0.022,0.042,0.023,-0.028,-0.049,0.000,0.000,0.000,-0.061,0.654,0.049,0.752,0.0000000,0.0000000,28.474,0.000,0.000,0.000,0,00:00:00,-6399,0.000,28.474,90838.602,9.072,40.291,0.000,0.059,0.092,-0.026,0.028,-0.023,0.003,0.000,0.000
292.241,6,0,-0.017,-0.022,28.080,0.036,-0.069,-4.567,0.069,-0.080,0.205,65.000,0.000,0.0119160,9161.085,9144.000,0.022,7.806,3610.769,7.256,908.347,9.070,911.932,28.402,0.222,-0.047,-0.038,-0.036,0.024,-0.025,0.000,0.000,0.000,-0.063,0.655,0.050,0.751,0.0000000,0.0000000,28.008,0.000,0.000,0.000,0,00:00:00,-6399,0.000,28.008,90847.695,9.078,40.291,0.000,-0.013,-0.035,0.081,0.013,0.016,0.003,0.000,0.000
292.342,6,0,-0.012,-0.027,27.730,0.043,-0.076,-4.464,0.068,-0.081,0.205,65.000,0.000,0.0119160,9161.085,9144.000,0.022,7.662,3611.497,7.277,908.347,9.070,911.932,28.402,0.222,-0.047,-0.038,-0.036,0.024,-0.025,0.000,0.000,0.000,-0.066,0.656,0.050,0.750,0.0000000,0.0000000,28.008,0.000,0.000,0.000,0,00:00:00,-6399,0.000,28.008,90847.695,9.078,40.291,0.000,-0.013,-0.035,0.081,0.013,0.016,0.003,0.000,0.000
292.443,6,0,-0.006,-0.031,27.268,0.054,-0.070,-4.467,0.105,0.050,0.056,65.000,0.000,0.0119160,9161.085,9144.000,0.022,7.517,3612.225,7.282,908.479,9.078,910.728,27.198,0.060,0.057,-0.098,-0.011,0.045,0.044,0.000,0.000,0.000,-0.065,0.658,0.052,0.749,0.0000000,0.0000000,27.076,0.000,0.000,0.000,0,00:00:00,-6399,0.000,27.076,90847.031,9.077,40.291,0.000,-0.002,-0.065,-0.022,-0.008,-0.005,0.012,0.000,0.000
292.544,6,0,-0.001,-0.034,26.812,0.053,-0.070,-4.478,-0.009,-0.027,-0.072,65.000,0.000,0.0119160,9161.085,9144.000,0.022,7.258,3612.953,7.275,908.525,9.081,910.313,26.783,-0.067,-0.038,0.001,-0.010,0.016,-0.034,0.000,0.000,0.000,-0.066,0.658,0.051,0.748,0.0000000,0.0000000,26.610,0.000,0.000,0.000,0,00:00:00,-6399,0.000,26.610,90846.797,9.077,40.291,0.000,-0.005,0.019,-0.003,-0.018,-0.011,0.000,0.000,0.000
292.645,6,0,0.004,-0.037,26.346,0.055,-0.054,-4.487,0.017,0.147,0.002,65.000,0.000,0.0119160,9161.085,9144.000,0.022,7.165,3613.680,7.275,908.582,9.084,909.796,26.266,-0.019,0.145,-0.021,0.008,0.010,0.018,0.000,0.000,0.000,-0.065,0.659,0.051,0.748,0.0000000,0.0000000,26.144,0.000,0.000,0.000,0,00:00:00,-6399,0.000,26.144,90869.484,9.091,40.291,0.000,-0.039,0.064,-0.018,-0.005,-0.028,0.010,0.000,0.000
292.746,6,0,0.009,-0.038,25.877,0.057,-0.038,-4.504,0.025,0.130,-0.054,65.000,0.000,0.0119160,9161.085,9144.000,0.022,7.110,3614.407,7.270,908.635,9.087,909.313,25.782,-0.070,0.120,-0.035,0.030,-0.004,0.009,0.000,0.000,0.000,-0.064,0.659,0.050,0.748,0.0000000,0.0000000,25.678,0.000,0.000,0.000,0,00:00:00,-6399,0.000,25.678,90858.125,9.084,40.291,0.000,-0.037,-0.086,0.015,-0.001,-0.007,-0.012,0.000,0.000
292.847,6,0,0.013,-0.038,25.379,0.056,-0.043,-4.529,0.000,-0.063,0.086,65.000,0.000,0.0119160,9161.085,9144.000,0.022,7.139,3615.135,7.279,908.709,9.091,908.639,25.109,0.095,-0.049,0.012,0.012,0.049,-0.000,0.000,0.000,0.000,-0.064,0.661,0.050,0.746,0.0000000,0.0000000,25.211,0.000,0.000,0.000,0,00:00:00,-6399,0.000,25.211,90876.797,9.095,40.291,0.000,-0.065,0.037,-0.016,-0.015,-0.003,-0.021,0.000,0.000
292.948,6,0,0.018,-0.037,24.841,0.069,-0.017,-4.600,0.134,0.235,-0.124,65.000,0.000,0.0119160,9161.085,9144.000,0.022,6.857,3615.862,7.266,908.792,9.096,907.885,24.355,-0.143,0.211,-0.154,-0.019,0.021,0.025,0.000,0.000,0.000,-0.063,0.661,0.051,0.746,0.0000000,0.0000000,24.745,0.000,0.000,0.000,0,00:00:00,-6399,0.000,24.745,90875.281,9.094,40.291,0.000,-0.011,0.007,0.085,0.001,-0.006,-0.003,0.000,0.000
293.049,6,0,0.022,-0.035,24.408,0.064,-0.014,-4.568,-0.037,0.017,0.097,65.000,0.000,0.0119160,9161.085,9144.000,0.022,6.734,3616.589,7.276,908.766,9.095,908.124,24.594,0.088,0.033,0.047,-0.005,0.012,-0.017,0.000,0.000,0.000,-0.064,0.662,0.051,0.745,0.0000000,0.0000000,24.279,0.000,0.000,0.000,0,00:00:00,-6399,0.000,24.279,90880.289,9.097,40.291,0.000,0.005,0.013,-0.001,-0.002,0.004,0.004,0.000,0.000
293.150,6,0,0.027,-0.033,23.961,0.081,-0.019,-4.551,0.186,-0.069,0.063,65.000,0.000,0.0119160,9161.085,9144.000,0.022,6.663,3617.318,7.282,908.826,9.098,907.578,24.047,0.094,-0.059,-0.175,-0.015,0.016,0.020,0.000,0.000,0.000,-0.064,0.662,0.052,0.745,0.0000000,0.0000000,23.813,0.000,0.000,0.000,0,00:00:00,-6399,0.000,23.813,90886.781,9.101,40.291,0.000,-0.016,-0.063,-0.030,0.008,0.001,-0.002,0.000,0.000
293.251,6,0,0.032,-0.031,23.436,0.092,-0.008,-4.596,0.120,0.089,0.034,65.000,0.000,0.0119160,9161.085,9144.000,0.022,6.571,3618.046,7.286,908.937,9.105,906.565,23.035,0.033,0.092,-0.118,0.014,0.008,-0.011,0.000,0.000,0.000,-0.064,0.663,0.051,0.744,0.0000000,0.0000000,23.347,0.000,0.000,0.000,0,00:00:00,-6399,0.000,23.347,90883.547,9.099,40.291,0.000,0.049,0.053,-0.004,0.005,0.001,0.000,0.000,0.000
293.352,6,0,0.038,-0.029,22.981,0.102,0.002,-4.586,0.120,0.089,0.034,65.000,0.000,0.0119160,9161.085,9144.000,0.022,6.525,3618.775,7.289,908.937,9.105,906.565,23.035,0.033,0.092,-0.118,0.014,0.008,-0.011,0.000,0.000,0.000,-0.064,0.663,0.050,0.744,0.0000000,0.0000000,23.347,0.000,0.000,0.000,0,00:00:00,-6399,0.000,23.347,90883.547,9.099,40.291,0.000,0.049,0.053,-0.004,0.005,0.001,0.000,0.000,0.000
293.453,6,0,0.044,-0.025,22.522,0.105,0.013,-4.591,0.049,0.091,-0.088,65.000,0.000,0.0119160,9161.085,9144.000,0.022,6.479,3619.503,7.280,908.990,9.108,906.084,22.554,-0.095,0.075,-0.061,0.010,0.002,-0.003,0.000,0.000,0.000,-0.064,0.663,0.050,0.744,0.0000000,0.0000000,22.415,0.000,0.000,0.000,0,00:00:00,-6399,0.000,22.415,90900.242,9.109,40.291,0.000,-0.038,-0.022,-0.004,0.012,0.007,-0.010,0.000,0.000
293.554,6,0,0.050,-0.022,22.065,0.122,0.009,-4.600,0.195,-0.053,-0.134,65.000,0.000,0.0119160,9161.085,9144.000,0.022,6.468,3620.230,7.267,909.039,9.111,905.639,22.109,-0.101,-0.076,-0.208,0.021,-0.002,0.013,0.000,0.000,0.000,-0.062,0.663,0.050,0.744,0.0000000,0.0000000,21.949,0.000,0.000,0.000,0,00:00:00,-6399,0.000,21.949,90900.930,9.109,40.291,0.000,0.065,0.034,-0.045,0.003,-0.001,0.019,0.000,0.000
293.655,6,0,0.057,-0.019,21.600,0.122,0.011,-4.605,0.037,0.013,-0.054,65.000,0.000,0.0119160,9161.085,9144.000,0.022,6.482,3620.956,7.261,909.095,9.114,905.127,21.597,-0.051,0.004,-0.043,-0.001,-0.002,-0.007,0.000,0.000,0.000,-0.063,0.663,0.049,0.744,0.0000000,0.0000000,21.483,0.000,0.000,0.000,0,00:00:00,-6399,0.000,21.483,90901.477,9.109,40.291,0.000,-0.052,0.058,-0.032,0.007,-0.000,-0.003,0.000,0.000
293.756,6,0,0.063,-0.016,21.067,0.126,0.004,-4.640,0.065,-0.076,0.162,65.000,0.000,0.0119160,9161.085,9144.000,0.022,6.491,3621.684,7.277,909.200,9.120,904.177,20.647,0.178,-0.050,-0.043,-0.005,-0.042,-0.017,0.000,0.000,0.000,-0.063,0.661,0.049,0.746,0.0000000,0.0000000,21.017,0.000,0.000,0.000,0,00:00:00,-6399,0.000,21.017,90917.438,9.119,40.291,0.000,0.022,-0.042,-0.018,-0.015,0.008,-0.008,0.000,0.000
293.857,6,0,0.069,-0.015,20.621,0.139,0.000,-4.630,0.166,-0.045,-0.074,65.000,0.000,0.0119160,9161.085,9144.000,0.022,6.732,3622.411,7.270,909.187,9.120,904.294,20.764,-0.045,-0.058,-0.172,0.004,-0.027,-0.003,0.000,0.000,0.000,-0.063,0.660,0.049,0.747,0.0000000,0.0000000,20.551,0.000,0.000,0.000,0,00:00:00,-6399,0.000,20.551,90921.398,9.121,40.291,0.000,0.055,0.033,0.004,0.000,0.009,-0.004,0.000,0.000
293.958,6,0,0.076,-0.013,20.151,0.153,0.008,-4.640,0.178,0.069,-0.074,65.000,0.000,0.0119160,9161.085,9144.000,0.022,6.888,3623.137,7.263,909.256,9.124,903.665,20.135,-0.062,0.055,-0.187,-0.011,0.006,0.010,0.000,0.000,0.000,-0.063,0.661,0.050,0.746,0.0000000,0.0000000,20.085,0.000,0.000,0.000,0,00:00:00,-6399,0.000,20.085,90931.375,9.127,40.291,0.000,0.017,0.019,-0.012,-0.027,-0.018,-0.002,0.000,0.000
294.059,6,0,0.083,-0.011,19.745,0.166,0.016,-4.600,0.178,0.069,-0.074,65.000,0.000,0.0119160,9161.085,9144.000,0.022,6.851,3623.862,7.255,909.256,9.124,903.665,20.135,-0.062,0.055,-0.187,-0.011,0.006,0.010,0.000,0.000,0.000,-0.063,0.661,0.050,0.746,0.0000000,0.0000000,20.085,0.000,0.000,0.000,0,00:00:00,-6399,0.000,20.085,90931.375,9.127,40.291,0.000,0.017,0.019,-0.012,-0.027,-0.018,-0.002,0.000,0.000
294.160,6,0,0.091,-0.008,19.255,0.171,0.014,-4.616,0.098,-0.019,0.031,65.000,0.000,0.0119160,9161.085,9144.000,0.022,6.815,3624.588,7.258,909.370,9.130,902.630,19.100,0.045,-0.015,-0.093,0.016,0.012,-0.033,0.000,0.000,0.000,-0.064,0.661,0.048,0.746,0.0000000,0.0000000,19.153,0.000,0.000,0.000,0,00:00:00,-6399,0.000,19.153,90925.852,9.124,40.291,0.000,-0.028,0.015,-0.045,0.003,0.003,-0.009,0.000,0.000
294.261,6,0,0.097,-0.006,18.774,0.150,0.017,-4.638,-0.155,0.022,-0.110,65.000,0.000,0.0119160,9161.085,9144.000,0.022,6.750,3625.313,7.247,909.416,9.133,902.215,18.685,-0.130,0.007,0.141,0.013,0.036,-0.013,0.000,0.000,0.000,-0.064,0.663,0.047,0.745,0.0000000,0.0000000,18.687,0.000,0.000,0.000,0,00:00:00,-6399,0.000,18.687,90945.750,9.136,40.291,0.000,0.012,-0.061,-0.016,-0.010,-0.024,0.010,0.000,0.000
294.362,6,0,0.101,-0.005,18.280,0.134,0.002,-4.662,-0.111,-0.152,-0.056,65.000,0.000,0.0119160,9161.085,9144.000,0.022,6.544,3626.037,7.242,909.478,9.137,901.655,18.125,-0.044,-0.157,0.109,0.006,-0.007,-0.008,0.000,0.000,0.000,-0.064,0.662,0.047,0.745,0.0000000,0.0000000,18.221,0.000,0.000,0.000,0,00:00:00,-6399,0.000,18.221,90945.234,9.135,40.291,0.000,-0.046,-0.080,-0.004,0.019,0.000,0.005,0.000,0.000
294.463,6,0,0.103,-0.005,17.780,0.128,-0.008,-4.685,-0.006,-0.093,-0.012,65.000,0.000,0.0119160,9161.085,9144.000,0.022,6.584,3626.761,7.240,909.535,9.140,901.130,17.600,0.001,-0.093,0.008,0.038,0.005,-0.017,0.000,0.000,0.000,-0.063,0.662,0.045,0.745,0.0000000,0.0000000,17.755,0.000,0.000,0.000,0,00:00:00,-6399,0.000,17.755,90943.812,9.134,40.291,0.000,-0.010,-0.007,0.010,-0.003,-0.013,-0.007,0.000,0.000
294.564,6,0,0.106,-0.005,17.315,0.134,-0.014,-4.672,0.115,-0.063,0.065,65.000,0.000,0.0119160,9161.085,9144.000,0.022,6.562,3627.486,7.247,909.561,9.142,900.898,17.368,0.087,-0.054,-0.105,0.017,0.010,-0.021,0.000,0.000,0.000,-0.063,0.663,0.044,0.745,0.0000000,0.0000000,17.290,0.000,0.000,0.000,0,00:00:00,-6399,0.000,17.290,90955.680,9.141,40.291,0.000,0.072,0.016,0.081,0.011,-0.004,0.025,0.000,0.000
294.665,6,0,0.107,-0.006,16.826,0.123,-0.010,-4.702,-0.054,0.037,-0.171,65.000,0.000,0.0119160,9161.085,9144.000,0.022,6.510,3628.209,7.230,909.632,9.146,900.251,16.721,-0.180,0.012,0.034,0.006,0.027,0.016,0.000,0.000,0.000,-0.062,0.664,0.044,0.744,0.0000000,0.0000000,16.824,0.000,0.000,0.000,0,00:00:00,-6399,0.000,16.824,90958.312,9.143,40.291,0.000,0.049,0.001,-0.044,-0.018,-0.008,0.008,0.000,0.000
294.766,6,0,0.108,-0.006,16.402,0.111,-0.006,-4.681,-0.054,0.037,-0.171,65.000,0.000,0.0119160,9161.085,9144.000,0.021,6.357,3628.930,7.213,909.632,9.146,900.251,16.721,-0.180,0.012,0.034,0.006,0.027,0.016,0.000,0.000,0.000,-0.062,0.665,0.044,0.743,0.0000000,0.0000000,16.824,0.000,0.000,0.000,0,00:00:00,-6399,0.000,16.824,90958.312,9.143,40.291,0.000,0.049,0.001,-0.044,-0.018,-0.008,0.008,0.000,0.000
294.867,6,0,0.108,-0.006,15.922,0.104,-0.014,-4.690,-0.016,-0.090,-0.038,65.000,0.000,0.0119160,9161.085,9144.000,0.021,6.205,3629.651,7.209,909.725,9.151,899.412,15.882,-0.026,-0.094,0.014,-0.015,-0.011,-0.012,0.000,0.000,0.000,-0.063,0.664,0.045,0.743,0.0000000,0.0000000,15.892,0.000,0.000,0.000,0,00:00:00,-6399,0.000,15.892,90982.344,9.157,40.291,0.000,-0.021,0.028,-0.113,0.005,-0.001,-0.016,0.000,0.000
294.968,6,0,0.107,-0.007,15.435,0.104,-0.025,-4.693,0.053,-0.108,0.071,65.000,0.000,0.0119160,9161.085,9144.000,0.021,6.266,3630.373,7.216,909.783,9.155,898.879,15.349,0.092,-0.097,-0.041,-0.017,-0.023,-0.006,0.000,0.000,0.000,-0.063,0.664,0.045,0.744,0.0000000,0.0000000,15.426,0.000,0.000,0.000,0,00:00:00,-6399,0.000,15.426,90970.500,9.150,40.291,0.000,0.011,0.097,-0.032,-0.013,0.008,0.021,0.000,0.000
295.069,6,0,0.106,-0.009,14.979,0.087,-0.033,-4.671,-0.109,-0.085,0.090,65.000,0.000,0.0119160,9161.085,9144.000,0.021,6.392,3631.095,7.225,909.812,9.157,898.618,15.088,0.088,-0.068,0.121,0.005,-0.006,0.006,0.000,0.000,0.000,-0.063,0.663,0.045,0.744,0.0000000,0.0000000,14.960,0.000,0.000,0.000,0,00:00:00,-6399,0.000,14.960,90972.969,9.152,40.291,0.000,0.014,-0.032,0.029,-0.004,-0.006,0.013,0.000,0.000
295.170,6,0,0.103,-0.012,14.589,0.071,-0.041,-4.601,-0.109,-0.085,0.090,65.000,0.000,0.0119160,9161.085,9144.000,0.022,6.426,3631.818,7.234,909.812,9.157,898.618,15.088,0.088,-0.068,0.121,0.005,-0.006,0.006,0.000,0.000,0.000,-0.063,0.663,0.045,0.744,0.0000000,0.0000000,14.960,0.000,0.000,0.000,0,00:00:00,-6399,0.000,14.960,90972.969,9.152,40.291,0.000,0.014,-0.032,0.029,-0.004,-0.006,0.013,0.000,0.000
295.271,6,0,0.100,-0.014,14.130,0.076,-0.023,-4.612,0.111,0.167,-0.149,65.000,0.000,0.0119160,9161.085,9144.000,0.021,6.460,3632.540,7.219,909.914,9.163,897.695,14.165,-0.159,0.141,-0.132,0.024,0.023,-0.031,0.000,0.000,0.000,-0.063,0.664,0.043,0.744,0.0000000,0.0000000,14.028,0.000,0.000,0.000,0,00:00:00,-6399,0.000,14.028,90992.953,9.164,40.291,0.000,-0.112,0.025,-0.125,0.009,0.004,-0.013,0.000,0.000
295.372,6,0,0.098,-0.015,13.604,0.072,-0.031,-4.670,0.006,-0.088,-0.134,65.000,0.000,0.0119160,9161.085,9144.000,0.021,6.331,3633.261,7.206,910.016,9.169,896.769,13.239,-0.118,-0.107,-0.017,-0.018,0.033,0.033,0.000,0.000,0.000,-0.062,0.665,0.045,0.743,0.0000000,0.0000000,13.563,0.000,0.000,0.000,0,00:00:00,-6399,0.000,13.563,90993.602,9.164,40.291,0.000,-0.003,-0.068,0.020,-0.015,0.008,-0.003,0.000,0.000
295.473,6,0,0.095,-0.017,13.115,0.080,-0.040,-4.686,0.126,-0.093,-0.035,65.000,0.000,0.0119160,9161.085,9144.000,0.021,6.140,3633.981,7.202,910.041,9.170,896.539,13.009,-0.006,-0.100,-0.126,-0.016,-0.007,-0.023,0.000,0.000,0.000,-0.064,0.665,0.045,0.743,0.0000000,0.0000000,13.097,0.000,0.000,0.000,0,00:00:00,-6399,0.000,13.097,91007.141,9.172,40.291,0.000,0.060,-0.090,0.045,-0.014,0.001,-0.013,0.000,0.000
295.574,6,0,0.093,-0.019,12.619,0.071,-0.050,-4.698,-0.032,-0.108,0.052,65.000,0.000,0.0119160,9161.085,9144.000,0.021,6.179,3634.702,7.207,910.100,9.174,896.007,12.477,0.064,-0.098,0.042,0.006,0.016,-0.017,0.000,0.000,0.000,-0.064,0.665,0.044,0.742,0.0000000,0.0000000,12.631,0.000,0.000,0.000,0,00:00:00,-6399,0.000,12.631,91008.797,9.173,40.291,0.000,0.041,0.018,0.054,-0.004,0.002,0.006,0.000,0.000
295.675,6,0,0.091,-0.022,12.151,0.077,-0.044,-4.696,0.108,0.050,-0.031,65.000,0.000,0.0119160,9161.085,9144.000,0.021,6.092,3635.422,7.204,910.131,9.175,895.722,12.192,-0.026,0.042,-0.112,-0.016,0.014,-0.005,0.000,0.000,0.000,-0.065,0.666,0.044,0.742,0.0000000,0.0000000,12.165,0.000,0.000,0.000,0,00:00:00,-6399,0.000,12.165,91016.078,9.177,40.291,0.000,0.077,-0.097,0.009,0.003,0.025,0.004,0.000,0.000
295.776,6,0,0.090,-0.022,11.709,0.079,-0.005,-4.661,0.062,0.365,0.105,65.000,0.000,0.0119160,9161.085,9144.000,0.021,6.009,3636.144,7.215,910.163,9.177,895.435,11.905,0.054,0.376,-0.064,-0.025,-0.004,0.010,0.000,0.000,0.000,-0.066,0.666,0.045,0.742,0.0000000,0.0000000,11.699,0.000,0.000,0.000,0,00:00:00,-6399,0.000,11.699,91017.820,9.178,40.291,0.000,-0.001,0.006,-0.052,-0.003,0.016,-0.006,0.000,0.000
295.877,6,0,0.089,-0.020,11.233,0.078,0.001,-4.667,0.043,0.057,-0.020,65.000,0.000,0.0119160,9161.085,9144.000,0.021,6.025,3636.865,7.213,910.240,9.182,894.735,11.205,-0.024,0.052,-0.047,0.003,0.029,-0.021,0.000,0.000,0.000,-0.066,0.667,0.044,0.741,0.0000000,0.0000000,11.234,0.000,0.000,0.000,0,00:00:00,-6399,0.000,11.234,91020.297,9.180,40.291,0.000,-0.092,-0.034,0.076,0.002,0.015,0.001,0.000,0.000
295.978,6,0,0.087,-0.018,10.754,0.071,-0.002,-4.668,-0.031,-0.040,0.051,65.000,0.000,0.0119160,9161.085,9144.000,0.021,5.858,3637.587,7.218,910.295,9.185,894.236,10.705,0.053,-0.031,0.038,0.036,-0.003,-0.028,0.000,0.000,0.000,-0.066,0.667,0.042,0.741,0.0000000,0.0000000,10.768,0.000,0.000,0.000,0,00:00:00,-6399,0.000,10.768,91027.758,9.184,40.291,0.000,-0.055,-0.064,-0.015,0.006,-0.003,0.005,0.000,0.000
296.079,6,0,0.085,-0.017,10.320,0.053,-0.011,-4.642,-0.133,-0.096,-0.021,65.000,0.000,0.0119160,9161.085,9144.000,0.021,5.886,3638.308,7.216,910.312,9.186,894.077,10.547,-0.020,-0.095,0.133,0.004,-0.026,0.017,0.000,0.000,0.000,-0.065,0.666,0.042,0.742,0.0000000,0.0000000,10.302,0.000,0.000,0.000,0,00:00:00,-6399,0.000,10.302,91024.078,9.182,40.291,0.000,0.006,-0.011,0.004,0.014,-0.004,0.011,0.000,0.000
296.180,6,0,0.081,-0.017,9.821,0.037,-0.012,-4.658,-0.112,-0.026,0.067,65.000,0.000,0.0119160,9161.085,9144.000,0.021,6.033,3639.031,7.222,910.413,9.192,893.162,9.632,0.057,-0.012,0.120,-0.027,-0.003,-0.010,0.000,0.000,0.000,-0.066,0.666,0.043,0.742,0.0000000,0.0000000,9.836,0.000,0.000,0.000,0,00:00:00,-6399,0.000,9.836,91034.266,9.188,40.291,0.000,0.040,-0.048,-0.024,0.013,-0.001,-0.006,0.000,0.000
296.281,6,0,0.077,-0.016,9.392,0.046,-0.006,-4.626,0.131,0.059,0.015,65.000,0.000,0.0119160,9161.085,9144.000,0.021,6.046,3639.753,7.224,910.412,9.192,893.177,9.647,0.020,0.057,-0.131,0.002,0.030,-0.010,0.000,0.000,0.000,-0.067,0.667,0.042,0.741,0.0000000,0.0000000,9.371,0.000,0.000,0.000,0,00:00:00,-6399,0.000,9.371,91056.219,9.201,40.291,0.000,-0.014,0.031,0.024,-0.009,-0.005,0.010,0.000,0.000
296.382,6,0,0.074,-0.015,8.901,0.043,-0.002,-4.647,0.007,0.025,-0.040,65.000,0.000,0.0119160,9161.085,9144.000,0.021,5.876,3640.475,7.220,910.510,9.198,892.287,8.757,-0.042,0.018,-0.012,-0.009,-0.024,-0.022,0.000,0.000,0.000,-0.068,0.666,0.042,0.742,0.0000000,0.0000000,8.905,0.000,0.000,0.000,0,00:00:00,-6399,0.000,8.905,91049.461,9.197,40.291,0.000,-0.069,0.060,0.026,0.005,0.008,0.015,0.000,0.000
296.483,6,0,0.072,-0.013,8.404,0.058,0.005,-4.663,0.191,0.061,0.046,65.000,0.000,0.0119160,9161.085,9144.000,0.021,6.013,3641.197,7.225,910.568,9.201,891.763,8.233,0.057,0.062,-0.187,-0.023,-0.018,-0.015,0.000,0.000,0.000,-0.069,0.665,0.042,0.743,0.0000000,0.0000000,8.439,0.000,0.000,0.000,0,00:00:00,-6399,0.000,8.439,91062.391,9.204,40.291,0.000,0.051,-0.028,0.066,-0.004,-0.004,-0.009,0.000,0.000
296.584,6,0,0.069,-0.012,7.991,0.027,0.004,-4.636,-0.279,-0.009,-0.162,65.000,0.000,0.0119160,9161.085,9144.000,0.021,6.107,3641.918,7.208,910.555,9.200,891.880,8.350,-0.188,-0.026,0.261,0.000,0.065,-0.030,0.000,0.000,0.000,-0.070,0.667,0.041,0.740,0.0000000,0.0000000,7.974,0.000,0.000,0.000,0,00:00:00,-6399,0.000,7.974,91045.984,9.195,40.291,0.000,0.030,-0.051,-0.007,-0.008,-0.009,-0.003,0.000,0.000
296.685,6,0,0.065,-0.010,7.473,0.024,0.004,-4.657,0.008,-0.007,0.164,65.000,0.000,0.0119160,9161.085,9144.000,0.021,5.736,3642.641,7.225,910.685,9.208,890.697,7.167,0.163,0.019,0.009,-0.008,-0.033,-0.040,0.000,0.000,0.000,-0.072,0.666,0.040,0.742,0.0000000,0.0000000,7.508,0.000,0.000,0.000,0,00:00:00,-6399,0.000,7.508,91057.781,9.202,40.291,0.000,0.058,-0.058,0.030,0.002,-0.003,0.027,0.000,0.000
296.786,6,0,0.061,-0.009,7.025,0.030,0.006,-4.634,0.091,0.013,0.060,65.000,0.000,0.0119160,9161.085,9144.000,0.022,5.923,3643.364,7.231,910.686,9.208,890.690,7.160,0.067,0.019,-0.085,0.007,-0.029,0.011,0.000,0.000,0.000,-0.071,0.665,0.040,0.743,0.0000000,0.0000000,7.042,0.000,0.000,0.000,0,00:00:00,-6399,0.000,7.042,91065.703,9.206,40.291,0.000,0.048,0.055,0.001,-0.014,0.007,0.008,0.000,0.000
296.887,6,0,0.058,-0.007,6.642,0.036,0.007,-4.565,0.091,0.013,0.060,65.000,0.000,0.0119160,9161.085,9144.000,0.022,6.089,3644.088,7.237,910.686,9.208,890.690,7.160,0.067,0.019,-0.085,0.007,-0.029,0.011,0.000,0.000,0.000,-0.070,0.664,0.040,0.744,0.0000000,0.0000000,7.042,0.000,0.000,0.000,0,00:00:00,-6399,0.000,7.042,91065.703,9.206,40.291,0.000,0.048,0.055,0.001,-0.014,0.007,0.008,0.000,0.000
296.988,6,0,0.056,-0.006,6.318,0.042,0.009,-4.457,0.091,0.012,0.059,65.000,0.000,0.0119160,9161.085,9144.000,0.022,6.254,3644.812,7.243,910.686,9.208,890.690,7.160,0.067,0.019,-0.085,0.007,-0.029,0.011,0.000,0.000,0.000,-0.070,0.663,0.041,0.744,0.0000000,0.0000000,7.042,0.000,0.000,0.000,0,00:00:00,-6399,0.000,7.042,91065.703,9.206,40.291,0.000,0.048,0.055,0.001,-0.014,0.007,0.008,0.000,0.000
297.089,6,0,0.055,-0.004,6.049,0.049,0.010,-4.316,0.091,0.012,0.059,65.000,0.000,0.0119160,9161.085,9144.000,0.022,6.420,3645.537,7.249,910.686,9.208,890.690,7.160,0.067,0.019,-0.085,0.007,-0.029,0.011,0.000,0.000,0.000,-0.069,0.662,0.041,0.745,0.0000000,0.0000000,7.042,0.000,0.000,0.000,0,00:00:00,-6399,0.000,7.042,91065.703,9.206,40.291,0.000,0.048,0.055,0.001,-0.014,0.007,0.008,0.000,0.000
297.190,6,0,0.055,-0.003,5.830,0.055,0.012,-4.148,0.092,0.012,0.059,65.000,0.000,0.0119160,9161.085,9144.000,0.022,6.585,3646.262,7.254,910.686,9.208,890.690,7.160,0.067,0.019,-0.085,0.007,-0.029,0.011,0.000,0.000,0.000,-0.068,0.661,0.041,0.746,0.0000000,0.0000000,7.042,0.000,0.000,0.000,0,00:00:00,-6399,0.000,7.042,91065.703,9.206,40.291,0.000,0.048,0.055,0.001,-0.014,0.007,0.008,0.000,0.000
297.317,6,0,0.057,-0.001,5.564,0.064,0.014,-3.946,0.092,0.012,0.059,65.000,0.000,0.0119160,9161.085,9144.000,0.022,6.751,3646.988,7.260,910.686,9.208,890.690,7.160,0.067,0.019,-0.085,0.007,-0.029,0.011,0.000,0.000,0.000,-0.068,0.660,0.041,0.747,0.0000000,0.0000000,7.042,0.000,0.000,0.000,0,00:00:00,-6399,0.000,7.042,91065.703,9.206,40.291,0.000,0.048,0.055,0.001,-0.014,0.007,0.008,0.000,0.000
297.418,6,0,0.057,0.000,5.455,0.070,0.015,-3.724,0.092,0.012,0.058,65.000,0.000,0.0119160,9161.085,9144.000,0.022,6.917,3647.715,7.266,910.686,9.208,890.690,7.160,0.067,0.019,-0.085,0.007,-0.029,0.011,0.000,0.000,0.000,-0.067,0.659,0.042,0.748,0.0000000,0.0000000,7.042,0.000,0.000,0.000,0,00:00:00,-6399,0.000,7.042,91065.703,9.206,40.291,0.000,0.048,0.055,0.001,-0.014,0.007,0.008,0.000,0.000
297.519,6,0,0.058,0.002,5.379,0.076,0.016,-3.494,0.092,0.012,0.058,65.000,0.000,0.0119160,9161.085,9144.000,0.022,7.082,3648.442,7.272,910.686,9.208,890.690,7.160,0.067,0.019,-0.085,0.007,-0.029,0.011,0.000,0.000,0.000,-0.066,0.658,0.042,0.749,0.0000000,0.0000000,7.042,0.000,0.000,0.000,0,00:00:00,-6399,0.000,7.042,91065.703,9.206,40.291,0.000,0.048,0.055,0.001,-0.014,0.007,0.008,0.000,0.000
297.620,6,0,0.060,0.003,5.333,0.082,0.017,-3.259,0.092,0.012,0.058,65.000,0.000,0.0119160,9161.085,9144.000,0.022,7.247,3649.170,7.278,910.686,9.208,890.690,7.160,0.067,0.019,-0.085,0.007,-0.029,0.011,0.000,0.000,0.000,-0.066,0.657,0.042,0.750,0.0000000,0.0000000,7.042,0.000,0.000,0.000,0,00:00:00,-6399,0.000,7.042,91065.703,9.206,40.291,0.000,0.048,0.055,0.001,-0.014,0.007,0.008,0.000,0.000
297.721,6,0,0.062,0.004,5.312,0.088,0.018,-3.022,0.092,0.012,0.057,65.000,0.000,0.0119160,9161.085,9144.000,0.022,7.413,3649.898,7.283,910.686,9.208,890.690,7.160,0.067,0.019,-0.085,0.007,-0.029,0.011,0.000,0.000,0.000,-0.065,0.656,0.043,0.751,0.0000000,0.0000000,7.042,0.000,0.000,0.000,0,00:00:00,-6399,0.000,7.042,91065.703,9.206,40.291,0.000,0.048,0.055,0.001,-0.014,0.007,0.008,0.000,0.000
297.822,6,0,0.064,0.006,5.315,0.094,0.019,-2.787,0.093,0.012,0.057,65.000,0.000,0.0119160,9161.085,9144.000,0.022,7.578,3650.627,7.289,910.686,9.208,890.690,7.160,0.067,0.019,-0.085,0.007,-0.029,0.011,0.000,0.000,0.000,-0.064,0.655,0.043,0.752,0.0000000,0.0000000,7.042,0.000,0.000,0.000,0,00:00:00,-6399,0.000,7.042,91065.703,9.206,40.291,0.000,0.048,0.055,0.001,-0.014,0.007,0.008,0.000,0.000
297.923,6,0,0.067,0.007,5.336,0.100,0.020,-2.554,0.093,0.012,0.057,65.000,0.000,0.0119160,9161.085,9144.000,0.022,7.743,3651.356,7.295,910.686,9.208,890.690,7.160,0.067,0.019,-0.085,0.007,-0.029,0.011,0.000,0.000,0.000,-0.064,0.654,0.043,0.753,0.0000000,0.0000000,7.042,0.000,0.000,0.000,0,00:00:00,-6399,0.000,7.042,91065.703,9.206,40.291,0.000,0.048,0.055,0.001,-0.014,0.007,0.008,0.000,0.000
298.024,6,0,0.070,0.008,5.374,0.105,0.020,-2.328,0.093,0.012,0.057,65.000,0.000,0.0119160,9161.085,9144.000,0.022,7.909,3652.086,7.301,910.686,9.208,890.690,7.160,0.067,0.019,-0.085,0.007,-0.029,0.011,0.000,0.000,0.000,-0.063,0.653,0.043,0.754,0.0000000,0.0000000,7.042,0.000,0.000,0.000,0,00:00:00,-6399,0.000,7.042,91065.703,9.206,40.291,0.000,0.048,0.055,0.001,-0.014,0.007,0.008,0.000,0.000
298.125,6,0,0.073,0.009,5.426,0.111,0.021,-2.107,0.093,0.012,0.056,65.000,0.000,0.0119160,9161.085,9144.000,0.022,8.074,3652.817,7.306,910.686,9.208,890.690,7.160,0.067,0.019,-0.085,0.007,-0.029,0.011,0.000,0.000,0.000,-0.062,0.651,0.044,0.755,0.0000000,0.0000000,7.042,0.000,0.000,0.000,0,00:00:00,-6399,0.000,7.042,91065.703,9.206,40.291,0.000,0.048,0.055,0.001,-0.014,0.007,0.008,0.000,0.000
298.226,6,0,0.077,0.010,5.489,0.116,0.022,-1.896,0.093,0.012,0.056,65.000,0.000,0.0119160,9161.085,9144.000,0.022,8.239,3653.548,7.312,910.686,9.208,890.690,7.160,0.067,0.019,-0.085,0.007,-0.029,0.011,0.000,0.000,0.000,-0.062,0.650,0.044,0.756,0.0000000,0.0000000,7.042,0.000,0.000,0.000,0,00:00:00,-6399,0.000,7.042,91065.703,9.206,40.291,0.000,0.048,0.055,0.001,-0.014,0.007,0.008,0.000,0.000
298.327,6,0,0.080,0.011,5.561,0.121,0.022,-1.693,0.094,0.012,0.056,65.000,0.000,0.0119160,9161.085,9144.000,0.022,8.404,3654.280,7.317,910.686,9.208,890.690,7.160,0.067,0.019,-0.085,0.007,-0.029,0.011,0.000,0.000,0.000,-0.061,0.649,0.044,0.757,0.0000000,0.0000000,7.042,0.000,0.000,0.000,0,00:00:00,-6399,0.000,7.042,91065.703,9.206,40.291,0.000,0.048,0.055,0.001,-0.014,0.007,0.008,0.000,0.000
298.428,6,0,0.084,0.012,5.641,0.126,0.023,-1.501,0.094,0.012,0.056,65.000,0.000,0.0119160,9161.085,9144.000,0.022,8.570,3655.012,7.323,910.686,9.208,890.690,7.160,0.067,0.019,-0.085,0.007,-0.029,0.011,0.000,0.000,0.000,-0.061,0.648,0.044,0.758,0.0000000,0.0000000,7.042,0.000,0.000,0.000,0,00:00:00,-6399,0.000,7.042,91065.703,9.206,40.291,0.000,0.048,0.055,0.001,-0.014,0.007,0.008,0.000,0.000
298.529,6,0,0.088,0.013,5.725,0.131,0.023,-1.319,0.094,0.012,0.055,65.000,0.000,0.0119160,9161.085,9144.000,0.022,8.735,3655.745,7.328,910.686,9.208,890.690,7.160,0.067,0.019,-0.085,0.007,-0.029,0.011,0.000,0.000,0.000,-0.060,0.647,0.045,0.759,0.0000000,0.0000000,7.042,0.000,0.000,0.000,0,00:00:00,-6399,0.000,7.042,91065.703,9.206,40.291,0.000,0.048,0.055,0.001,-0.014,0.007,0.008,0.000,0.000
298.630,6,0,0.092,0.014,5.813,0.135,0.024,-1.148,0.094,0.012,0.055,65.000,0.000,0.0119160,9161.085,9144.000,0.022,8.900,3656.479,7.334,910.686,9.208,890.690,7.160,0.067,0.019,-0.085,0.007,-0.029,0.011,0.000,0.000,0.000,-0.059,0.646,0.045,0.759,0.0000000,0.0000000,7.042,0.000,0.000,0.000,0,00:00:00,-6399,0.000,7.042,91065.703,9.206,40.291,0.000,0.048,0.055,0.001,-0.014,0.007,0.008,0.000,0.000
298.731,6,0,0.096,0.015,5.904,0.140,0.024,-0.988,0.094,0.011,0.055,65.000,0.000,0.0119160,9161.085,9144.000,0.022,9.065,3657.212,7.339,910.686,9.208,890.690,7.160,0.067,0.019,-0.085,0.007,-0.029,0.011,0.000,0.000,0.000,-0.059,0.645,0.045,0.760,0.0000000,0.0000000,7.042,0.000,0.000,0.000,0,00:00:00,-6399,0.000,7.042,91065.703,9.206,40.291,0.000,0.048,0.055,0.001,-0.014,0.007,0.008,0.000,0.000
298.832,6,0,0.099,0.016,5.995,0.144,0.024,-0.840,0.094,0.011,0.054,65.000,0.000,0.0119160,9161.085,9144.000,0.022,9.230,3657.947,7.345,910.686,9.208,890.690,7.160,0.067,0.019,-0.085,0.007,-0.029,0.011,0.000,0.000,0.000,-0.058,0.644,0.045,0.761,0.0000000,0.0000000,7.042,0.000,0.000,0.000,0,00:00:00,-6399,0.000,7.042,91065.703,9.206,40.291,0.000,0.048,0.055,0.001,-0.014,0.007,0.008,0.000,0.000
298.933,6,0,0.103,0.017,6.086,0.148,0.025,-0.703,0.095,0.011,0.054,65.000,0.000,0.0119160,9161.085,9144.000,0.022,9.395,3658.682,7.350,910.686,9.208,890.690,7.160,0.067,0.019,-0.085,0.007,-0.029,0.011,0.000,0.000,0.000,-0.057,0.643,0.046,0.762,0.0000000,0.0000000,7.042,0.000,0.000,0.000,0,00:00:00,-6399,0.000,7.042,91065.703,9.206,40.291,0.000,0.048,0.055,0.001,-0.014,0.007,0.008,0.000,0.000
299.034,6,0,0.107,0.017,6.176,0.152,0.025,-0.578,0.095,0.011,0.054,65.000,0.000,0.0119160,9161.085,9144.000,0.022,9.560,3659.418,7.356,910.686,9.208,890.690,7.160,0.067,0.019,-0.085,0.007,-0.029,0.011,0.000,0.000,0.000,-0.057,0.642,0.046,0.763,0.0000000,0.0000000,7.042,0.000,0.000,0.000,0,00:00:00,-6399,0.000,7.042,91065.703,9.206,40.291,0.000,0.048,0.055,0.001,-0.014,0.007,0.008,0.000,0.000
299.135,6,0,0.111,0.018,6.265,0.155,0.025,-0.463,0.095,0.011,0.054,65.000,0.000,0.0119160,9161.085,9144.000,0.022,9.724,3660.154,7.361,910.686,9.208,890.690,7.160,0.067,0.019,-0.085,0.007,-0.029,0.011,0.000,0.000,0.000,-0.056,0.641,0.046,0.764,0.0000000,0.0000000,7.042,0.000,0.000,0.000,0,00:00:00,-6399,0.000,7.042,91065.703,9.206,40.291,0.000,0.048,0.055,0.001,-0.014,0.007,0.008,0.000,0.000
299.236,6,0,0.115,0.019,6.350,0.159,0.025,-0.359,0.095,0.011,0.053,65.000,0.000,0.0119160,9161.085,9144.000,0.022,9.889,3660.890,7.366,910.686,9.208,890.690,7.160,0.067,0.019,-0.085,0.007,-0.029,0.011,0.000,0.000,0.000,-0.055,0.640,0.047,0.765,0.0000000,0.0000000,7.042,0.000,0.000,0.000,0,00:00:00,-6399,0.000,7.042,91065.703,9.206,40.291,0.000,0.048,0.055,0.001,-0.014,0.007,0.008,0.000,0.000
299.337,6,0,0.119,0.019,6.433,0.162,0.025,-0.265,0.095,0.011,0.053,65.000,0.000,0.0119160,9161.085,9144.000,0.022,10.054,3661.627,7.372,910.686,9.208,890.690,7.160,0.067,0.019,-0.085,0.007,-0.029,0.011,0.000,0.000,0.000,-0.055,0.639,0.047,0.766,0.0000000,0.0000000,7.042,0.000,0.000,0.000,0,00:00:00,-6399,0.000,7.042,91065.703,9.206,40.291,0.000,0.048,0.055,0.001,-0.014,0.007,0.008,0.000,0.000
299.438,6,0,0.123,0.020,6.512,0.165,0.025,-0.180,0.095,0.011,0.053,65.000,0.000,0.0119160,9161.085,9144.000,0.022,10.219,3662.365,7.377,910.686,9.208,890.690,7.160,0.067,0.019,-0.085,0.007,-0.029,0.011,0.000,0.000,0.000,-0.054,0.638,0.047,0.767,0.0000000,0.0000000,7.042,0.000,0.000,0.000,0,00:00:00,-6399,0.000,7.042,91065.703,9.206,40.291,0.000,0.048,0.055,0.001,-0.014,0.007,0.008,0.000,0.000
299.539,6,0,0.126,0.020,6.588,0.168,0.025,-0.105,0.096,0.011,0.052,65.000,0.000,0.0119160,9161.085,9144.000,0.022,10.383,3663.103,7.382,910.686,9.208,890.690,7.160,0.067,0.019,-0.085,0.007,-0.029,0.011,0.000,0.000,0.000,-0.053,0.637,0.047,0.768,0.0000000,0.0000000,7.042,0.000,0.000,0.000,0,00:00:00,-6399,0.000,7.042,91065.703,9.206,40.291,0.000,0.048,0.055,0.001,-0.014,0.007,0.008,0.000,0.000
299.640,6,0,0.130,0.021,6.659,0.171,0.025,-0.039,0.096,0.011,0.052,65.000,0.000,0.0119160,9161.085,9144.000,0.022,10.548,3663.842,7.387,910.686,9.208,890.690,7.160,0.067,0.019,-0.085,0.007,-0.029,0.011,0.000,0.000,0.000,-0.053,0.636,0.048,0.769,0.0000000,0.0000000,7.042,0.000,0.000,0.000,0,00:00:00,-6399,0.000,7.042,91065.703,9.206,40.291,0.000,0.048,0.055,0.001,-0.014,0.007,0.008,0.000,0.000
299.741,6,0,0.134,0.021,6.726,0.173,0.025,0.019,0.096,0.011,0.052,65.000,0.000,0.0119160,9161.085,9144.000,0.022,10.713,3664.581,7.393,910.686,9.208,890.690,7.160,0.067,0.019,-0.085,0.007,-0.029,0.011,0.000,0.000,0.000,-0.052,0.635,0.048,0.769,0.0000000,0.0000000,7.042,0.000,0.000,0.000,0,00:00:00,-6399,0.000,7.042,91065.703,9.206,40.291,0.000,0.048,0.055,0.001,-0.014,0.007,0.008,0.000,0.000
299.842,6,0,0.137,0.021,6.789,0.176,0.025,0.070,0.096,0.011,0.052,65.000,0.000,0.0119160,9161.085,9144.000,0.022,10.877,3665.321,7.398,910.686,9.208,890.690,7.160,0.067,0.019,-0.085,0.007,-0.029,0.011,0.000,0.000,0.000,-0.051,0.634,0.048,0.770,0.0000000,0.0000000,7.042,0.000,0.000,0.000,0,00:00:00,-6399,0.000,7.042,91065.703,9.206,40.291,0.000,0.048,0.055,0.001,-0.014,0.007,0.008,0.000,0.000
299.943,6,0,0.140,0.022,6.847,0.178,0.025,0.113,0.096,0.011,0.051,65.000,0.000,0.0119160,9161.085,9144.000,0.022,11.042,3666.061,7.403,910.686,9.208,890.690,7.160,0.067,0.019,-0.085,0.007,-0.029,0.011,0.000,0.000,0.000,-0.051,0.633,0.048,0.771,0.0000000,0.0000000,7.042,0.000,0.000,0.000,0,00:00:00,-6399,0.000,7.042,91065.703,9.206,40.291,0.000,0.048,0.055,0.001,-0.014,0.007,0.008,0.000,0.000
300.044,6,0,0.144,0.022,6.901,0.180,0.025,0.150,0.096,0.011,0.051,65.000,0.000,0.0119160,9161.085,9144.000,0.022,11.206,3666.802,7.408,910.686,9.208,890.690,7.160,0.067,0.019,-0.085,0.007,-0.029,0.011,0.000,0.000,0.000,-0.050,0.632,0.049,0.772,0.0000000,0.0000000,7.042,0.000,0.000,0.000,0,00:00:00,-6399,0.000,7.042,91065.703,9.206,40.291,0.000,0.048,0.055,0.001,-0.014,0.007,0.008,0.000,0.000
300.145,6,0,0.147,0.022,6.950,0.182,0.025,0.180,0.096,0.011,0.051,65.000,0.000,0.0119160,9161.085,9144.000,0.022,11.371,3667.543,7.413,910.686,9.208,890.690,7.160,0.067,0.019,-0.085,0.007,-0.029,0.011,0.000,0.000,0.000,-0.049,0.631,0.049,0.773,0.0000000,0.0000000,7.042,0.000,0.000,0.000,0,00:00:00,-6399,0.000,7.042,91065.703,9.206,40.291,0.000,0.048,0.055,0.001,-0.014,0.007,0.008,0.000,0.000
300.246,6,0,0.150,0.022,6.996,0.184,0.025,0.205,0.097,0.011,0.050,65.000,0.000,0.0119160,9161.085,9144.000,0.022,11.535,3668.285,7.418,910.686,9.208,890.690,7.160,0.067,0.019,-0.085,0.007,-0.029,0.011,0.000,0.000,0.000,-0.049,0.629,0.049,0.774,0.0000000,0.0000000,7.042,0.000,0.000,0.000,0,00:00:00,-6399,0.000,7.042,91065.703,9.206,40.291,0.000,0.048,0.055,0.001,-0.014,0.007,0.008,0.000,0.000
300.347,6,0,0.152,0.023,7.037,0.186,0.025,0.225,0.097,0.010,0.050,65.000,0.000,0.0119160,9161.085,9144.000,0.022,11.700,3669.028,7.423,910.686,9.208,890.690,7.160,0.067,0.019,-0.085,0.007,-0.029,0.011,0.000,0.000,0.000,-0.048,0.628,0.049,0.775,0.0000000,0.0000000,7.042,0.000,0.000,0.000,0,00:00:00,-6399,0.000,7.042,91065.703,9.206,40.291,0.000,0.048,0.055,0.001,-0.014,0.007,0.008,0.000,0.000
300.448,6,0,0.155,0.023,7.074,0.187,0.025,0.241,0.097,0.010,0.050,65.000,0.000,0.0119160,9161.085,9144.000,0.022,11.864,3669.770,7.428,910.686,9.208,890.690,7.160,0.067,0.019,-0.085,0.007,-0.029,0.011,0.000,0.000,0.000,-0.047,0.627,0.050,0.776,0.0000000,0.0000000,7.042,0.000,0.000,0.000,0,00:00:00,-6399,0.000,7.042,91065.703,9.206,40.291,0.000,0.048,0.055,0.001,-0.014,0.007,0.008,0.000,0.000
300.549,6,0,0.158,0.023,7.107,0.189,0.025,0.252,0.097,0.010,0.050,65.000,0.000,0.0119160,9161.085,9144.000,0.022,12.028,3670.514,7.433,910.686,9.208,890.690,7.160,0.067,0.019,-0.085,0.007,-0.029,0.011,0.000,0.000,0.000,-0.047,0.626,0.050,0.777,0.0000000,0.0000000,7.042,0.000,0.000,0.000,0,00:00:00,-6399,0.000,7.042,91065.703,9.206,40.291,0.000,0.048,0.055,0.001,-0.014,0.007,0.008,0.000,0.000
300.650,6,0,0.160,0.023,7.136,0.190,0.024,0.260,0.097,0.010,0.049,65.000,0.000,0.0119160,9161.085,9144.000,0.022,12.192,3671.257,7.438,910.686,9.208,890.690,7.160,0.067,0.019,-0.085,0.007,-0.029,0.011,0.000,0.000,0.000,-0.046,0.625,0.050,0.777,0.0000000,0.0000000,7.042,0.000,0.000,0.000,0,00:00:00,-6399,0.000,7.042,91065.703,9.206,40.291,0.000,0.048,0.055,0.001,-0.014,0.007,0.008,0.000,0.000
300.751,6,0,0.163,0.023,7.162,0.191,0.024,0.265,0.097,0.010,0.049,65.000,0.000,0.0119160,9161.085,9144.000,0.022,12.357,3672.002,7.443,910.686,9.208,890.690,7.160,0.067,0.019,-0.085,0.007,-0.029,0.011,0.000,0.000,0.000,-0.045,0.624,0.051,0.778,0.0000000,0.0000000,7.042,0.000,0.000,0.000,0,00:00:00,-6399,0.000,7.042,91065.703,9.206,40.291,0.000,0.048,0.055,0.001,-0.014,0.007,0.008,0.000,0.000
300.852,6,0,0.165,0.023,7.185,0.192,0.024,0.266,0.098,0.010,0.049,65.000,0.000,0.0119160,9161.085,9144.000,0.022,12.521,3672.747,7.448,910.686,9.208,890.690,7.160,0.067,0.019,-0.085,0.007,-0.029,0.011,0.000,0.000,0.000,-0.045,0.623,0.051,0.779,0.0000000,0.0000000,7.042,0.000,0.000,0.000,0,00:00:00,-6399,0.000,7.042,91065.703,9.206,40.291,0.000,0.048,0.055,0.001,-0.014,0.007,0.008,0.000,0.000
300.953,6,0,0.167,0.023,7.205,0.193,0.024,0.266,0.098,0.010,0.048,65.000,0.000,0.0119160,9161.085,9144.000,0.022,12.685,3673.492,7.453,910.686,9.208,890.690,7.160,0.067,0.019,-0.085,0.007,-0.029,0.011,0.000,0.000,0.000,-0.044,0.622,0.051,0.780,0.0000000,0.0000000,7.042,0.000,0.000,0.000,0,00:00:00,-6399,0.000,7.042,91065.703,9.206,40.291,0.000,0.048,0.055,0.001,-0.014,0.007,0.008,0.000,0.000
301.054,6,0,0.169,0.023,7.222,0.194,0.024,0.263,0.098,0.010,0.048,65.000,0.000,0.0119160,9161.085,9144.000,0.022,12.849,3674.238,7.457,910.686,9.208,890.690,7.160,0.067,0.019,-0.085,0.007,-0.029,0.011,0.000,0.000,0.000,-0.043,0.621,0.051,0.781,0.0000000,0.0000000,7.042,0.000,0.000,0.000,0,00:00:00,-6399,0.000,7.042,91065.703,9.206,40.291,0.000,0.048,0.055,0.001,-0.014,0.007,0.008,0.000,0.000
301.155,6,0,0.171,0.023,7.236,0.195,0.023,0.259,0.098,0.010,0.048,65.000,0.000,0.0119160,9161.085,9144.000,0.022,13.013,3674.984,7.462,910.686,9.208,890.690,7.160,0.067,0.019,-0.085,0.007,-0.029,0.011,0.000,0.000,0.000,-0.043,0.620,0.052,0.782,0.0000000,0.0000000,7.042,0.000,0.000,0.000,0,00:00:00,-6399,0.000,7.042,91065.703,9.206,40.291,0.000,0.048,0.055,0.001,-0.014,0.007,0.008,0.000,0.000
301.256,6,0,0.173,0.023,7.248,0.196,0.023,0.253,0.098,0.010,0.048,65.000,0.000,0.0119160,9161.085,9144.000,0.022,13.177,3675.730,7.467,910.686,9.208,890.690,7.160,0.067,0.019,-0.085,0.007,-0.029,0.011,0.000,0.000,0.000,-0.042,0.619,0.052,0.783,0.0000000,0.0000000,7.042,0.000,0.000,0.000,0,00:00:00,-6399,0.000,7.042,91065.703,9.206,40.291,0.000,0.048,0.055,0.001,-0.014,0.007,0.008,0.000,0.000
301.357,6,0,0.174,0.023,7.258,0.196,0.023,0.245,0.098,0.010,0.047,65.000,0.000,0.0119160,9161.085,9144.000,0.022,13.341,3676.478,7.472,910.686,9.208,890.690,7.160,0.067,0.019,-0.085,0.007,-0.029,0.011,0.000,0.000,0.000,-0.041,0.618,0.052,0.784,0.0000000,0.0000000,7.042,0.000,0.000,0.000,0,00:00:00,-6399,0.000,7.042,91065.703,9.206,40.291,0.000,0.048,0.055,0.001,-0.014,0.007,0.008,0.000,0.000
301.458,6,0,0.176,0.023,7.266,0.197,0.023,0.237,0.098,0.010,0.047,65.000,0.000,0.0119160,9161.085,9144.000,0.022,13.505,3677.225,7.476,910.686,9.208,890.690,7.160,0.067,0.019,-0.085,0.007,-0.029,0.011,0.000,0.000,0.000,-0.041,0.617,0.052,0.784,0.0000000,0.0000000,7.042,0.000,0.000,0.000,0,00:00:00,-6399,0.000,7.042,91065.703,9.206,40.291,0.000,0.048,0.055,0.001,-0.014,0.007,0.008,0.000,0.000
301.559,6,0,0.178,0.023,7.272,0.197,0.022,0.228,0.099,0.010,0.047,65.000,0.000,0.0119160,9161.085,9144.000,0.022,13.669,3677.973,7.481,910.686,9.208,890.690,7.160,0.067,0.019,-0.085,0.007,-0.029,0.011,0.000,0.000,0.000,-0.040,0.616,0.053,0.785,0.0000000,0.0000000,7.042,0.000,0.000,0.000,0,00:00:00,-6399,0.000,7.042,91065.703,9.206,40.291,0.000,0.048,0.055,0.001,-0.014,0.007,0.008,0.000,0.000
301.660,6,0,0.179,0.023,7.276,0.198,0.022,0.219,0.099,0.010,0.046,65.000,0.000,0.0119160,9161.085,9144.000,0.022,13.832,3678.722,7.486,910.686,9.208,890.690,7.160,0.067,0.019,-0.085,0.007,-0.029,0.011,0.000,0.000,0.000,-0.039,0.614,0.053,0.786,0.0000000,0.0000000,7.042,0.000,0.000,0.000,0,00:00:00,-6399,0.000,7.042,91065.703,9.206,40.291,0.000,0.048,0.055,0.001,-0.014,0.007,0.008,0.000,0.000
301.761,6,0,0.180,0.023,7.279,0.198,0.022,0.209,0.099,0.009,0.046,65.000,0.000,0.0119160,9161.085,9144.000,0.022,13.996,3679.471,7.490,910.686,9.208,890.690,7.160,0.067,0.019,-0.085,0.007,-0.029,0.011,0.000,0.000,0.000,-0.039,0.613,0.053,0.787,0.0000000,0.0000000,7.042,0.000,0.000,0.000,0,00:00:00,-6399,0.000,7.042,91065.703,9.206,40.291,0.000,0.048,0.055,0.001,-0.014,0.007,0.008,0.000,0.000
301.862,6,0,0.182,0.022,7.280,0.199,0.022,0.199,0.099,0.009,0.046,65.000,0.000,0.0119160,9161.085,9144.000,0.022,14.160,3680.221,7.495,910.686,9.208,890.690,7.160,0.067,0.019,-0.085,0.007,-0.029,0.011,0.000,0.000,0.000,-0.038,0.612,0.053,0.788,0.0000000,0.0000000,7.042,0.000,0.000,0.000,0,00:00:00,-6399,0.000,7.042,91065.703,9.206,40.291,0.000,0.048,0.055,0.001,-0.014,0.007,0.008,0.000,0.000
301.963,6,0,0.183,0.022,7.281,0.199,0.021,0.189,0.099,0.009,0.046,65.000,0.000,0.0119160,9161.085,9144.000,0.022,14.323,3680.970,7.500,910.686,9.208,890.690,7.160,0.067,0.019,-0.085,0.007,-0.029,0.011,0.000,0.000,0.000,-0.037,0.611,0.054,0.789,0.0000000,0.0000000,7.042,0.000,0.000,0.000,0,00:00:00,-6399,0.000,7.042,91065.703,9.206,40.291,0.000,0.048,0.055,0.001,-0.014,0.007,0.008,0.000,0.000
302.064,6,0,0.184,0.022,7.280,0.199,0.021,0.179,0.099,0.009,0.045,65.000,0.000,0.0119160,9161.085,9144.000,0.022,14.487,3681.721,7.504,910.686,9.208,890.690,7.160,0.067,0.019,-0.085,0.007,-0.029,0.011,0.000,0.000,0.000,-0.037,0.610,0.054,0.790,0.0000000,0.0000000,7.042,0.000,0.000,0.000,0,00:00:00,-6399,0.000,7.042,91065.703,9.206,40.291,0.000,0.048,0.055,0.001,-0.014,0.007,0.008,0.000,0.000
302.165,6,0,0.185,0.022,7.279,0.199,0.021,0.169,0.099,0.009,0.045,65.000,0.000,0.0119160,9161.085,9144.000,0.022,14.651,3682.472,7.509,910.686,9.208,890.690,7.160,0.067,0.019,-0.085,0.007,-0.029,0.011,0.000,0.000,0.000,-0.036,0.609,0.054,0.791,0.0000000,0.0000000,7.042,0.000,0.000,0.000,0,00:00:00,-6399,0.000,7.042,91065.703,9.206,40.291,0.000,0.048,0.055,0.001,-0.014,0.007,0.008,0.000,0.000
302.266,6,0,0.186,0.022,7.277,0.200,0.021,0.159,0.100,0.009,0.045,65.000,0.000,0.0119160,9161.085,9144.000,0.022,14.814,3683.223,7.513,910.686,9.208,890.690,7.160,0.067,0.019,-0.085,0.007,-0.029,0.011,0.000,0.000,0.000,-0.035,0.608,0.054,0.791,0.0000000,0.0000000,7.042,0.000,0.000,0.000,0,00:00:00,-6399,0.000,7.042,91065.703,9.206,40.291,0.000,0.048,0.055,0.001,-0.014,0.007,0.008,0.000,0.000
302.367,6,0,0.186,0.022,7.275,0.200,0.020,0.149,0.100,0.009,0.044,65.000,0.000,0.0119160,9161.085,9144.000,0.022,14.977,3683.975,7.517,910.686,9.208,890.690,7.160,0.067,0.019,-0.085,0.007,-0.029,0.011,0.000,0.000,0.000,-0.035,0.607,0.055,0.792,0.0000000,0.0000000,7.042,0.000,0.000,0.000,0,00:00:00,-6399,0.000,7.042,91065.703,9.206,40.291,0.000,0.048,0.055,0.001,-0.014,0.007,0.008,0.000,0.000
302.468,6,0,0.187,0.021,7.272,0.200,0.020,0.140,0.100,0.009,0.044,65.000,0.000,0.0119160,9161.085,9144.000,0.022,15.141,3684.727,7.522,910.686,9.208,890.690,7.160,0.067,0.019,-0.085,0.007,-0.029,0.011,0.000,0.000,0.000,-0.034,0.606,0.055,0.793,0.0000000,0.0000000,7.042,0.000,0.000,0.000,0,00:00:00,-6399,0.000,7.042,91065.703,9.206,40.291,0.000,0.048,0.055,0.001,-0.014,0.007,0.008,0.000,0.000
302.569,6,0,0.188,0.021,7.268,0.200,0.020,0.131,0.100,0.009,0.044,65.000,0.000,0.0119160,9161.085,9144.000,0.022,15.304,3685.480,7.526,910.686,9.208,890.690,7.160,0.067,0.019,-0.085,0.007,-0.029,0.011,0.000,0.000,0.000,-0.033,0.605,0.055,0.794,0.0000000,0.0000000,7.042,0.000,0.000,0.000,0,00:00:00,-6399,0.000,7.042,91065.703,9.206,40.291,0.000,0.048,0.055,0.001,-0.014,0.007,0.008,0.000,0.000
302.670,6,0,0.189,0.021,7.265,0.200,0.020,0.123,0.100,0.009,0.044,65.000,0.000,0.0119160,9161.085,9144.000,0.022,15.467,3686.233,7.531,910.686,9.208,890.690,7.160,0.067,0.019,-0.085,0.007,-0.029,0.011,0.000,0.000,0.000,-0.033,0.604,0.056,0.795,0.0000000,0.0000000,7.042,0.000,0.000,0.000,0,00:00:00,-6399,0.000,7.042,91065.703,9.206,40.291,0.000,0.048,0.055,0.001,-0.014,0.007,0.008,0.000,0.000
302.771,6,0,0.189,0.021,7.261,0.200,0.019,0.115,0.100,0.009,0.043,65.000,0.000,0.0119160,9161.085,9144.000,0.022,15.631,3686.986,7.535,910.686,9.208,890.690,7.160,0.067,0.019,-0.085,0.007,-0.029,0.011,0.000,0.000,0.000,-0.032,0.602,0.056,0.796,0.0000000,0.0000000,7.042,0.000,0.000,0.000,0,00:00:00,-6399,0.000,7.042,91065.703,9.206,40.291,0.000,0.048,0.055,0.001,-0.014,0.007,0.008,0.000,0.000
302.872,6,0,0.190,0.021,7.257,0.200,0.019,0.107,0.100,0.009,0.043,65.000,0.000,0.0119160,9161.085,9144.000,0.022,15.794,3687.740,7.539,910.686,9.208,890.690,7.160,0.067,0.019,-0.085,0.007,-0.029,0.011,0.000,0.000,0.000,-0.031,0.601,0.056,0.796,0.0000000,0.0000000,7.042,0.000,0.000,0.000,0,00:00:00,-6399,0.000,7.042,91065.703,9.206,40.291,0.000,0.048,0.055,0.001,-0.014,0.007,0.008,0.000,0.000
302.973,6,0,0.190,0.021,7.253,0.200,0.019,0.100,0.101,0.009,0.043,65.000,0.000,0.0119160,9161.085,9144.000,0.022,15.957,3688.494,7.544,910.686,9.208,890.690,7.160,0.067,0.019,-0.085,0.007,-0.029,0.011,0.000,0.000,0.000,-0.031,0.600,0.056,0.797,0.0000000,0.0000000,7.042,0.000,0.000,0.000,0,00:00:00,-6399,0.000,7.042,91065.703,9.206,40.291,0.000,0.048,0.055,0.001,-0.014,0.007,0.008,0.000,0.000
303.074,6,0,0.191,0.020,7.248,0.200,0.019,0.094,0.101,0.008,0.042,65.000,0.000,0.0119160,9161.085,9144.000,0.022,16.120,3689.249,7.548,910.686,9.208,890.690,7.160,0.067,0.019,-0.085,0.007,-0.029,0.011,0.000,0.000,0.000,-0.030,0.599,0.057,0.798,0.0000000,0.0000000,7.042,0.000,0.000,0.000,0,00:00:00,-6399,0.000,7.042,91065.703,9.206,40.291,0.000,0.048,0.055,0.001,-0.014,0.007,0.008,0.000,0.000
303.175,6,0,0.191,0.020,7.244,0.200,0.019,0.088,0.101,0.008,0.042,65.000,0.000,0.0119160,9161.085,9144.000,0.022,16.283,3690.004,7.552,910.686,9.208,890.690,7.160,0.067,0.019,-0.085,0.007,-0.029,0.011,0.000,0.000,0.000,-0.029,0.598,0.057,0.799,0.0000000,0.0000000,7.042,0.000,0.000,0.000,0,00:00:00,-6399,0.000,7.042,91065.703,9.206,40.291,0.000,0.048,0.055,0.001,-0.014,0.007,0.008,0.000,0.000
303.276,6,0,0.192,0.020,7.240,0.200,0.018,0.082,0.101,0.008,0.042,65.000,0.000,0.0119160,9161.085,9144.000,0.022,16.446,3690.760,7.556,910.686,9.208,890.690,7.160,0.067,0.019,-0.085,0.007,-0.029,0.011,0.000,0.000,0.000,-0.029,0.597,0.057,0.800,0.0000000,0.0000000,7.042,0.000,0.000,0.000,0,00:00:00,-6399,0.000,7.042,91065.703,9.206,40.291,0.000,0.048,0.055,0.001,-0.014,0.007,0.008,0.000,0.000
303.377,6,0,0.192,0.020,7.236,0.200,0.018,0.077,0.101,0.008,0.042,65.000,0.000,0.0119160,9161.085,9144.000,0.022,16.609,3691.516,7.560,910.686,9.208,890.690,7.160,0.067,0.019,-0.085,0.007,-0.029,0.011,0.000,0.000,0.000,-0.028,0.596,0.057,0.801,0.0000000,0.0000000,7.042,0.000,0.000,0.000,0,00:00:00,-6399,0.000,7.042,91065.703,9.206,40.291,0.000,0.048,0.055,0.001,-0.014,0.007,0.008,0.000,0.000
303.478,6,0,0.192,0.020,7.232,0.200,0.018,0.072,0.101,0.008,0.041,65.000,0.000,0.0119160,9161.085,9144.000,0.023,16.772,3692.272,7.564,910.686,9.208,890.690,7.160,0.067,0.019,-0.085,0.007,-0.029,0.011,0.000,0.000,0.000,-0.027,0.595,0.058,0.801,0.0000000,0.0000000,7.042,0.000,0.000,0.000,0,00:00:00,-6399,0.000,7.042,91065.703,9.206,40.291,0.000,0.048,0.055,0.001,-0.014,0.007,0.008,0.000,0.000
303.579,6,0,0.193,0.019,7.229,0.200,0.018,0.068,0.101,0.008,0.041,65.000,0.000,0.0119160,9161.085,9144.000,0.023,16.935,3693.029,7.569,910.686,9.208,890.690,7.160,0.067,0.019,-0.085,0.007,-0.029,0.011,0.000,0.000,0.000,-0.027,0.594,0.058,0.802,0.0000000,0.0000000,7.042,0.000,0.000,0.000,0,00:00:00,-6399,0.000,7.042,91065.703,9.206,40.291,0.000,0.048,0.055,0.001,-0.014,0.007,0.008,0.000,0.000
303.680,6,0,0.193,0.019,7.225,0.200,0.017,0.064,0.101,0.008,0.041,65.000,0.000,0.0119160,9161.085,9144.000,0.023,17.097,3693.787,7.573,910.686,9.208,890.690,7.160,0.067,0.019,-0.085,0.007,-0.029,0.011,0.000,0.000,0.000,-0.026,0.592,0.058,0.803,0.0000000,0.0000000,7.042,0.000,0.000,0.000,0,00:00:00,-6399,0.000,7.042,91065.703,9.206,40.291,0.000,0.048,0.055,0.001,-0.014,0.007,0.008,0.000,0.000
303.781,6,0,0.193,0.019,7.222,0.200,0.017,0.061,0.102,0.008,0.040,65.000,0.000,0.0119160,9161.085,9144.000,0.023,17.260,3694.544,7.577,910.686,9.208,890.690,7.160,0.067,0.019,-0.085,0.007,-0.029,0.011,0.000,0.000,0.000,-0.025,0.591,0.058,0.804,0.0000000,0.0000000,7.042,0.000,0.000,0.000,0,00:00:00,-6399,0.000,7.042,91065.703,9.206,40.291,0.000,0.048,0.055,0.001,-0.014,0.007,0.008,0.000,0.000
303.882,6,0,0.193,0.019,7.218,0.200,0.017,0.057,0.102,0.008,0.040,65.000,0.000,0.0119160,9161.085,9144.000,0.023,17.423,3695.302,7.581,910.686,9.208,890.690,7.160,0.067,0.019,-0.085,0.007,-0.029,0.011,0.000,0.000,0.000,-0.025,0.590,0.059,0.805,0.0000000,0.0000000,7.042,0.000,0.000,0.000,0,00:00:00,-6399,0.000,7.042,91065.703,9.206,40.291,0.000,0.048,0.055,0.001,-0.014,0.007,0.008,0.000,0.000
303.983,6,0,0.193,0.019,7.215,0.200,0.017,0.055,0.102,0.008,0.040,65.000,0.000,0.0119160,9161.085,9144.000,0.023,17.585,3696.061,7.585,910.686,9.208,890.690,7.160,0.067,0.019,-0.085,0.007,-0.029,0.011,0.000,0.000,0.000,-0.024,0.589,0.059,0.806,0.0000000,0.0000000,7.042,0.000,0.000,0.000,0,00:00:00,-6399,0.000,7.042,91065.703,9.206,40.291,0.000,0.048,0.055,0.001,-0.014,0.007,0.008,0.000,0.000
304.084,6,0,0.194,0.018,7.212,0.200,0.017,0.052,0.102,0.008,0.039,65.000,0.000,0.0119160,9161.085,9144.000,0.023,17.748,3696.820,7.589,910.686,9.208,890.690,7.160,0.067,0.019,-0.085,0.007,-0.029,0.011,0.000,0.000,0.000,-0.023,0.588,0.059,0.806,0.0000000,0.0000000,7.042,0.000,0.000,0.000,0,00:00:00,-6399,0.000,7.042,91065.703,9.206,40.291,0.000,0.048,0.055,0.001,-0.014,0.007,0.008,0.000,0.000
304.185,6,0,0.194,0.018,7.210,0.200,0.016,0.050,0.102,0.008,0.039,65.000,0.000,0.0119160,9161.085,9144.000,0.023,17.910,3697.579,7.592,910.686,9.208,890.690,7.160,0.067,0.019,-0.085,0.007,-0.029,0.011,0.000,0.000,0.000,-0.023,0.587,0.059,0.807,0.0000000,0.0000000,7.042,0.000,0.000,0.000,0,00:00:00,-6399,0.000,7.042,91065.703,9.206,40.291,0.000,0.048,0.055,0.001,-0.014,0.007,0.008,0.000,0.000
304.286,6,0,0.194,0.018,7.207,0.200,0.016,0.048,0.102,0.008,0.039,65.000,0.000,0.0119160,9161.085,9144.000,0.023,18.073,3698.339,7.596,910.686,9.208,890.690,7.160,0.067,0.019,-0.085,0.007,-0.029,0.011,0.000,0.000,0.000,-0.022,0.586,0.060,0.808,0.0000000,0.0000000,7.042,0.000,0.000,0.000,0,00:00:00,-6399,0.000,7.042,91065.703,9.206,40.291,0.000,0.048,0.055,0.001,-0.014,0.007,0.008,0.000,0.000
304.387,6,0,0.194,0.018,7.205,0.200,0.016,0.047,0.102,0.007,0.039,65.000,0.000,0.0119160,9161.085,9144.000,0.023,18.235,3699.099,7.600,910.686,9.208,890.690,7.160,0.067,0.019,-0.085,0.007,-0.029,0.011,0.000,0.000,0.000,-0.021,0.585,0.060,0.809,0.0000000,0.0000000,7.042,0.000,0.000,0.000,0,00:00:00,-6399,0.000,7.042,91065.703,9.206,40.291,0.000,0.048,0.055,0.001,-0.014,0.007,0.008,0.000,0.000
304.488,6,0,0.194,0.018,7.203,0.200,0.016,0.045,0.102,0.007,0.038,65.000,0.000,0.0119160,9161.085,9144.000,0.023,18.397,3699.859,7.604,910.686,9.208,890.690,7.160,0.067,0.019,-0.085,0.007,-0.029,0.011,0.000,0.000,0.000,-0.021,0.583,0.060,0.810,0.0000000,0.0000000,7.042,0.000,0.000,0.000,0,00:00:00,-6399,0.000,7.042,91065.703,9.206,40.291,0.000,0.048,0.055,0.001,-0.014,0.007,0.008,0.000,0.000
304.589,6,0,0.194,0.017,7.201,0.200,0.016,0.044,0.103,0.007,0.038,65.000,0.000,0.0119160,9161.085,9144.000,0.023,18.560,3700.620,7.608,910.686,9.208,890.690,7.160,0.067,0.019,-0.085,0.007,-0.029,0.011,0.000,0.000,0.000,-0.020,0.582,0.060,0.810,0.0000000,0.0000000,7.042,0.000,0.000,0.000,0,00:00:00,-6399,0.000,7.042,91065.703,9.206,40.291,0.000,0.048,0.055,0.001,-0.014,0.007,0.008,0.000,0.000
