State - Time (s),State - Stage,State - Stage,State - PX (m),State - PY (m),State - PZ (m),State - VX (m/s),State - VY (m/s),State - VZ (m/s),State - AX (m/s/s),State - AY (m/s/s),State - AZ (m/s/s),State - Actuation Angle (deg),State - Acutal Angle (deg),State - CdA,State - Est Apo (m),State - Target Apogee (m),State - Mach Number,State - Tilt [deg],State - Pos - Accel Integrated [m],State - Velo - Accel Integrated [m/s],MockBarometer - Pres (hPa),MockBarometer - Temp (C),MockBarometer - Alt ASL (m),MockBarometer - Alt AGL (m),MockIMU - AccX (m/s^2),MockIMU - AccY (m/s^2),MockIMU - AccZ (m/s^2),MockIMU - GyroX (rad/s),MockIMU - GyroY (rad/s),MockIMU - GyroZ (rad/s),MockIMU - MagX (uT),MockIMU - MagY (uT),MockIMU - MagZ (uT),MockIMU - OriX,MockIMU - OriY,MockIMU - OriZ,MockIMU - OriW,MockGPS - Lat,MockGPS - Lon,MockGPS - Alt (m),MockGPS - Disp X (m),MockGPS - Disp Y (m),MockGPS - Disp Z (m),MockGPS - Fix Quality,MockGPS - Time of Day,E5 - Rel Steps,MockBR - Battery Voltage (V),MockBR - ALT (m),MockBR - PRES (Pa),MockBR - TEMP (C),MockBR - VEL (m/s),MockBR - ANG (deg),MockBR - ACCX (m/s^2),MockBR - ACCY (m/s^2),MockBR - ACCZ (m/s^2),MockBR - GYROX (rad/s),MockBR - GYROY (rad/s),MockBR - GYROZ (rad/s),MockBR - ROLL (deg),MockBR - TILT (deg)
38.596,0,0,-5470.631,31.724,-5333.000,-283.482,1.644,-276.350,-7.345,0.043,-7.160,0.000,0.000,0.0116870,0.000,9144.000,0.843,4.000,0.026,0.265,911.180,9.237,886.203,0.000,-10.247,0.445,0.138,0.104,0.153,-0.204,0.000,0.000,0.000,0.025,0.382,-0.011,0.924,0.0000000,0.0000000,0.000,0.000,0.000,0.000,0,00:00:00,-855,0.000,0.000,91134.828,9.247,0.000,0.000,0.968,-9.777,0.100,-0.001,-0.018,-0.001,0.000,0.000
38.697,0,0,-0.040,0.000,-1.496,1.039,0.039,0.578,-4.392,0.476,-7.846,0.000,0.000,0.0116870,0.000,9144.000,0.003,44.928,0.073,0.461,911.509,9.257,883.226,-1.488,-8.890,1.188,0.797,0.212,0.238,-0.147,0.000,0.000,0.000,0.062,0.539,-0.012,0.840,0.0000000,0.0000000,0.000,0.000,0.000,0.000,0,00:00:00,-855,0.000,0.000,91142.086,9.251,0.000,0.000,1.087,-9.791,0.008,-0.009,-0.008,-0.003,0.000,0.000
38.798,0,0,0.026,-0.001,-0.749,0.787,-0.093,-0.383,-2.481,-1.310,-9.896,0.000,0.000,0.0116870,0.000,9144.000,0.003,24.304,0.118,0.453,911.348,9.247,884.687,-0.018,-10.274,-0.493,0.131,-0.226,-0.219,-0.063,0.000,0.000,0.000,0.031,0.620,-0.027,0.783,0.0000000,0.0000000,0.000,0.000,0.000,0.000,0,00:00:00,-855,0.000,0.000,91146.945,9.254,0.000,0.000,1.021,-9.741,0.041,0.000,0.008,0.002,0.000,0.000
38.899,0,0,0.063,-0.010,-1.646,0.586,-0.188,-1.091,-1.979,-0.947,-6.563,0.000,0.000,0.0116870,0.000,9144.000,0.003,13.230,0.196,0.777,911.827,9.275,880.345,-3.270,-6.905,-0.300,0.348,0.062,-0.129,-0.309,0.000,0.000,0.000,0.023,0.615,-0.041,0.787,0.0000000,0.0000000,0.000,0.000,0.000,0.000,0,00:00:00,-855,0.000,0.000,91205.008,9.289,0.000,0.000,1.016,-9.752,0.026,0.005,0.003,-0.002,0.000,0.000
39.000,0,0,0.076,-0.028,-1.629,0.178,-0.358,-2.049,-4.025,-1.682,-9.597,0.000,0.000,0.0116870,0.000,9144.000,0.003,13.970,0.276,0.799,911.619,9.263,882.226,-1.111,-10.335,-0.672,1.966,-0.090,0.017,-0.218,0.000,0.000,0.000,0.008,0.627,-0.050,0.777,0.0000000,0.0000000,0.000,0.000,0.000,0.000,0,00:00:00,-855,0.000,0.000,91114.039,9.235,0.000,0.000,0.960,-9.795,-0.016,0.003,0.006,-0.012,0.000,0.000
39.101,0,0,0.070,-0.060,-1.464,0.058,-0.578,-3.043,-1.178,-2.194,-10.180,0.000,0.000,0.0116870,0.000,9144.000,0.003,12.306,0.352,0.762,911.473,9.255,883.550,0.178,-10.393,-1.333,0.200,0.035,0.103,0.231,0.000,0.000,0.000,-0.001,0.666,-0.057,0.743,0.0000000,0.0000000,0.000,0.000,0.000,0.000,0,00:00:00,-855,0.000,0.000,91152.672,9.258,0.000,0.000,1.072,-9.719,0.105,-0.017,-0.000,-0.003,0.000,0.000
39.202,0,0,0.055,-0.103,-1.330,-0.124,-0.693,-3.990,-1.794,-1.150,-9.899,0.000,0.000,0.0116870,0.000,9144.000,0.003,6.417,0.427,0.753,911.361,9.248,884.569,1.025,-10.094,-0.062,0.804,0.277,-0.115,0.270,0.000,0.000,0.000,0.026,0.670,-0.048,0.741,0.0000000,0.0000000,0.000,0.000,0.000,0.000,0,00:00:00,-856,0.000,0.000,91108.594,9.232,0.000,0.000,1.008,-9.785,-0.084,-0.000,0.018,0.016,0.000,0.000
39.303,0,0,0.029,-0.160,-1.399,-0.308,-0.990,-4.687,-1.813,-2.963,-7.438,0.000,0.000,0.0116870,0.000,9144.000,0.004,5.865,0.526,0.990,911.386,9.249,884.340,0.697,-7.829,-2.170,1.184,-0.112,0.034,0.116,0.000,0.000,0.000,0.008,0.668,-0.056,0.742,0.0000000,0.0000000,0.000,0.000,0.000,0.000,0,00:00:00,-856,0.000,0.000,91167.625,9.267,0.000,0.000,1.114,-9.706,0.106,-0.001,0.000,-0.006,0.000,0.000
39.404,0,0,-0.009,-0.229,-1.958,-0.460,-1.037,-5.561,-1.513,-0.486,-8.566,0.000,0.000,0.0116870,0.000,9144.000,0.005,6.175,0.637,1.114,911.739,9.270,881.136,-2.229,-8.671,0.310,0.782,-0.032,0.255,0.056,0.000,0.000,0.000,0.024,0.676,-0.039,0.736,0.0000000,0.0000000,0.000,0.000,0.000,0.000,0,00:00:00,-856,0.000,0.000,91108.375,9.232,0.000,0.000,0.985,-9.826,0.044,0.003,-0.008,0.011,0.000,0.000
39.505,0,0,-0.050,-0.295,-2.333,-0.478,-1.047,-6.507,-0.184,-0.139,-9.958,0.000,0.000,0.0116870,0.000,9144.000,0.005,4.907,0.747,1.100,911.573,9.260,882.646,-0.647,-9.954,0.375,0.000,-0.389,0.481,-0.046,0.000,0.000,0.000,0.021,0.700,-0.016,0.713,0.0000000,0.0000000,0.000,0.000,0.000,0.000,0,00:00:00,-856,0.000,0.000,91168.492,9.267,0.000,0.000,0.941,-9.729,-0.039,-0.029,0.005,0.001,0.000,0.000
39.606,0,0,-0.096,-0.359,-2.934,-0.674,-1.076,-7.301,-1.945,-0.335,-8.172,0.000,0.000,0.0116870,0.000,9144.000,0.005,1.055,0.874,1.263,911.743,9.270,881.103,-2.189,-8.266,0.452,1.467,0.442,0.075,-0.205,0.000,0.000,0.000,0.035,0.685,-0.033,0.727,0.0000000,0.0000000,0.000,0.000,0.000,0.000,0,00:00:00,-856,0.000,0.000,91172.992,9.270,0.000,0.000,1.047,-9.790,-0.016,-0.011,-0.009,-0.010,0.000,0.000
39.707,0,0,-0.162,-0.429,-3.284,-0.967,-1.219,-8.082,-2.926,-1.470,-9.430,0.000,0.000,0.0116870,0.000,9144.000,0.006,3.316,1.004,1.301,911.477,9.255,883.516,0.223,-9.800,-0.487,1.834,-0.023,0.065,-0.116,0.000,0.000,0.000,0.022,0.664,-0.045,0.746,0.0000000,0.0000000,0.000,0.000,0.000,0.000,0,00:00:00,-856,0.000,0.000,91172.219,9.269,0.000,0.000,0.985,-9.795,-0.006,-0.002,-0.006,0.010,0.000,0.000
39.808,0,0,-0.247,-0.511,-3.554,-1.214,-1.430,-8.781,-2.487,-2.168,-9.667,0.000,0.000,0.0116870,0.000,9144.000,0.007,6.765,1.135,1.316,911.349,9.247,884.672,1.380,-10.074,-1.032,1.334,0.082,-0.150,-0.100,0.000,0.000,0.000,0.009,0.659,-0.062,0.750,0.0000000,0.0000000,0.000,0.000,0.000,0.000,0,00:00:00,-856,0.000,0.000,91201.508,9.286,0.000,0.000,1.018,-9.836,-0.065,0.001,-0.011,0.021,0.000,0.000
39.909,0,0,-0.347,-0.602,-3.980,-1.412,-1.502,-9.327,-2.013,-0.815,-8.076,0.000,0.000,0.0116870,0.000,9144.000,0.008,7.574,1.284,1.489,911.476,9.255,883.527,0.234,-8.315,0.353,0.818,0.343,-0.324,0.049,0.000,0.000,0.000,0.033,0.652,-0.062,0.755,0.0000000,0.0000000,0.000,0.000,0.000,0.000,0,00:00:00,-856,0.000,0.000,91191.812,9.281,0.000,0.000,0.943,-9.843,0.041,-0.011,0.001,-0.011,0.000,0.000
40.010,0,0,-0.452,-0.699,-4.344,-1.469,-1.655,-9.861,-0.649,-1.639,-9.015,0.000,0.000,0.0116870,0.000,9144.000,0.008,8.527,1.441,1.569,911.404,9.250,884.175,0.882,-9.180,-0.301,0.132,0.078,0.323,-0.284,0.000,0.000,0.000,0.033,0.683,-0.069,0.727,0.0000000,0.0000000,0.000,0.000,0.000,0.000,0,00:00:00,-856,0.000,0.000,91109.289,9.232,0.000,0.000,0.986,-9.740,0.001,0.020,0.004,0.004,0.000,0.000
40.111,0,0,-0.558,-0.800,-5.257,-1.580,-1.694,-10.832,-1.211,-0.556,-10.501,0.000,0.000,0.0116870,0.000,9144.000,0.008,3.759,1.591,1.499,911.958,9.283,879.159,-4.133,-10.531,0.926,0.542,-0.033,-0.071,0.154,0.000,0.000,0.000,0.059,0.682,-0.042,0.727,0.0000000,0.0000000,0.000,0.000,0.000,0.000,0,00:00:00,-856,0.000,0.000,91222.852,9.299,0.000,0.000,1.081,-9.683,-0.094,0.000,0.001,0.002,0.000,0.000
40.212,0,0,-0.676,-0.902,-5.429,-1.869,-1.815,-10.962,-3.012,-1.390,-8.010,0.000,0.000,0.0116870,0.000,9144.000,0.009,3.552,1.759,1.679,911.245,9.241,885.613,2.321,-8.454,0.041,1.924,0.237,-0.071,-0.425,0.000,0.000,0.000,0.053,0.656,-0.065,0.750,0.0000000,0.0000000,0.000,0.000,0.000,0.000,0,00:00:00,-856,0.000,0.000,91142.242,9.252,0.000,0.000,1.022,-9.742,0.030,-0.007,0.001,0.003,0.000,0.000
40.313,0,0,-0.815,-1.011,-5.568,-2.183,-1.960,-11.005,-3.308,-1.678,-7.836,0.000,0.000,0.0116870,0.000,9144.000,0.010,7.665,1.947,1.877,911.245,9.241,885.613,2.321,-8.454,0.041,1.924,0.237,-0.071,-0.425,0.000,0.000,0.000,0.055,0.640,-0.084,0.762,0.0000000,0.0000000,0.000,0.000,0.000,0.000,0,00:00:00,-856,0.000,0.000,91142.242,9.252,0.000,0.000,1.022,-9.742,0.030,-0.007,0.001,0.003,0.000,0.000
40.414,0,0,-0.975,-1.125,-6.272,-2.522,-2.069,-11.660,-3.612,-1.379,-9.964,0.000,0.000,0.0116870,0.000,9144.000,0.011,10.083,2.133,1.861,911.811,9.274,880.489,-2.804,-10.491,0.415,1.999,-0.251,0.504,0.089,0.000,0.000,0.000,0.060,0.647,-0.062,0.758,0.0000000,0.0000000,0.000,0.000,0.000,0.000,0,00:00:00,-856,0.000,0.000,91203.555,9.288,0.000,0.000,0.945,-9.749,0.013,0.002,0.005,-0.007,0.000,0.000
40.515,0,0,-1.152,-1.242,-6.656,-2.763,-2.176,-11.895,-2.714,-1.416,-8.869,0.000,0.000,0.0116870,0.000,9144.000,0.012,8.976,2.328,1.955,911.558,9.260,882.784,-0.509,-9.278,-0.112,1.393,-0.372,0.092,-0.183,0.000,0.000,0.000,0.041,0.652,-0.057,0.755,0.0000000,0.0000000,0.000,0.000,0.000,0.000,0,00:00:00,-856,0.000,0.000,91160.320,9.262,0.000,0.000,1.039,-9.760,0.015,-0.001,0.014,0.019,0.000,0.000
40.616,0,0,-1.327,-1.357,-6.831,-2.775,-2.210,-12.066,-0.528,-0.751,-10.210,0.000,0.000,0.0116870,0.000,9144.000,0.012,8.490,2.520,1.915,911.468,9.254,883.596,0.813,-10.225,0.724,-0.102,0.045,0.199,0.070,0.000,0.000,0.000,0.061,0.683,-0.041,0.727,0.0000000,0.0000000,0.000,0.000,0.000,0.000,0,00:00:00,-856,0.000,0.000,91193.203,9.282,0.000,0.000,1.048,-9.807,-0.006,-0.017,-0.001,0.016,0.000,0.000
40.717,0,0,-1.501,-1.467,-7.226,-2.992,-2.255,-12.326,-2.634,-0.930,-9.522,0.000,0.000,0.0116870,0.000,9144.000,0.013,3.393,2.714,1.944,911.689,9.267,881.590,-1.222,-9.787,0.464,1.572,0.080,0.064,0.047,0.000,0.000,0.000,0.066,0.666,-0.041,0.742,0.0000000,0.0000000,0.000,0.000,0.000,0.000,0,00:00:00,-856,0.000,0.000,91129.102,9.244,0.000,0.000,0.985,-9.790,0.013,-0.002,0.001,0.013,0.000,0.000
40.818,0,0,-1.691,-1.571,-7.288,-3.425,-2.252,-12.143,-4.887,-0.512,-7.950,0.000,0.000,0.0116870,0.000,9144.000,0.014,6.061,2.927,2.130,911.455,9.253,883.716,0.906,-8.821,0.442,3.056,-0.223,0.108,-0.037,0.000,0.000,0.000,0.055,0.625,-0.035,0.778,0.0000000,0.0000000,0.000,0.000,0.000,0.000,0,00:00:00,-856,0.000,0.000,91123.617,9.241,0.000,0.000,1.032,-9.735,0.001,0.006,0.011,-0.006,0.000,0.000
40.919,0,0,-1.904,-1.671,-7.567,-3.822,-2.394,-12.079,-4.636,-2.037,-7.204,0.000,0.000,0.0116870,0.000,9144.000,0.015,12.292,3.166,2.391,911.644,9.265,882.000,-1.128,-8.341,-0.821,2.699,0.168,0.099,-0.037,0.000,0.000,0.000,0.033,0.610,-0.063,0.789,0.0000000,0.0000000,0.000,0.000,0.000,0.000,0,00:00:00,-856,0.000,0.000,91102.102,9.228,0.000,0.000,0.952,-9.735,-0.001,0.002,0.014,-0.001,0.000,0.000
41.020,0,0,-2.122,-1.776,-7.213,-3.912,-2.523,-11.641,-1.720,-1.970,-8.493,0.000,0.000,0.0116870,0.000,9144.000,0.016,14.728,3.419,2.522,911.150,9.236,886.480,3.156,-8.847,-0.661,0.513,0.097,0.113,-0.056,0.000,0.000,0.000,0.028,0.651,-0.072,0.755,0.0000000,0.0000000,0.000,0.000,0.000,0.000,0,00:00:00,-856,0.000,0.000,91242.898,9.311,0.000,0.000,0.941,-9.699,0.015,-0.014,-0.012,-0.001,0.000,0.000
41.121,0,0,-2.327,-1.881,-6.786,-3.940,-2.651,-11.195,-1.240,-2.043,-8.559,0.000,0.000,0.0116870,0.000,9144.000,0.016,8.705,3.684,2.648,911.150,9.236,886.480,3.596,-8.847,-0.661,0.513,0.097,0.113,-0.056,0.000,0.000,0.000,0.028,0.670,-0.079,0.737,0.0000000,0.0000000,0.000,0.000,0.000,0.000,0,00:00:00,-856,0.000,0.000,91242.898,9.311,0.000,0.000,0.941,-9.699,0.015,-0.014,-0.012,-0.001,0.000,0.000
41.222,0,0,-2.517,-1.994,-7.189,-4.020,-2.909,-11.416,-1.880,-3.420,-8.216,0.000,0.000,0.0116870,0.000,9144.000,0.017,5.700,3.964,2.807,911.800,9.274,880.588,-2.400,-8.816,-1.840,1.273,0.109,-0.108,-0.006,0.000,0.000,0.000,0.005,0.661,-0.107,0.743,0.0000000,0.0000000,0.000,0.000,0.000,0.000,0,00:00:00,-856,0.000,0.000,91239.750,9.309,0.000,0.000,0.999,-9.779,-0.003,0.001,-0.006,-0.006,0.000,0.000
41.323,0,0,-2.691,-2.112,-7.511,-4.019,-3.010,-11.651,-1.204,-1.945,-9.149,0.000,0.000,0.0116870,0.000,9144.000,0.017,7.217,4.252,2.873,911.753,9.271,881.010,-2.106,-9.413,-0.218,0.534,0.163,0.054,-0.111,0.000,0.000,0.000,0.030,0.674,-0.095,0.732,0.0000000,0.0000000,0.000,0.000,0.000,0.000,0,00:00:00,-856,0.000,0.000,91136.773,9.248,0.000,0.000,1.063,-9.773,-0.005,-0.008,0.007,-0.006,0.000,0.000
41.424,0,0,-2.847,-2.223,-7.380,-3.992,-3.055,-11.633,-1.057,-1.478,-10.325,0.000,0.000,0.0116870,0.000,9144.000,0.017,5.154,4.534,2.822,911.424,9.252,883.993,0.942,-10.464,0.533,0.346,0.111,-0.205,-0.215,0.000,0.000,0.000,0.056,0.679,-0.079,0.728,0.0000000,0.0000000,0.000,0.000,0.000,0.000,0,00:00:00,-856,0.000,0.000,91147.078,9.254,0.000,0.000,1.028,-9.766,0.014,-0.009,-0.003,0.008,0.000,0.000
41.525,0,0,-2.977,-2.324,-7.471,-3.867,-3.046,-11.694,-0.184,-1.029,-9.270,0.000,0.000,0.0116870,0.000,9144.000,0.017,4.149,4.821,2.876,911.592,9.262,882.471,-0.594,-9.317,0.453,-0.161,-0.322,-0.183,-0.026,0.000,0.000,0.000,0.058,0.692,-0.054,0.718,0.0000000,0.0000000,0.000,0.000,0.000,0.000,0,00:00:00,-856,0.000,0.000,91155.133,9.259,0.000,0.000,1.018,-9.787,-0.037,0.014,0.007,0.006,0.000,0.000
41.626,0,0,-3.085,-2.412,-7.675,-3.828,-3.057,-12.002,-1.135,-1.298,-10.909,0.000,0.000,0.0116870,0.000,9144.000,0.017,2.079,5.098,2.766,911.656,9.265,881.896,-1.419,-11.014,0.370,0.733,-0.032,0.244,0.321,0.000,0.000,0.000,0.067,0.692,-0.042,0.717,0.0000000,0.0000000,0.000,0.000,0.000,0.000,0,00:00:00,-856,0.000,0.000,91167.367,9.266,0.000,0.000,1.089,-9.654,-0.003,0.020,-0.008,-0.008,0.000,0.000
41.727,0,0,-3.181,-2.495,-7.434,-3.923,-3.172,-11.777,-2.543,-2.400,-9.120,0.000,0.000,0.0116870,0.000,9144.000,0.017,1.844,5.381,2.835,911.340,9.247,884.753,1.632,-9.593,-0.818,1.643,0.041,-0.127,-0.299,0.000,0.000,0.000,0.039,0.667,-0.072,0.740,0.0000000,0.0000000,0.000,0.000,0.000,0.000,0,00:00:00,-856,0.000,0.000,91097.875,9.225,0.000,0.000,1.040,-9.695,0.026,-0.004,0.024,0.010,0.000,0.000
41.828,0,0,-3.286,-2.565,-7.211,-4.291,-2.999,-11.550,-5.340,0.396,-8.727,0.000,0.000,0.0116870,0.000,9144.000,0.018,6.132,5.676,2.943,911.356,9.248,884.615,1.589,-9.528,1.764,3.308,0.148,-0.043,0.208,0.000,0.000,0.000,0.084,0.619,-0.041,0.780,0.0000000,0.0000000,0.000,0.000,0.000,0.000,0,00:00:00,-856,0.000,0.000,91166.172,9.266,0.000,0.000,0.980,-9.733,-0.048,-0.008,-0.000,0.010,0.000,0.000
41.929,0,0,-3.408,-2.615,-7.033,-4.580,-2.960,-11.387,-4.644,-0.977,-8.794,0.000,0.000,0.0116870,0.000,9144.000,0.019,12.686,5.980,3.045,911.398,9.250,884.233,1.359,-9.693,0.402,2.396,-0.034,-0.042,0.228,0.000,0.000,0.000,0.077,0.615,-0.041,0.784,0.0000000,0.0000000,0.000,0.000,0.000,0.000,0,00:00:00,-856,0.000,0.000,91157.469,9.261,0.000,0.000,1.087,-9.785,0.014,0.007,0.014,-0.004,0.000,0.000
42.030,0,0,-3.526,-2.660,-6.904,-4.561,-3.038,-11.239,-1.680,-2.185,-8.398,0.000,0.000,0.0116870,0.000,9144.000,0.019,13.416,6.299,3.186,911.403,9.250,884.187,1.084,-8.797,-0.777,0.363,-0.016,-0.377,0.031,0.000,0.000,0.000,0.050,0.648,-0.064,0.758,0.0000000,0.0000000,0.000,0.000,0.000,0.000,0,00:00:00,-856,0.000,0.000,91107.555,9.231,0.000,0.000,1.015,-9.692,0.000,0.016,0.017,-0.005,0.000,0.000
42.131,0,0,-3.638,-2.693,-7.508,-4.748,-2.875,-11.760,-3.798,0.169,-9.468,0.000,0.000,0.0116870,0.000,9144.000,0.019,8.995,6.621,3.220,911.883,9.279,879.832,-4.004,-9.903,1.365,2.039,-0.264,-0.020,0.092,0.000,0.000,0.000,0.068,0.637,-0.030,0.767,0.0000000,0.0000000,0.000,0.000,0.000,0.000,0,00:00:00,-856,0.000,0.000,91092.766,9.222,0.000,0.000,0.986,-9.743,0.057,-0.025,-0.002,0.012,0.000,0.000
42.232,0,0,-3.743,-2.716,-7.975,-4.707,-2.946,-12.123,-1.617,-2.174,-9.288,0.000,0.000,0.0116870,0.000,9144.000,0.019,10.342,6.948,3.272,911.864,9.278,880.007,-3.326,-9.593,-1.103,0.604,-0.256,0.143,-0.113,0.000,0.000,0.000,0.025,0.665,-0.052,0.745,0.0000000,0.0000000,0.000,0.000,0.000,0.000,0,00:00:00,-856,0.000,0.000,91145.875,9.254,0.000,0.000,1.073,-9.700,0.003,0.001,0.007,0.001,0.000,0.000
42.333,0,0,-3.831,-2.736,-7.688,-4.685,-2.900,-11.925,-1.871,-1.023,-9.598,0.000,0.000,0.0116870,0.000,9144.000,0.019,6.618,7.277,3.293,911.352,9.247,884.651,1.777,-9.784,-0.367,0.899,-0.469,-0.035,-0.020,0.000,0.000,0.000,0.007,0.669,-0.037,0.742,0.0000000,0.0000000,0.000,0.000,0.000,0.000,0,00:00:00,-856,0.000,0.000,91111.383,9.233,0.000,0.000,1.006,-9.793,0.056,0.003,0.001,0.014,0.000,0.000
42.434,0,0,-3.903,-2.739,-7.853,-4.576,-2.671,-12.091,-1.054,0.765,-9.690,0.000,0.000,0.0116870,0.000,9144.000,0.019,5.984,7.608,3.305,911.646,9.265,881.985,-1.239,-9.698,1.159,0.438,-0.264,0.191,-0.471,0.000,0.000,0.000,0.020,0.684,-0.010,0.730,0.0000000,0.0000000,0.000,0.000,0.000,0.000,0,00:00:00,-856,0.000,0.000,91144.953,9.253,0.000,0.000,0.937,-9.766,0.024,-0.000,-0.011,-0.009,0.000,0.000
42.535,0,0,-3.966,-2.718,-8.067,-4.715,-2.412,-12.294,-3.549,1.079,-9.822,0.000,0.000,0.0116870,0.000,9144.000,0.019,3.703,7.938,3.304,911.693,9.268,881.559,-1.633,-10.159,1.364,2.273,0.035,0.162,-0.137,0.000,0.000,0.000,0.039,0.657,0.006,0.753,0.0000000,0.0000000,0.000,0.000,0.000,0.000,0,00:00:00,-856,0.000,0.000,91114.938,9.235,0.000,0.000,1.113,-9.675,0.077,0.012,0.013,0.011,0.000,0.000
42.636,0,0,-4.035,-2.673,-8.246,-4.881,-2.150,-12.444,-3.861,1.119,-9.698,0.000,0.000,0.0116870,0.000,9144.000,0.019,7.654,8.270,3.315,911.693,9.268,881.559,-1.463,-10.159,1.364,2.273,0.035,0.162,-0.137,0.000,0.000,0.000,0.049,0.643,0.013,0.764,0.0000000,0.0000000,0.000,0.000,0.000,0.000,0,00:00:00,-856,0.000,0.000,91114.938,9.235,0.000,0.000,1.113,-9.675,0.077,0.012,0.013,0.011,0.000,0.000
42.737,0,0,-4.114,-2.607,-8.391,-5.103,-1.893,-12.417,-4.452,1.119,-8.242,0.000,0.000,0.0116870,0.000,9144.000,0.019,9.617,8.617,3.472,911.646,9.265,881.986,-1.352,-9.025,1.028,2.546,-0.327,-0.135,-0.273,0.000,0.000,0.000,0.037,0.621,0.021,0.783,0.0000000,0.0000000,0.000,0.000,0.000,0.000,0,00:00:00,-856,0.000,0.000,91176.273,9.272,0.000,0.000,0.977,-9.808,-0.025,0.010,-0.020,-0.005,0.000,0.000
42.838,0,0,-4.195,-2.537,-8.840,-5.134,-1.943,-12.677,-2.615,-1.897,-8.843,0.000,0.000,0.0116870,0.000,9144.000,0.019,13.099,8.974,3.569,911.889,9.279,879.782,-3.646,-9.197,-1.652,1.155,0.087,0.133,0.066,0.000,0.000,0.000,-0.009,0.644,-0.022,0.764,0.0000000,0.0000000,0.000,0.000,0.000,0.000,0,00:00:00,-856,0.000,0.000,91125.477,9.242,0.000,0.000,1.015,-9.715,0.046,0.010,-0.006,-0.003,0.000,0.000
42.939,0,0,-4.273,-2.472,-8.373,-5.237,-1.869,-12.123,-3.360,-0.621,-7.686,0.000,0.000,0.0116870,0.000,9144.000,0.020,9.760,9.352,3.781,911.180,9.237,886.204,2.553,-8.194,-0.393,1.859,-0.064,-0.093,-0.061,0.000,0.000,0.000,-0.013,0.636,-0.022,0.771,0.0000000,0.0000000,0.000,0.000,0.000,0.000,0,00:00:00,-856,0.000,0.000,91164.906,9.265,0.000,0.000,1.016,-9.772,0.025,0.001,0.007,0.015,0.000,0.000
43.040,0,0,-4.344,-2.405,-8.634,-5.165,-1.787,-12.470,-1.670,-0.504,-10.954,0.000,0.000,0.0116870,0.000,9144.000,0.020,10.994,9.719,3.667,911.751,9.271,881.031,-2.391,-11.089,-0.173,0.165,0.137,-0.110,-0.106,0.000,0.000,0.000,-0.006,0.657,-0.025,0.754,0.0000000,0.0000000,0.000,0.000,0.000,0.000,0,00:00:00,-856,0.000,0.000,91184.875,9.277,0.000,0.000,0.959,-9.731,0.035,-0.012,0.014,0.010,0.000,0.000
43.141,0,0,-4.398,-2.336,-8.087,-5.038,-1.694,-12.032,-1.143,-0.354,-9.338,0.000,0.000,0.0116870,0.000,9144.000,0.019,7.920,10.090,3.714,911.199,9.238,886.035,3.277,-9.406,-0.031,0.389,0.023,0.165,-0.259,0.000,0.000,0.000,-0.002,0.678,-0.024,0.735,0.0000000,0.0000000,0.000,0.000,0.000,0.000,0,00:00:00,-856,0.000,0.000,91097.680,9.225,0.000,0.000,1.040,-9.688,-0.023,-0.008,-0.002,0.008,0.000,0.000
43.242,0,0,-4.433,-2.271,-8.008,-4.856,-1.735,-11.933,-0.613,-1.643,-8.896,0.000,0.000,0.0116870,0.000,9144.000,0.019,4.678,10.471,3.806,911.545,9.259,882.899,0.199,-8.985,-1.203,0.210,0.180,-0.132,0.123,0.000,0.000,0.000,-0.012,0.686,-0.044,0.726,0.0000000,0.0000000,0.000,0.000,0.000,0.000,0,00:00:00,-856,0.000,0.000,91172.516,9.269,0.000,0.000,1.002,-9.764,-0.009,0.008,0.005,-0.005,0.000,0.000
43.343,0,0,-4.448,-2.213,-8.048,-4.708,-1.724,-11.959,-0.954,-1.097,-9.204,0.000,0.000,0.0116870,0.000,9144.000,0.019,3.400,10.857,3.866,911.594,9.262,882.451,-0.613,-9.260,-0.850,0.591,-0.272,0.231,0.033,0.000,0.000,0.000,-0.023,0.689,-0.037,0.723,0.0000000,0.0000000,0.000,0.000,0.000,0.000,0,00:00:00,-856,0.000,0.000,91204.516,9.288,0.000,0.000,0.961,-9.785,0.051,-0.013,-0.003,-0.005,0.000,0.000
43.444,0,0,-4.440,-2.152,-8.009,-4.371,-1.550,-11.952,0.927,0.551,-9.495,0.000,0.000,0.0116870,0.000,9144.000,0.018,2.800,11.247,3.898,911.555,9.259,882.804,-0.059,-9.489,0.746,-0.847,0.039,-0.208,-0.338,0.000,0.000,0.000,0.001,0.710,-0.015,0.704,0.0000000,0.0000000,0.000,0.000,0.000,0.000,0,00:00:00,-856,0.000,0.000,91001.984,9.169,0.000,0.000,1.082,-9.705,-0.060,-0.001,-0.011,-0.010,0.000,0.000
43.545,0,0,-4.401,-2.082,-7.962,-4.007,-1.387,-11.936,1.221,0.497,-9.465,0.000,0.000,0.0116870,0.000,9144.000,0.017,-0.541,11.640,3.932,911.555,9.259,882.804,0.032,-9.489,0.746,-0.847,0.039,-0.208,-0.338,0.000,0.000,0.000,0.013,0.721,-0.004,0.693,0.0000000,0.0000000,0.000,0.000,0.000,0.000,0,00:00:00,-856,0.000,0.000,91001.984,9.169,0.000,0.000,1.082,-9.705,-0.060,-0.001,-0.011,-0.010,0.000,0.000
43.646,0,0,-4.337,-2.005,-7.867,-3.754,-1.271,-11.855,0.175,0.061,-9.143,0.000,0.000,0.0116870,0.000,9144.000,0.017,-2.218,12.040,3.999,911.519,9.257,883.138,0.400,-9.144,-0.125,-0.043,-0.462,-0.135,0.307,0.000,0.000,0.000,-0.002,0.712,0.013,0.702,0.0000000,0.0000000,0.000,0.000,0.000,0.000,0,00:00:00,-856,0.000,0.000,91135.203,9.247,0.000,0.000,1.045,-9.771,-0.050,0.015,-0.008,0.016,0.000,0.000
43.747,0,0,-4.260,-1.923,-7.952,-3.589,-1.107,-12.010,-0.657,0.588,-10.139,0.000,0.000,0.0116870,0.000,9144.000,0.016,-0.820,12.437,3.966,911.682,9.267,881.660,-0.801,-10.156,0.098,0.657,-0.257,0.490,0.102,0.000,0.000,0.000,-0.010,0.707,0.023,0.707,0.0000000,0.0000000,0.000,0.000,0.000,0.000,0,00:00:00,-856,0.000,0.000,91103.586,9.229,0.000,0.000,1.054,-9.827,0.046,-0.002,0.003,-0.001,0.000,0.000
43.848,0,0,-4.183,-1.838,-7.685,-3.580,-1.019,-11.704,-2.160,-0.106,-8.220,0.000,0.000,0.0116870,0.000,9144.000,0.017,0.055,12.849,4.125,911.463,9.254,883.638,1.660,-8.321,-0.444,1.675,0.049,0.117,-0.055,0.000,0.000,0.000,-0.018,0.686,0.012,0.727,0.0000000,0.0000000,0.000,0.000,0.000,0.000,0,00:00:00,-856,0.000,0.000,91077.961,9.214,0.000,0.000,1.032,-9.792,0.013,-0.001,0.024,-0.000,0.000,0.000
43.949,0,0,-4.115,-1.759,-7.346,-3.603,-1.075,-11.461,-2.423,-1.498,-9.185,0.000,0.000,0.0116870,0.000,9144.000,0.017,3.364,13.268,4.188,911.373,9.249,884.456,2.281,-9.291,-1.912,1.578,-0.246,0.096,-0.130,0.000,0.000,0.000,-0.062,0.665,-0.014,0.744,0.0000000,0.0000000,0.000,0.000,0.000,0.000,0,00:00:00,-856,0.000,0.000,91116.141,9.236,0.000,0.000,1.020,-9.827,-0.055,0.008,-0.006,0.003,0.000,0.000
44.050,0,0,-4.056,-1.684,-6.995,-3.665,-0.934,-11.314,-2.778,0.492,-10.077,0.000,0.000,0.0116870,0.000,9144.000,0.017,6.143,13.684,4.161,911.374,9.249,884.445,2.585,-10.369,0.023,1.407,0.133,-0.197,0.208,0.000,0.000,0.000,-0.033,0.658,0.005,0.752,0.0000000,0.0000000,0.000,0.000,0.000,0.000,0,00:00:00,-856,0.000,0.000,91240.320,9.309,0.000,0.000,1.105,-9.701,-0.116,0.004,-0.024,-0.010,0.000,0.000
44.151,0,0,-4.005,-1.597,-6.929,-3.612,-0.663,-11.348,-1.610,1.840,-9.640,0.000,0.000,0.0116870,0.000,9144.000,0.017,7.543,14.102,4.178,911.504,9.256,883.272,0.792,-9.842,1.257,0.677,-0.027,-0.111,0.204,0.000,0.000,0.000,0.000,0.669,0.038,0.742,0.0000000,0.0000000,0.000,0.000,0.000,0.000,0,00:00:00,-856,0.000,0.000,91172.008,9.269,0.000,0.000,1.031,-9.706,-0.016,0.003,-0.011,0.002,0.000,0.000
44.252,0,0,-3.966,-1.496,-7.296,-3.838,-0.435,-11.571,-4.338,1.462,-8.279,0.000,0.000,0.0116870,0.000,9144.000,0.017,6.056,14.535,4.331,911.808,9.274,880.515,-2.254,-9.046,0.427,2.735,-0.291,0.108,0.336,0.000,0.000,0.000,-0.006,0.635,0.057,0.770,0.0000000,0.0000000,0.000,0.000,0.000,0.000,0,00:00:00,-856,0.000,0.000,91048.977,9.197,0.000,0.000,1.040,-9.757,0.064,0.004,-0.009,0.004,0.000,0.000
44.353,0,0,-3.953,-1.383,-7.498,-4.073,-0.192,-11.551,-4.429,1.672,-7.226,0.000,0.000,0.0116870,0.000,9144.000,0.018,11.179,14.994,4.589,911.731,9.270,881.210,-1.339,-8.176,0.766,2.680,0.051,0.052,-0.167,0.000,0.000,0.000,-0.002,0.617,0.056,0.785,0.0000000,0.0000000,0.000,0.000,0.000,0.000,0,00:00:00,-856,0.000,0.000,91097.820,9.225,0.000,0.000,0.989,-9.749,0.026,0.009,0.013,-0.001,0.000,0.000
44.454,0,0,-3.963,-1.260,-7.681,-4.329,0.039,-11.508,-4.628,1.617,-7.113,0.000,0.000,0.0116870,0.000,9144.000,0.019,13.772,15.480,4.859,911.731,9.270,881.210,-1.421,-8.176,0.766,2.680,0.051,0.052,-0.167,0.000,0.000,0.000,0.001,0.607,0.053,0.793,0.0000000,0.0000000,0.000,0.000,0.000,0.000,0,00:00:00,-856,0.000,0.000,91097.820,9.225,0.000,0.000,0.989,-9.749,0.026,0.009,0.013,-0.001,0.000,0.000
44.555,0,0,-3.997,-1.127,-7.852,-4.595,0.256,-11.452,-4.749,1.553,-7.047,0.000,0.000,0.0116870,0.000,9144.000,0.021,15.321,15.994,5.135,911.731,9.270,881.210,-1.545,-8.176,0.766,2.680,0.051,0.052,-0.167,0.000,0.000,0.000,0.004,0.600,0.050,0.798,0.0000000,0.0000000,0.000,0.000,0.000,0.000,0,00:00:00,-856,0.000,0.000,91097.820,9.225,0.000,0.000,0.989,-9.749,0.026,0.009,0.013,-0.001,0.000,0.000
44.656,0,0,-4.043,-0.983,-8.215,-4.673,0.570,-11.603,-2.906,2.590,-7.658,0.000,0.000,0.0116870,0.000,9144.000,0.021,16.245,16.529,5.351,911.886,9.279,879.808,-3.105,-8.283,1.792,1.403,0.074,0.071,0.443,0.000,0.000,0.000,0.035,0.619,0.075,0.781,0.0000000,0.0000000,0.000,0.000,0.000,0.000,0,00:00:00,-856,0.000,0.000,91137.742,9.249,0.000,0.000,1.055,-9.669,0.076,0.012,-0.004,-0.007,0.000,0.000
44.757,0,0,-4.097,-0.834,-7.828,-4.845,0.654,-11.307,-3.862,0.397,-8.933,0.000,0.000,0.0116870,0.000,9144.000,0.022,13.395,17.072,5.438,911.324,9.246,884.898,2.017,-9.561,-0.385,1.821,0.156,-0.216,0.475,0.000,0.000,0.000,0.010,0.624,0.051,0.779,0.0000000,0.0000000,0.000,0.000,0.000,0.000,0,00:00:00,-856,0.000,0.000,91309.117,9.350,0.000,0.000,0.979,-9.856,-0.021,-0.003,0.006,-0.001,0.000,0.000
44.858,0,0,-4.159,-0.697,-7.792,-4.943,0.635,-11.400,-3.159,-0.563,-10.022,0.000,0.000,0.0116870,0.000,9144.000,0.022,12.708,17.614,5.417,911.531,9.258,883.022,-0.245,-10.364,-1.173,1.389,0.076,0.089,0.113,0.000,0.000,0.000,-0.023,0.643,0.020,0.765,0.0000000,0.0000000,0.000,0.000,0.000,0.000,0,00:00:00,-856,0.000,0.000,91108.766,9.232,0.000,0.000,1.000,-9.751,0.031,0.004,-0.014,-0.002,0.000,0.000
44.959,0,0,-4.222,-0.574,-7.670,-5.000,0.617,-11.262,-2.785,-0.478,-8.368,0.000,0.000,0.0116870,0.000,9144.000,0.022,9.927,18.170,5.561,911.479,9.255,883.493,0.402,-8.686,-0.611,1.478,0.324,0.317,-0.250,0.000,0.000,0.000,-0.026,0.650,-0.007,0.760,0.0000000,0.0000000,0.000,0.000,0.000,0.000,0,00:00:00,-856,0.000,0.000,91129.664,9.244,0.000,0.000,1.123,-9.754,0.034,-0.009,0.001,-0.012,0.000,0.000
45.060,0,0,-4.279,-0.463,-7.864,-4.927,0.622,-11.542,-1.531,-0.196,-10.134,0.000,0.000,0.0116870,0.000,9144.000,0.022,8.894,18.723,5.529,911.680,9.267,881.677,-1.756,-10.232,-0.288,0.554,0.130,0.171,-0.103,0.000,0.000,0.000,-0.020,0.672,-0.010,0.740,0.0000000,0.0000000,0.000,0.000,0.000,0.000,0,00:00:00,-856,0.000,0.000,91223.430,9.299,0.000,0.000,0.911,-9.729,0.014,0.006,-0.013,-0.015,0.000,0.000
45.161,0,0,-4.312,-0.366,-7.397,-4.589,0.554,-11.132,1.084,-0.867,-8.335,0.000,0.000,0.0116870,0.000,9144.000,0.022,5.528,19.291,5.676,911.199,9.238,886.037,2.881,-8.278,-1.194,-1.205,-0.116,-0.018,-0.153,0.000,0.000,0.000,-0.040,0.698,-0.020,0.715,0.0000000,0.0000000,0.000,0.000,0.000,0.000,0,00:00:00,-856,0.000,0.000,91088.258,9.220,0.000,0.000,0.947,-9.622,0.073,0.009,-0.005,-0.008,0.000,0.000
45.262,0,0,-4.311,-0.277,-7.446,-4.267,0.631,-11.188,0.921,0.623,-8.853,0.000,0.000,0.0116870,0.000,9144.000,0.021,1.365,19.868,5.772,911.605,9.262,882.351,-0.567,-8.895,0.010,-0.706,-0.348,-0.036,-0.136,0.000,0.000,0.000,-0.041,0.716,0.005,0.697,0.0000000,0.0000000,0.000,0.000,0.000,0.000,0,00:00:00,-856,0.000,0.000,91228.578,9.302,0.000,0.000,1.024,-9.755,-0.032,-0.002,0.030,0.004,0.000,0.000
45.363,0,0,-4.281,-0.189,-7.475,-3.924,0.735,-11.221,1.143,0.933,-8.800,0.000,0.000,0.0116870,0.000,9144.000,0.021,-1.581,20.455,5.873,911.605,9.262,882.351,-0.443,-8.895,0.010,-0.706,-0.348,-0.036,-0.136,0.000,0.000,0.000,-0.047,0.724,0.024,0.688,0.0000000,0.0000000,0.000,0.000,0.000,0.000,0,00:00:00,-856,0.000,0.000,91228.578,9.302,0.000,0.000,1.024,-9.755,-0.032,-0.002,0.030,0.004,0.000,0.000
45.464,0,0,-4.226,-0.098,-7.074,-3.664,0.865,-11.035,0.362,1.231,-9.878,0.000,0.000,0.0116870,0.000,9144.000,0.021,-3.016,21.042,5.866,911.282,9.243,885.280,2.645,-9.960,-0.059,0.086,-0.299,0.494,0.047,0.000,0.000,0.000,-0.052,0.722,0.040,0.689,0.0000000,0.0000000,0.000,0.000,0.000,0.000,0,00:00:00,-856,0.000,0.000,91239.750,9.309,0.000,0.000,1.078,-9.697,-0.003,0.000,-0.009,-0.008,0.000,0.000
45.565,0,0,-4.158,0.000,-6.788,-3.534,1.074,-10.852,-0.901,2.070,-8.889,0.000,0.000,0.0116870,0.000,9144.000,0.021,-2.699,21.638,5.958,911.362,9.248,884.557,2.082,-9.086,0.953,0.813,0.112,-0.008,0.108,0.000,0.000,0.000,-0.024,0.699,0.060,0.712,0.0000000,0.0000000,0.000,0.000,0.000,0.000,0,00:00:00,-856,0.000,0.000,91126.297,9.242,0.000,0.000,1.068,-9.780,-0.105,0.003,-0.011,0.006,0.000,0.000
45.666,0,0,-4.093,0.107,-6.819,-3.572,1.264,-10.986,-2.524,1.934,-9.569,0.000,0.000,0.0116870,0.000,9144.000,0.021,1.221,22.236,5.983,911.626,9.264,882.160,0.017,-9.924,0.308,1.754,-0.326,0.213,0.096,0.000,0.000,0.000,-0.036,0.674,0.073,0.734,0.0000000,0.0000000,0.000,0.000,0.000,0.000,0,00:00:00,-856,0.000,0.000,91195.102,9.283,0.000,0.000,0.963,-9.753,0.033,0.003,0.006,0.011,0.000,0.000
45.767,0,0,-4.026,0.214,-6.209,-3.358,1.302,-10.701,0.006,0.495,-10.287,0.000,0.000,0.0116870,0.000,9144.000,0.021,5.063,22.830,5.935,911.079,9.231,887.127,4.661,-10.204,-1.368,-0.271,-0.226,0.154,0.211,0.000,0.000,0.000,-0.075,0.694,0.052,0.714,0.0000000,0.0000000,0.000,0.000,0.000,0.000,0,00:00:00,-856,0.000,0.000,91180.180,9.274,0.000,0.000,0.994,-9.748,-0.081,0.016,0.010,0.003,0.000,0.000
45.868,0,0,-3.951,0.321,-6.164,-3.270,1.468,-10.715,-1.200,1.807,-8.796,0.000,0.000,0.0116870,0.000,9144.000,0.021,1.380,23.433,6.036,911.487,9.255,883.423,1.018,-9.026,0.108,0.764,-0.091,0.102,0.195,0.000,0.000,0.000,-0.066,0.686,0.068,0.721,0.0000000,0.0000000,0.000,0.000,0.000,0.000,0,00:00:00,-856,0.000,0.000,91146.453,9.254,0.000,0.000,0.976,-9.724,-0.030,-0.008,0.016,-0.021,0.000,0.000
45.969,0,0,-3.887,0.432,-6.124,-3.426,1.619,-10.901,-3.587,1.721,-10.535,0.000,0.000,0.0116870,0.000,9144.000,0.021,2.810,24.030,5.964,911.490,9.256,883.397,1.089,-10.942,-0.175,2.657,0.105,0.187,-0.146,0.000,0.000,0.000,-0.066,0.673,0.060,0.734,0.0000000,0.0000000,0.000,0.000,0.000,0.000,0,00:00:00,-856,0.000,0.000,91149.172,9.256,0.000,0.000,0.990,-9.778,0.040,0.007,0.005,-0.017,0.000,0.000
46.070,0,0,-3.845,0.546,-6.067,-3.614,1.747,-11.051,-3.880,1.555,-10.456,0.000,0.000,0.0116870,0.000,9144.000,0.021,4.844,24.620,5.899,911.490,9.256,883.397,1.366,-10.942,-0.175,2.657,0.105,0.187,-0.146,0.000,0.000,0.000,-0.065,0.664,0.053,0.743,0.0000000,0.0000000,0.000,0.000,0.000,0.000,0,00:00:00,-856,0.000,0.000,91149.172,9.256,0.000,0.000,0.990,-9.778,0.040,0.007,0.005,-0.017,0.000,0.000
46.171,0,0,-3.811,0.658,-6.096,-3.528,1.820,-11.098,-1.151,1.071,-8.834,0.000,0.000,0.0116870,0.000,9144.000,0.021,6.356,25.219,5.997,911.516,9.257,883.157,0.849,-8.953,-0.337,0.494,0.076,0.242,0.120,0.000,0.000,0.000,-0.063,0.679,0.049,0.730,0.0000000,0.0000000,0.000,0.000,0.000,0.000,0,00:00:00,-856,0.000,0.000,91180.828,9.274,0.000,0.000,1.027,-9.691,-0.043,0.027,-0.003,0.010,0.000,0.000
46.272,0,0,-3.771,0.766,-6.220,-3.424,1.885,-11.319,-0.948,1.040,-9.945,0.000,0.000,0.0116870,0.000,9144.000,0.021,4.067,25.818,5.983,911.567,9.260,882.701,0.209,-10.005,-0.832,0.310,-0.291,-0.146,-0.052,0.000,0.000,0.000,-0.086,0.681,0.049,0.726,0.0000000,0.0000000,0.000,0.000,0.000,0.000,0,00:00:00,-856,0.000,0.000,91094.508,9.223,0.000,0.000,1.101,-9.803,0.037,-0.001,-0.012,0.006,0.000,0.000
46.373,0,0,-3.730,0.874,-6.078,-3.395,2.058,-11.412,-1.667,2.172,-10.839,0.000,0.000,0.0116870,0.000,9144.000,0.021,3.313,26.406,5.880,911.340,9.247,884.753,2.147,-11.159,0.138,0.659,0.050,-0.412,0.131,0.000,0.000,0.000,-0.073,0.672,0.059,0.735,0.0000000,0.0000000,0.000,0.000,0.000,0.000,0,00:00:00,-856,0.000,0.000,91164.078,9.264,0.000,0.000,0.962,-9.678,0.030,-0.009,-0.006,-0.009,0.000,0.000
46.474,0,0,-3.705,0.975,-5.659,-3.717,1.944,-11.120,-5.138,-0.611,-9.068,0.000,0.000,0.0116870,0.000,9144.000,0.022,4.989,27.001,5.955,911.062,9.230,887.278,4.266,-9.729,-2.058,3.178,-0.095,-0.208,-0.125,0.000,0.000,0.000,-0.105,0.621,0.034,0.776,0.0000000,0.0000000,0.000,0.000,0.000,0.000,0,00:00:00,-856,0.000,0.000,91212.414,9.293,0.000,0.000,0.972,-9.653,-0.029,-0.005,-0.007,-0.013,0.000,0.000
46.575,0,0,-3.710,1.068,-5.583,-3.980,2.071,-11.060,-4.547,1.815,-8.605,0.000,0.000,0.0116870,0.000,9144.000,0.022,11.985,27.609,6.075,911.270,9.243,885.388,2.040,-9.597,0.319,2.412,0.167,0.038,0.019,0.000,0.000,0.000,-0.068,0.619,0.053,0.781,0.0000000,0.0000000,0.000,0.000,0.000,0.000,0,00:00:00,-856,0.000,0.000,91191.555,9.281,0.000,0.000,1.055,-9.778,-0.049,0.001,0.003,-0.001,0.000,0.000
46.676,0,0,-3.727,1.165,-5.869,-4.002,2.250,-11.372,-2.173,2.391,-9.599,0.000,0.000,0.0116870,0.000,9144.000,0.023,13.027,28.218,6.096,911.521,9.257,883.116,-0.467,-10.061,0.871,0.764,0.163,0.044,-0.071,0.000,0.000,0.000,-0.041,0.651,0.064,0.755,0.0000000,0.0000000,0.000,0.000,0.000,0.000,0,00:00:00,-856,0.000,0.000,91201.148,9.286,0.000,0.000,0.975,-9.816,0.021,-0.008,0.003,0.003,0.000,0.000
46.777,0,0,-3.739,1.269,-6.009,-3.896,2.411,-11.713,-0.921,2.252,-11.265,0.000,0.000,0.0116870,0.000,9144.000,0.022,8.589,28.813,5.951,911.386,9.249,884.340,0.534,-11.510,0.339,-0.481,-0.185,-0.008,-0.075,0.000,0.000,0.000,-0.051,0.659,0.067,0.747,0.0000000,0.0000000,0.000,0.000,0.000,0.000,0,00:00:00,-856,0.000,0.000,91167.672,9.267,0.000,0.000,0.986,-9.731,-0.033,-0.010,0.004,-0.009,0.000,0.000
46.878,0,0,-3.739,1.379,-6.164,-3.768,2.585,-12.037,-0.700,2.450,-11.240,0.000,0.000,0.0116870,0.000,9144.000,0.022,7.262,29.394,5.808,911.386,9.249,884.340,0.494,-11.510,0.339,-0.481,-0.185,-0.008,-0.075,0.000,0.000,0.000,-0.059,0.666,0.071,0.740,0.0000000,0.0000000,0.000,0.000,0.000,0.000,0,00:00:00,-856,0.000,0.000,91167.672,9.267,0.000,0.000,0.986,-9.731,-0.033,-0.010,0.004,-0.009,0.000,0.000
46.979,0,0,-3.733,1.483,-5.777,-3.766,2.514,-11.797,-1.940,0.080,-9.845,0.000,0.000,0.0116870,0.000,9144.000,0.022,6.095,29.975,5.804,910.961,9.224,888.195,4.360,-9.861,-1.598,0.940,0.130,0.012,0.226,0.000,0.000,0.000,-0.082,0.666,0.043,0.740,0.0000000,0.0000000,0.000,0.000,0.000,0.000,0,00:00:00,-856,0.000,0.000,91025.594,9.183,0.000,0.000,1.052,-9.789,0.045,-0.016,0.016,-0.003,0.000,0.000
47.080,0,0,-3.744,1.580,-6.513,-4.117,2.657,-12.386,-5.441,2.248,-9.565,0.000,0.000,0.0116870,0.000,9144.000,0.023,5.721,30.557,5.829,911.799,9.274,880.592,-3.416,-10.666,0.557,3.475,-0.078,-0.356,-0.217,0.000,0.000,0.000,-0.075,0.634,0.052,0.768,0.0000000,0.0000000,0.000,0.000,0.000,0.000,0,00:00:00,-856,0.000,0.000,91154.406,9.259,0.000,0.000,1.026,-9.756,-0.021,0.012,0.008,0.016,0.000,0.000
47.181,0,0,-3.775,1.679,-7.098,-4.244,2.742,-12.678,-3.236,1.720,-8.127,0.000,0.000,0.0116870,0.000,9144.000,0.023,10.576,31.157,5.997,911.758,9.271,880.965,-2.755,-8.747,-0.073,1.724,-0.288,0.238,0.292,0.000,0.000,0.000,-0.074,0.638,0.075,0.763,0.0000000,0.0000000,0.000,0.000,0.000,0.000,0,00:00:00,-856,0.000,0.000,91175.438,9.271,0.000,0.000,1.064,-9.701,0.004,-0.006,0.005,0.007,0.000,0.000
47.282,0,0,-3.810,1.772,-7.253,-4.263,2.736,-12.658,-2.192,0.876,-8.441,0.000,0.000,0.0116870,0.000,9144.000,0.024,10.150,31.771,6.134,911.460,9.254,883.671,-0.084,-8.680,-0.872,0.845,-0.000,-0.188,-0.245,0.000,0.000,0.000,-0.093,0.646,0.056,0.756,0.0000000,0.0000000,0.000,0.000,0.000,0.000,0,00:00:00,-856,0.000,0.000,91224.758,9.300,0.000,0.000,0.994,-9.712,0.047,0.001,-0.006,0.000,0.000,0.000
47.383,0,0,-3.845,1.866,-7.776,-4.309,2.948,-13.115,-2.476,3.079,-10.510,0.000,0.000,0.0116870,0.000,9144.000,0.024,8.570,32.377,6.064,911.735,9.270,881.179,-2.816,-11.190,0.498,0.780,-0.303,-0.264,-0.109,0.000,0.000,0.000,-0.096,0.647,0.074,0.753,0.0000000,0.0000000,0.000,0.000,0.000,0.000,0,00:00:00,-856,0.000,0.000,91284.617,9.335,0.000,0.000,1.083,-9.701,0.003,-0.002,0.009,-0.005,0.000,0.000
47.484,0,0,-3.885,1.969,-7.727,-4.443,3.115,-13.064,-3.374,2.681,-10.034,0.000,0.000,0.0116870,0.000,9144.000,0.024,8.305,32.981,6.042,911.290,9.244,885.212,1.017,-10.798,-0.001,1.629,-0.084,-0.372,0.368,0.000,0.000,0.000,-0.084,0.640,0.094,0.758,0.0000000,0.0000000,0.000,0.000,0.000,0.000,0,00:00:00,-856,0.000,0.000,91176.078,9.272,0.000,0.000,0.960,-9.695,0.044,-0.003,-0.012,0.010,0.000,0.000
47.585,0,0,-3.933,2.077,-7.691,-4.581,3.294,-13.019,-3.435,2.870,-9.960,0.000,0.000,0.0116870,0.000,9144.000,0.025,9.619,33.584,6.027,911.290,9.244,885.212,0.934,-10.798,-0.001,1.629,-0.084,-0.372,0.368,0.000,0.000,0.000,-0.079,0.635,0.107,0.761,0.0000000,0.0000000,0.000,0.000,0.000,0.000,0,00:00:00,-856,0.000,0.000,91176.078,9.272,0.000,0.000,0.960,-9.695,0.044,-0.003,-0.012,0.010,0.000,0.000
47.686,0,0,-3.984,2.197,-6.900,-4.586,3.576,-12.288,-2.139,3.946,-8.672,0.000,0.000,0.0116870,0.000,9144.000,0.025,10.374,34.198,6.141,910.688,9.208,890.670,6.297,-9.596,1.346,1.207,-0.042,0.255,0.030,0.000,0.000,0.000,-0.059,0.653,0.127,0.744,0.0000000,0.0000000,0.000,0.000,0.000,0.000,0,00:00:00,-856,0.000,0.000,91118.859,9.238,0.000,0.000,1.002,-9.712,-0.031,0.001,0.006,0.007,0.000,0.000
47.787,0,0,-4.032,2.324,-6.842,-4.648,3.708,-12.190,-2.736,2.526,-8.976,0.000,0.000,0.0116870,0.000,9144.000,0.026,8.025,34.820,6.224,911.258,9.242,885.503,1.409,-9.586,0.084,1.595,0.190,0.337,-0.142,0.000,0.000,0.000,-0.069,0.654,0.107,0.746,0.0000000,0.0000000,0.000,0.000,0.000,0.000,0,00:00:00,-856,0.000,0.000,91184.281,9.276,0.000,0.000,0.976,-9.663,0.014,0.004,0.012,-0.003,0.000,0.000
47.888,0,0,-4.080,2.451,-6.806,-4.660,3.830,-12.280,-2.267,2.502,-10.658,0.000,0.000,0.0116870,0.000,9144.000,0.026,7.738,35.434,6.139,911.260,9.242,885.484,1.297,-11.108,-0.698,1.053,-0.368,0.132,0.056,0.000,0.000,0.000,-0.093,0.659,0.110,0.738,0.0000000,0.0000000,0.000,0.000,0.000,0.000,0,00:00:00,-856,0.000,0.000,91122.414,9.240,0.000,0.000,1.115,-9.773,-0.051,-0.006,-0.011,-0.002,0.000,0.000
47.989,0,0,-4.115,2.582,-7.462,-4.461,4.073,-12.838,-0.188,3.761,-10.245,0.000,0.000,0.0116870,0.000,9144.000,0.026,6.568,36.044,6.096,911.742,9.270,881.116,-3.551,-10.872,0.943,-0.228,0.207,-0.035,0.037,0.000,0.000,0.000,-0.075,0.682,0.112,0.718,0.0000000,0.0000000,0.000,0.000,0.000,0.000,0,00:00:00,-856,0.000,0.000,91178.977,9.273,0.000,0.000,0.958,-9.729,0.044,-0.025,0.008,0.005,0.000,0.000
48.090,0,0,-4.144,2.719,-7.710,-4.626,4.217,-13.138,-3.817,2.858,-11.140,0.000,0.000,0.0116870,0.000,9144.000,0.026,3.287,36.640,5.963,911.483,9.255,883.457,-0.929,-11.712,-0.201,3.104,0.001,-0.059,-0.464,0.000,0.000,0.000,-0.090,0.678,0.096,0.723,0.0000000,0.0000000,0.000,0.000,0.000,0.000,0,00:00:00,-856,0.000,0.000,91134.617,9.247,0.000,0.000,1.088,-9.841,-0.027,0.006,-0.006,0.020,0.000,0.000
48.191,0,0,-4.187,2.856,-7.918,-4.809,4.336,-13.383,-4.010,2.675,-11.118,0.000,0.000,0.0116870,0.000,9144.000,0.026,3.622,37.223,5.832,911.483,9.255,883.457,-0.709,-11.712,-0.201,3.104,0.001,-0.059,-0.464,0.000,0.000,0.000,-0.106,0.674,0.079,0.727,0.0000000,0.0000000,0.000,0.000,0.000,0.000,0,00:00:00,-856,0.000,0.000,91134.617,9.247,0.000,0.000,1.088,-9.841,-0.027,0.006,-0.006,0.020,0.000,0.000
48.292,0,0,-4.230,2.988,-8.351,-4.725,4.416,-13.793,-1.390,2.368,-11.287,0.000,0.000,0.0116870,0.000,9144.000,0.026,3.958,37.792,5.684,911.655,9.265,881.903,-2.361,-11.558,-0.912,0.719,-0.252,0.170,0.175,0.000,0.000,0.000,-0.111,0.680,0.092,0.719,0.0000000,0.0000000,0.000,0.000,0.000,0.000,0,00:00:00,-856,0.000,0.000,91152.922,9.258,0.000,0.000,1.147,-9.785,0.054,0.029,0.000,-0.002,0.000,0.000
48.393,0,0,-4.261,3.117,-8.709,-4.619,4.520,-14.112,-1.192,2.669,-11.242,0.000,0.000,0.0116870,0.000,9144.000,0.025,2.976,38.346,5.541,911.655,9.265,881.903,-2.003,-11.558,-0.912,0.719,-0.252,0.170,0.175,0.000,0.000,0.000,-0.116,0.684,0.104,0.712,0.0000000,0.0000000,0.000,0.000,0.000,0.000,0,00:00:00,-856,0.000,0.000,91152.922,9.258,0.000,0.000,1.147,-9.785,0.054,0.029,0.000,-0.002,0.000,0.000
48.494,0,0,-4.283,3.247,-8.815,-4.595,4.728,-14.101,-2.023,3.763,-10.032,0.000,0.000,0.0116870,0.000,9144.000,0.026,2.088,38.898,5.519,911.501,9.256,883.293,-0.407,-10.836,0.245,1.194,-0.173,-0.293,0.210,0.000,0.000,0.000,-0.108,0.668,0.124,0.726,0.0000000,0.0000000,0.000,0.000,0.000,0.000,0,00:00:00,-856,0.000,0.000,91116.859,9.237,0.000,0.000,1.009,-9.714,-0.004,0.006,0.001,-0.007,0.000,0.000
48.595,0,0,-4.299,3.377,-8.545,-4.535,4.767,-13.538,-1.666,2.168,-7.228,0.000,0.000,0.0116870,0.000,9144.000,0.026,4.875,39.475,5.777,911.229,9.240,885.758,2.077,-7.606,-0.301,1.335,0.064,0.343,0.089,0.000,0.000,0.000,-0.105,0.681,0.123,0.714,0.0000000,0.0000000,0.000,0.000,0.000,0.000,0,00:00:00,-856,0.000,0.000,91155.453,9.259,0.000,0.000,1.065,-9.742,0.043,0.012,0.008,0.016,0.000,0.000
48.696,0,0,-4.314,3.494,-8.800,-4.630,4.725,-13.602,-3.200,1.417,-9.203,0.000,0.000,0.0116870,0.000,9144.000,0.026,2.908,40.059,5.838,911.562,9.260,882.745,-1.692,-9.515,-1.697,1.876,-0.199,-0.101,-0.167,0.000,0.000,0.000,-0.144,0.645,0.099,0.744,0.0000000,0.0000000,0.000,0.000,0.000,0.000,0,00:00:00,-856,0.000,0.000,91156.156,9.260,0.000,0.000,1.028,-9.791,-0.088,0.011,0.005,0.008,0.000,0.000
48.797,0,0,-4.323,3.614,-8.871,-4.413,5.060,-13.535,-0.134,5.222,-9.329,0.000,0.000,0.0116870,0.000,9144.000,0.027,7.267,40.648,5.886,911.427,9.252,883.968,-0.585,-10.555,1.698,-0.167,-0.087,0.070,-0.005,0.000,0.000,0.000,-0.108,0.680,0.139,0.712,0.0000000,0.0000000,0.000,0.000,0.000,0.000,0,00:00:00,-856,0.000,0.000,91097.000,9.225,0.000,0.000,0.985,-9.796,0.005,-0.018,-0.007,0.004,0.000,0.000
48.898,0,0,-4.317,3.741,-9.262,-4.306,5.119,-13.776,-1.205,2.550,-9.978,0.000,0.000,0.0116870,0.000,9144.000,0.026,2.987,41.234,5.869,911.677,9.267,881.704,-2.964,-10.317,-0.828,0.619,0.214,0.052,0.001,0.000,0.000,0.000,-0.121,0.677,0.112,0.717,0.0000000,0.0000000,0.000,0.000,0.000,0.000,0,00:00:00,-856,0.000,0.000,91251.156,9.316,0.000,0.000,1.029,-9.752,0.051,0.004,-0.026,-0.003,0.000,0.000
48.999,0,0,-4.301,3.860,-9.521,-4.207,5.148,-13.904,-1.280,2.314,-10.026,0.000,0.000,0.0116870,0.000,9144.000,0.026,3.038,41.819,5.847,911.677,9.267,881.704,-2.256,-10.317,-0.828,0.619,0.214,0.052,0.001,0.000,0.000,0.000,-0.124,0.677,0.095,0.720,0.0000000,0.0000000,0.000,0.000,0.000,0.000,0,00:00:00,-856,0.000,0.000,91251.156,9.316,0.000,0.000,1.029,-9.752,0.051,0.004,-0.026,-0.003,0.000,0.000
49.100,0,0,-4.282,3.975,-9.465,-4.202,5.293,-13.705,-2.204,3.528,-9.187,0.000,0.000,0.0116870,0.000,9144.000,0.027,3.095,42.410,5.910,911.420,9.251,884.029,-0.218,-9.979,0.553,1.347,0.053,-0.040,0.156,0.000,0.000,0.000,-0.098,0.665,0.116,0.731,0.0000000,0.0000000,0.000,0.000,0.000,0.000,0,00:00:00,-856,0.000,0.000,91062.789,9.205,0.000,0.000,1.062,-9.692,0.009,-0.011,-0.022,0.010,0.000,0.000
49.201,0,0,-4.254,4.086,-9.591,-3.970,5.290,-13.540,0.054,2.122,-7.970,0.000,0.000,0.0116870,0.000,9144.000,0.027,5.514,43.019,6.094,911.548,9.259,882.873,-1.622,-8.224,-0.409,-0.486,-0.067,0.215,-0.290,0.000,0.000,0.000,-0.115,0.680,0.103,0.716,0.0000000,0.0000000,0.000,0.000,0.000,0.000,0,00:00:00,-856,0.000,0.000,91177.898,9.273,0.000,0.000,0.994,-9.769,-0.068,0.014,0.010,0.020,0.000,0.000
49.302,0,0,-4.206,4.194,-9.587,-3.699,5.438,-13.315,0.471,3.669,-8.229,0.000,0.000,0.0116870,0.000,9144.000,0.027,2.719,43.645,6.252,911.489,9.256,883.402,-0.917,-8.947,1.133,-0.264,0.135,0.291,-0.121,0.000,0.000,0.000,-0.089,0.703,0.119,0.695,0.0000000,0.0000000,0.000,0.000,0.000,0.000,0,00:00:00,-856,0.000,0.000,91199.375,9.285,0.000,0.000,1.080,-9.782,-0.020,0.008,-0.008,-0.001,0.000,0.000
49.403,0,0,-4.150,4.299,-9.441,-3.713,5.467,-13.144,-2.315,2.546,-9.703,0.000,0.000,0.0116870,0.000,9144.000,0.027,-0.302,44.271,6.262,911.379,9.249,884.403,0.012,-10.168,-0.375,1.572,0.108,-0.128,0.245,0.000,0.000,0.000,-0.091,0.672,0.111,0.727,0.0000000,0.0000000,0.000,0.000,0.000,0.000,0,00:00:00,-856,0.000,0.000,91148.461,9.255,0.000,0.000,1.006,-9.678,0.046,-0.008,0.011,0.003,0.000,0.000
49.504,0,0,-4.094,4.402,-9.675,-3.564,5.598,-13.384,-0.686,3.616,-10.870,0.000,0.000,0.0116870,0.000,9144.000,0.027,4.595,44.887,6.156,911.691,9.267,881.573,-2.626,-11.463,0.501,0.203,0.123,0.136,0.269,0.000,0.000,0.000,-0.079,0.681,0.115,0.718,0.0000000,0.0000000,0.000,0.000,0.000,0.000,0,00:00:00,-856,0.000,0.000,91160.359,9.262,0.000,0.000,1.059,-9.741,-0.034,0.005,-0.006,0.000,0.000,0.000
49.605,0,0,-4.032,4.500,-10.242,-3.494,5.584,-13.649,-1.423,2.227,-8.762,0.000,0.000,0.0116870,0.000,9144.000,0.027,3.375,45.513,6.261,911.964,9.283,879.102,-5.152,-9.114,-0.381,0.737,-0.107,-0.186,0.105,0.000,0.000,0.000,-0.095,0.672,0.107,0.727,0.0000000,0.0000000,0.000,0.000,0.000,0.000,0,00:00:00,-856,0.000,0.000,91005.641,9.171,0.000,0.000,0.887,-9.806,0.033,-0.021,-0.008,0.008,0.000,0.000
49.706,0,0,-3.977,4.584,-10.079,-3.557,5.480,-13.400,-2.719,1.377,-9.287,0.000,0.000,0.0116870,0.000,9144.000,0.027,4.549,46.144,6.313,911.519,9.257,883.132,-0.330,-9.573,-1.158,1.599,0.092,0.269,-0.204,0.000,0.000,0.000,-0.116,0.658,0.080,0.740,0.0000000,0.0000000,0.000,0.000,0.000,0.000,0,00:00:00,-856,0.000,0.000,91182.305,9.275,0.000,0.000,1.011,-9.786,-0.006,0.002,0.008,0.016,0.000,0.000
49.807,0,0,-3.933,4.650,-9.895,-3.641,5.351,-13.151,-2.897,1.173,-9.262,0.000,0.000,0.0116870,0.000,9144.000,0.027,6.222,46.781,6.368,911.519,9.257,883.132,-0.176,-9.573,-1.158,1.599,0.092,0.269,-0.204,0.000,0.000,0.000,-0.124,0.650,0.064,0.747,0.0000000,0.0000000,0.000,0.000,0.000,0.000,0,00:00:00,-856,0.000,0.000,91182.305,9.275,0.000,0.000,1.011,-9.786,-0.006,0.002,0.008,0.016,0.000,0.000
49.908,0,0,-3.898,4.706,-9.584,-3.672,5.416,-12.699,-2.355,3.120,-7.951,0.000,0.000,0.0116870,0.000,9144.000,0.028,7.072,47.436,6.554,911.461,9.254,883.655,0.725,-8.753,0.605,1.233,-0.348,-0.080,0.145,0.000,0.000,0.000,-0.102,0.650,0.107,0.745,0.0000000,0.0000000,0.000,0.000,0.000,0.000,0,00:00:00,-856,0.000,0.000,91087.117,9.219,0.000,0.000,1.165,-9.734,0.017,-0.005,0.002,0.011,0.000,0.000
50.009,0,0,-3.870,4.768,-9.387,-3.710,5.585,-12.603,-2.409,4.175,-10.382,0.000,0.000,0.0116870,0.000,9144.000,0.028,7.691,48.086,6.497,911.534,9.258,883.002,0.012,-11.328,1.019,1.282,0.178,0.127,0.305,0.000,0.000,0.000,-0.082,0.658,0.116,0.739,0.0000000,0.0000000,0.000,0.000,0.000,0.000,0,00:00:00,-856,0.000,0.000,91173.219,9.270,0.000,0.000,0.945,-9.796,0.029,-0.006,0.006,-0.000,0.000,0.000
50.110,0,0,-3.840,4.836,-9.136,-3.578,5.687,-12.620,-0.720,3.553,-11.892,0.000,0.000,0.0116870,0.000,9144.000,0.027,6.874,48.715,6.289,911.464,9.254,883.634,0.588,-12.431,0.088,-0.170,-0.002,0.328,0.103,0.000,0.000,0.000,-0.080,0.671,0.118,0.728,0.0000000,0.0000000,0.000,0.000,0.000,0.000,0,00:00:00,-856,0.000,0.000,91172.195,9.269,0.000,0.000,0.988,-9.720,0.033,0.002,-0.012,-0.002,0.000,0.000
50.211,0,0,-3.801,4.907,-9.629,-3.444,5.785,-12.926,-0.669,3.553,-9.158,0.000,0.000,0.0116870,0.000,9144.000,0.028,4.998,49.350,6.354,912.037,9.288,878.442,-4.545,-9.819,0.661,0.299,-0.212,0.104,-0.381,0.000,0.000,0.000,-0.091,0.682,0.121,0.716,0.0000000,0.0000000,0.000,0.000,0.000,0.000,0,00:00:00,-856,0.000,0.000,91165.070,9.265,0.000,0.000,1.051,-9.731,0.026,-0.003,0.020,0.008,0.000,0.000
50.312,0,0,-3.751,4.970,-9.680,-3.255,5.670,-12.746,-0.102,1.478,-7.794,0.000,0.000,0.0116870,0.000,9144.000,0.028,3.086,50.006,6.556,911.710,9.269,881.401,-1.737,-7.866,-0.995,-0.269,-0.138,0.039,-0.347,0.000,0.000,0.000,-0.110,0.682,0.111,0.715,0.0000000,0.0000000,0.000,0.000,0.000,0.000,0,00:00:00,-856,0.000,0.000,91151.750,9.257,0.000,0.000,0.990,-9.657,0.035,0.018,0.005,-0.012,0.000,0.000
50.413,0,0,-3.688,5.018,-9.743,-3.070,5.563,-12.587,-0.105,1.583,-7.773,0.000,0.000,0.0116870,0.000,9144.000,0.028,2.664,50.682,6.759,911.710,9.269,881.401,-1.987,-7.866,-0.995,-0.269,-0.138,0.039,-0.347,0.000,0.000,0.000,-0.128,0.681,0.101,0.714,0.0000000,0.0000000,0.000,0.000,0.000,0.000,0,00:00:00,-856,0.000,0.000,91151.750,9.257,0.000,0.000,0.990,-9.657,0.035,0.018,0.005,-0.012,0.000,0.000
50.514,0,0,-3.624,5.060,-9.755,-3.092,5.638,-12.531,-2.131,3.399,-9.100,0.000,0.000,0.0116870,0.000,9144.000,0.028,2.230,51.365,6.830,911.703,9.268,881.469,-1.747,-9.851,0.450,1.291,0.202,-0.177,0.117,0.000,0.000,0.000,-0.100,0.666,0.115,0.731,0.0000000,0.0000000,0.000,0.000,0.000,0.000,0,00:00:00,-856,0.000,0.000,91098.328,9.226,0.000,0.000,1.050,-9.863,-0.041,0.012,-0.004,-0.014,0.000,0.000
50.615,0,0,-3.566,5.110,-9.231,-3.079,5.839,-12.131,-1.739,4.680,-9.646,0.000,0.000,0.0116870,0.000,9144.000,0.028,5.376,52.049,6.847,911.357,9.248,884.601,2.051,-10.693,1.539,1.123,0.076,0.029,0.017,0.000,0.000,0.000,-0.074,0.668,0.133,0.728,0.0000000,0.0000000,0.000,0.000,0.000,0.000,0,00:00:00,-856,0.000,0.000,91103.297,9.229,0.000,0.000,1.135,-9.859,-0.080,-0.007,0.016,-0.007,0.000,0.000
50.716,0,0,-3.519,5.166,-8.940,-3.213,5.873,-11.949,-3.177,3.052,-9.789,0.000,0.000,0.0116870,0.000,9144.000,0.028,5.558,52.734,6.849,911.505,9.256,883.258,0.669,-10.543,-0.266,1.999,-0.122,0.338,0.055,0.000,0.000,0.000,-0.094,0.655,0.125,0.740,0.0000000,0.0000000,0.000,0.000,0.000,0.000,0,00:00:00,-856,0.000,0.000,91110.555,9.233,0.000,0.000,1.117,-9.736,-0.038,0.007,-0.030,0.009,0.000,0.000
50.817,0,0,-3.490,5.221,-8.662,-3.368,5.913,-11.782,-3.376,3.142,-9.693,0.000,0.000,0.0116870,0.000,9144.000,0.029,7.213,53.420,6.861,911.505,9.256,883.258,0.753,-10.543,-0.266,1.999,-0.122,0.338,0.055,0.000,0.000,0.000,-0.106,0.647,0.124,0.745,0.0000000,0.0000000,0.000,0.000,0.000,0.000,0,00:00:00,-856,0.000,0.000,91110.555,9.233,0.000,0.000,1.117,-9.736,-0.038,0.007,-0.030,0.009,0.000,0.000
50.918,0,0,-3.463,5.273,-8.161,-3.183,5.938,-11.493,0.009,3.019,-10.029,0.000,0.000,0.0116870,0.000,9144.000,0.029,8.017,54.104,6.839,911.288,9.244,885.227,2.526,-10.452,-0.416,-0.533,-0.050,0.056,-0.320,0.000,0.000,0.000,-0.126,0.681,0.107,0.714,0.0000000,0.0000000,0.000,0.000,0.000,0.000,0,00:00:00,-856,0.000,0.000,91074.586,9.212,0.000,0.000,1.062,-9.734,-0.003,-0.011,0.016,0.011,0.000,0.000
51.019,0,0,-3.407,5.331,-7.735,-2.714,6.157,-11.099,2.854,4.974,-8.142,0.000,0.000,0.0116870,0.000,9144.000,0.029,2.387,54.805,7.005,911.304,9.245,885.087,2.257,-9.553,2.101,-1.873,-0.133,-0.252,0.072,0.000,0.000,0.000,-0.092,0.723,0.149,0.668,0.0000000,0.0000000,0.000,0.000,0.000,0.000,0,00:00:00,-856,0.000,0.000,91202.797,9.287,0.000,0.000,1.049,-9.740,0.029,-0.007,0.003,-0.021,0.000,0.000
51.120,0,0,-3.340,5.396,-7.578,-2.813,6.194,-10.886,-2.731,3.205,-7.631,0.000,0.000,0.0116870,0.000,9144.000,0.030,-3.543,55.527,7.223,911.502,9.256,883.289,0.498,-8.442,0.020,2.165,-0.183,-0.412,0.271,0.000,0.000,0.000,-0.098,0.663,0.159,0.725,0.0000000,0.0000000,0.000,0.000,0.000,0.000,0,00:00:00,-856,0.000,0.000,91244.469,9.312,0.000,0.000,1.062,-9.723,0.031,0.006,0.003,-0.009,0.000,0.000
51.221,0,0,-3.292,5.459,-7.362,-2.984,6.245,-10.609,-3.433,3.370,-7.268,0.000,0.000,0.0116870,0.000,9144.000,0.030,5.762,56.275,7.478,911.502,9.256,883.289,0.941,-8.442,0.020,2.165,-0.183,-0.412,0.271,0.000,0.000,0.000,-0.104,0.628,0.168,0.753,0.0000000,0.0000000,0.000,0.000,0.000,0.000,0,00:00:00,-856,0.000,0.000,91244.469,9.312,0.000,0.000,1.062,-9.723,0.031,0.006,0.003,-0.009,0.000,0.000
51.322,0,0,-3.263,5.511,-7.190,-3.127,6.092,-10.625,-3.133,1.386,-9.718,0.000,0.000,0.0116870,0.000,9144.000,0.030,10.944,57.024,7.487,911.546,9.259,882.885,0.737,-9.893,-2.505,1.425,-0.095,0.224,-0.205,0.000,0.000,0.000,-0.169,0.628,0.117,0.751,0.0000000,0.0000000,0.000,0.000,0.000,0.000,0,00:00:00,-856,0.000,0.000,91158.914,9.261,0.000,0.000,1.002,-9.736,0.037,0.000,-0.023,-0.005,0.000,0.000
51.423,0,0,-3.248,5.559,-6.677,-3.245,6.248,-10.248,-2.870,4.465,-8.318,0.000,0.000,0.0116870,0.000,9144.000,0.031,8.902,57.787,7.636,911.295,9.244,885.166,3.318,-9.731,0.614,1.514,-0.161,0.124,0.049,0.000,0.000,0.000,-0.143,0.637,0.150,0.743,0.0000000,0.0000000,0.000,0.000,0.000,0.000,0,00:00:00,-856,0.000,0.000,91092.805,9.222,0.000,0.000,1.009,-9.801,-0.092,0.005,0.012,-0.002,0.000,0.000
51.524,0,0,-3.244,5.613,-7.016,-3.323,6.348,-10.484,-2.482,3.944,-7.782,0.000,0.000,0.0116870,0.000,9144.000,0.032,8.493,58.571,7.839,911.938,9.282,879.335,-2.502,-8.960,0.329,1.374,0.008,0.098,0.077,0.000,0.000,0.000,-0.131,0.641,0.160,0.739,0.0000000,0.0000000,0.000,0.000,0.000,0.000,0,00:00:00,-856,0.000,0.000,91083.844,9.217,0.000,0.000,1.077,-9.800,0.105,0.000,0.008,-0.015,0.000,0.000
51.625,0,0,-3.246,5.672,-6.638,-3.379,6.453,-10.010,-2.256,4.021,-6.161,0.000,0.000,0.0116870,0.000,9144.000,0.033,8.323,59.391,8.204,911.340,9.247,884.755,2.368,-7.515,0.802,1.447,-0.346,0.092,0.060,0.000,0.000,0.000,-0.143,0.642,0.173,0.734,0.0000000,0.0000000,0.000,0.000,0.000,0.000,0,00:00:00,-856,0.000,0.000,91099.016,9.226,0.000,0.000,1.090,-9.733,0.011,0.008,0.002,0.023,0.000,0.000
51.726,0,0,-3.254,5.739,-6.065,-3.454,6.636,-9.453,-2.460,4.827,-6.450,0.000,0.000,0.0116870,0.000,9144.000,0.034,7.818,60.245,8.540,911.174,9.237,886.259,3.859,-8.110,1.510,1.700,0.180,0.149,-0.290,0.000,0.000,0.000,-0.124,0.642,0.175,0.736,0.0000000,0.0000000,0.000,0.000,0.000,0.000,0,00:00:00,-856,0.000,0.000,91209.641,9.291,0.000,0.000,1.106,-9.825,-0.040,0.019,0.010,-0.007,0.000,0.000
51.827,0,0,-3.260,5.815,-6.007,-3.360,6.801,-9.441,-0.784,4.697,-7.668,0.000,0.000,0.0116870,0.000,9144.000,0.034,8.371,61.121,8.754,911.549,9.259,882.858,0.446,-8.969,0.976,0.279,-0.143,-0.298,-0.241,0.000,0.000,0.000,-0.123,0.658,0.182,0.720,0.0000000,0.0000000,0.000,0.000,0.000,0.000,0,00:00:00,-856,0.000,0.000,91150.930,9.257,0.000,0.000,1.014,-9.718,0.046,0.005,0.004,-0.013,0.000,0.000
51.928,0,0,-3.262,5.886,-6.085,-3.359,6.686,-9.552,-1.706,1.960,-7.866,0.000,0.000,0.0116870,0.000,9144.000,0.035,5.943,62.016,8.948,911.633,9.264,882.099,-0.470,-8.035,-1.788,0.935,-0.204,0.125,0.045,0.000,0.000,0.000,-0.152,0.654,0.169,0.721,0.0000000,0.0000000,0.000,0.000,0.000,0.000,0,00:00:00,-856,0.000,0.000,91023.695,9.182,0.000,0.000,0.985,-9.768,0.030,0.008,-0.005,-0.013,0.000,0.000
52.029,0,0,-3.268,5.951,-6.172,-3.466,6.811,-9.666,-2.780,4.358,-7.919,0.000,0.000,0.0116870,0.000,9144.000,0.035,5.604,62.929,9.137,911.618,9.263,882.240,-0.538,-9.312,0.174,1.639,-0.148,-0.026,-0.339,0.000,0.000,0.000,-0.156,0.638,0.173,0.734,0.0000000,0.0000000,0.000,0.000,0.000,0.000,0,00:00:00,-856,0.000,0.000,91184.367,9.276,0.000,0.000,0.962,-9.728,-0.040,0.007,-0.014,0.010,0.000,0.000
52.130,0,0,-3.278,6.023,-5.921,-3.445,6.957,-9.635,-1.512,4.621,-9.113,0.000,0.000,0.0116870,0.000,9144.000,0.036,7.863,63.850,9.207,911.353,9.247,884.638,1.895,-10.316,-0.119,0.509,-0.109,-0.063,-0.317,0.000,0.000,0.000,-0.168,0.651,0.167,0.721,0.0000000,0.0000000,0.000,0.000,0.000,0.000,0,00:00:00,-856,0.000,0.000,91162.016,9.263,0.000,0.000,1.071,-9.752,-0.001,-0.007,-0.009,0.003,0.000,0.000
52.231,0,0,-3.277,6.093,-5.775,-3.255,6.927,-9.680,0.159,2.902,-9.076,0.000,0.000,0.0116870,0.000,9144.000,0.036,5.518,64.778,9.280,911.357,9.248,884.606,1.378,-9.303,-1.969,-0.622,-0.296,0.048,-0.039,0.000,0.000,0.000,-0.219,0.667,0.139,0.698,0.0000000,0.0000000,0.000,0.000,0.000,0.000,0,00:00:00,-856,0.000,0.000,91137.641,9.249,0.000,0.000,1.010,-9.725,0.051,0.010,-0.001,-0.001,0.000,0.000
52.332,0,0,-3.267,6.163,-5.813,-3.260,7.096,-9.724,-1.771,4.914,-7.672,0.000,0.000,0.0116870,0.000,9144.000,0.037,0.728,65.728,9.494,911.471,9.254,883.565,0.189,-9.207,0.409,1.094,-0.125,-0.083,0.186,0.000,0.000,0.000,-0.186,0.656,0.179,0.709,0.0000000,0.0000000,0.000,0.000,0.000,0.000,0,00:00:00,-856,0.000,0.000,91134.039,9.247,0.000,0.000,0.894,-9.746,-0.026,0.008,-0.007,0.004,0.000,0.000
52.433,0,0,-3.258,6.242,-5.613,-3.239,7.274,-9.765,-1.506,5.049,-9.508,0.000,0.000,0.0116870,0.000,9144.000,0.037,3.954,66.680,9.525,911.237,9.241,885.691,1.939,-10.839,-0.029,0.827,0.368,0.038,0.268,0.000,0.000,0.000,-0.165,0.662,0.176,0.710,0.0000000,0.0000000,0.000,0.000,0.000,0.000,0,00:00:00,-856,0.000,0.000,91177.594,9.272,0.000,0.000,1.006,-9.773,-0.001,0.016,0.017,0.016,0.000,0.000
52.534,0,0,-3.240,6.329,-6.032,-3.057,7.436,-10.133,0.098,4.930,-8.143,0.000,0.000,0.0116870,0.000,9144.000,0.037,4.039,67.649,9.691,911.728,9.270,881.240,-2.300,-9.493,0.694,-0.165,0.138,0.008,-0.133,0.000,0.000,0.000,-0.153,0.681,0.178,0.694,0.0000000,0.0000000,0.000,0.000,0.000,0.000,0,00:00:00,-856,0.000,0.000,91157.031,9.260,0.000,0.000,0.917,-9.677,-0.064,0.005,0.003,0.001,0.000,0.000
52.635,0,0,-3.217,6.416,-5.827,-3.069,7.440,-9.931,-1.809,3.413,-7.372,0.000,0.000,0.0116870,0.000,9144.000,0.038,1.504,68.643,9.935,911.258,9.242,885.496,1.941,-8.177,-0.259,1.529,0.105,0.351,-0.195,0.000,0.000,0.000,-0.159,0.675,0.165,0.701,0.0000000,0.0000000,0.000,0.000,0.000,0.000,0,00:00:00,-856,0.000,0.000,91089.469,9.220,0.000,0.000,1.019,-9.676,-0.042,0.001,0.018,0.013,0.000,0.000
52.736,0,0,-3.209,6.498,-6.086,-3.369,7.516,-10.273,-4.657,4.172,-9.241,0.000,0.000,0.0116870,0.000,9144.000,0.039,2.168,69.642,9.992,911.575,9.261,882.627,-1.228,-10.617,-0.232,3.422,0.379,-0.101,0.099,0.000,0.000,0.000,-0.139,0.645,0.159,0.735,0.0000000,0.0000000,0.000,0.000,0.000,0.000,0,00:00:00,-856,0.000,0.000,91266.281,9.325,0.000,0.000,1.102,-9.689,-0.041,0.000,0.020,-0.014,0.000,0.000
52.837,0,0,-3.221,6.584,-6.430,-3.480,7.695,-10.611,-2.788,5.230,-8.806,0.000,0.000,0.0116870,0.000,9144.000,0.039,7.468,70.651,10.092,911.654,9.265,881.913,-1.902,-10.450,0.853,1.653,-0.087,-0.129,0.008,0.000,0.000,0.000,-0.125,0.640,0.176,0.737,0.0000000,0.0000000,0.000,0.000,0.000,0.000,0,00:00:00,-856,0.000,0.000,91221.312,9.298,0.000,0.000,1.041,-9.747,0.054,-0.010,0.017,0.017,0.000,0.000
52.938,0,0,-3.232,6.673,-5.939,-3.364,7.745,-10.217,-0.560,4.008,-7.961,0.000,0.000,0.0116870,0.000,9144.000,0.040,8.590,71.679,10.277,911.048,9.230,887.402,3.900,-8.928,0.048,0.185,-0.236,0.382,0.372,0.000,0.000,0.000,-0.141,0.668,0.180,0.708,0.0000000,0.0000000,0.000,0.000,0.000,0.000,0,00:00:00,-856,0.000,0.000,91198.117,9.285,0.000,0.000,0.949,-9.780,0.018,-0.004,-0.001,0.010,0.000,0.000
53.039,0,0,-3.230,6.758,-5.442,-3.215,7.811,-9.840,-0.215,4.207,-7.874,0.000,0.000,0.0116870,0.000,9144.000,0.040,3.840,72.726,10.471,911.048,9.230,887.402,4.185,-8.928,0.048,0.185,-0.236,0.382,0.372,0.000,0.000,0.000,-0.153,0.681,0.186,0.692,0.0000000,0.0000000,0.000,0.000,0.000,0.000,0,00:00:00,-856,0.000,0.000,91198.117,9.285,0.000,0.000,0.949,-9.780,0.018,-0.004,-0.001,0.010,0.000,0.000
53.140,0,0,-3.224,6.847,-5.251,-3.271,7.989,-9.727,-2.259,5.362,-7.946,0.000,0.000,0.0116870,0.000,9144.000,0.041,1.463,73.792,10.657,911.245,9.241,885.620,2.268,-9.680,0.567,1.721,-0.289,0.010,0.047,0.000,0.000,0.000,-0.153,0.653,0.206,0.713,0.0000000,0.0000000,0.000,0.000,0.000,0.000,0,00:00:00,-856,0.000,0.000,91173.922,9.270,0.000,0.000,1.028,-9.810,-0.096,-0.010,0.002,-0.002,0.000,0.000
53.241,0,0,-3.224,6.944,-5.094,-3.353,8.188,-9.623,-2.499,5.620,-7.692,0.000,0.000,0.0116870,0.000,9144.000,0.042,5.771,74.878,10.869,911.245,9.241,885.620,2.136,-9.680,0.567,1.721,-0.289,0.010,0.047,0.000,0.000,0.000,-0.158,0.637,0.222,0.721,0.0000000,0.0000000,0.000,0.000,0.000,0.000,0,00:00:00,-856,0.000,0.000,91173.922,9.270,0.000,0.000,1.028,-9.810,-0.096,-0.010,0.002,-0.002,0.000,0.000
53.342,0,0,-3.224,7.059,-4.964,-3.252,8.550,-9.548,-0.701,7.303,-7.692,0.000,0.000,0.0116870,0.000,9144.000,0.043,7.932,75.987,11.081,911.249,9.241,885.586,2.034,-10.396,2.041,0.858,-0.120,0.198,0.100,0.000,0.000,0.000,-0.139,0.656,0.246,0.700,0.0000000,0.0000000,0.000,0.000,0.000,0.000,0,00:00:00,-856,0.000,0.000,91148.789,9.255,0.000,0.000,1.014,-9.802,-0.048,0.002,0.017,-0.003,0.000,0.000
53.443,0,0,-3.222,7.186,-5.047,-3.315,8.720,-9.741,-2.318,5.456,-8.768,0.000,0.000,0.0116870,0.000,9144.000,0.043,5.747,77.105,11.185,911.397,9.250,884.242,0.637,-10.466,-0.150,1.570,0.095,0.091,0.019,0.000,0.000,0.000,-0.160,0.644,0.223,0.714,0.0000000,0.0000000,0.000,0.000,0.000,0.000,0,00:00:00,-856,0.000,0.000,91169.477,9.268,0.000,0.000,1.065,-9.785,-0.049,-0.003,0.011,0.005,0.000,0.000
53.544,0,0,-3.223,7.316,-5.320,-3.322,8.848,-10.161,-1.759,5.122,-9.784,0.000,0.000,0.0116870,0.000,9144.000,0.044,6.861,78.224,11.188,911.518,9.257,883.140,-0.655,-11.121,-0.727,0.926,0.165,0.037,0.259,0.000,0.000,0.000,-0.164,0.649,0.211,0.713,0.0000000,0.0000000,0.000,0.000,0.000,0.000,0,00:00:00,-856,0.000,0.000,91102.047,9.228,0.000,0.000,1.065,-9.696,0.000,-0.018,0.006,0.004,0.000,0.000
53.645,0,0,-3.210,7.444,-5.994,-3.005,8.956,-10.668,1.447,4.977,-7.924,0.000,0.000,0.0116870,0.000,9144.000,0.044,6.047,79.361,11.376,911.834,9.276,880.283,-3.586,-9.381,-0.103,-1.282,-0.347,0.085,-0.205,0.000,0.000,0.000,-0.200,0.685,0.198,0.672,0.0000000,0.0000000,0.000,0.000,0.000,0.000,0,00:00:00,-856,0.000,0.000,91149.477,9.256,0.000,0.000,1.028,-9.812,0.020,-0.011,0.004,0.010,0.000,0.000
