State - Time (s),State - Stage,State - Stage,State - PX (m),State - PY (m),State - PZ (m),State - VX (m/s),State - VY (m/s),State - VZ (m/s),State - AX (m/s/s),State - AY (m/s/s),State - AZ (m/s/s),State - Actuation Angle (deg),State - Acutal Angle (deg),State - CdA,State - Est Apo (m),State - Target Apogee (m),State - Mach Number,State - Tilt [deg],MockBarometer - Pres (hPa),MockBarometer - Temp (C),MockBarometer - Alt ASL (m),MockBarometer - Alt AGL (m),MockIMU - AccX (m/s^2),MockIMU - AccY (m/s^2),MockIMU - AccZ (m/s^2),MockIMU - GyroX (rad/s),MockIMU - GyroY (rad/s),MockIMU - GyroZ (rad/s),MockIMU - MagX (uT),MockIMU - MagY (uT),MockIMU - MagZ (uT),MockIMU - OriX,MockIMU - OriY,MockIMU - OriZ,MockIMU - OriW,MockGPS - Lat,MockGPS - Lon,MockGPS - Alt (m),MockGPS - Disp X (m),MockGPS - Disp Y (m),MockGPS - Disp Z (m),MockGPS - Fix Quality,MockGPS - Time of Day,E5 - Rel Steps,BR - Battery Voltage (V),BR - ALT (m),BR - PRES (Pa),BR - TEMP (C),BR - VEL (m/s),BR - ANG (deg),BR - ACCX (m/s^2),BR - ACCY (m/s^2),BR - ACCZ (m/s^2),BR - GYROX (rad/s),BR - GYROY (rad/s),BR - GYROZ (rad/s),BR - ROLL (deg),BR - TILT (deg)
11.328,0,0,0.000,0.000,0.000,0.000,0.000,0.000,0.000,0.000,0.000,0.000,0.000,0.0103675,0.000,7500.000,0.000,0.000,0.000,0.000,44307.690,0.000,0.000,0.000,0.000,0.000,0.000,0.000,0.000,0.000,0.000,0.000,0.000,0.000,1.000,0.0000000,0.0000000,0.000,0.000,0.000,0.000,0,00:00:00,0,0.000,0.000,0.000,0.000,0.000,0.000,0.000,0.000,0.000,0.000,0.000,0.000,0.000,0.000
11.429,0,0,-0.000,-0.000,-5473.901,-0.748,-0.014,-967.098,-7.475,-0.138,-6.601,0.000,0.000,0.0103675,0.000,7500.000,0.000,90.000,1013.254,15.050,-0.030,-5474.964,-9.964,-0.160,0.412,0.003,-0.001,-0.017,0.000,0.000,0.000,-0.006,0.373,-0.001,0.928,0.0000000,0.0000000,0.000,0.000,0.000,0.000,0,00:00:00,0,0.000,0.000,0.000,0.000,0.000,0.000,0.000,0.000,0.000,0.000,0.000,0.000,0.000,0.000
11.530,0,0,-0.048,-0.001,-4410.765,-1.175,-0.009,-765.905,-4.314,0.043,-8.760,0.000,0.000,0.0103675,0.000,7500.000,2.847,46.187,1013.275,15.048,-0.207,-3290.044,-9.758,-0.042,0.355,-0.028,0.002,0.006,0.000,0.000,0.000,-0.006,0.544,0.001,0.839,0.0000000,0.0000000,0.000,0.000,0.000,0.000,0,00:00:00,0,0.000,0.000,0.000,0.000,0.000,0.000,0.000,0.000,0.000,0.000,0.000,0.000,0.000,0.000
11.631,0,0,-0.117,-0.001,-3753.817,-1.404,-0.013,-638.606,-2.369,-0.041,-9.393,0.000,0.000,0.0103675,0.000,7500.000,2.255,24.129,1013.281,15.048,-0.258,-2360.371,-9.683,-0.142,0.240,0.006,0.014,0.003,0.000,0.000,0.000,-0.008,0.624,0.000,0.781,0.0000000,0.0000000,0.000,0.000,0.000,0.000,0,00:00:00,0,0.000,0.000,0.000,0.000,0.000,0.000,0.000,0.000,0.000,0.000,0.000,0.000,0.000,0.000
11.732,0,0,-0.197,-0.002,-3297.573,-1.553,-0.008,-545.701,-1.590,0.048,-9.478,0.000,0.000,0.0103675,0.000,7500.000,1.880,12.735,1013.211,15.050,0.329,-1841.583,-9.604,-0.073,0.350,-0.014,-0.010,-0.006,0.000,0.000,0.000,-0.008,0.660,0.002,0.751,0.0000000,0.0000000,0.000,0.000,0.000,0.000,0,00:00:00,0,0.000,0.000,0.000,0.000,0.000,0.000,0.000,0.000,0.000,0.000,0.000,0.000,0.000,0.000
11.833,0,0,-0.283,-0.002,-2957.140,-1.657,0.003,-470.522,-1.161,0.109,-9.632,0.000,0.000,0.0103675,0.000,7500.000,1.606,7.437,1013.270,15.051,-0.166,-1510.904,-9.696,-0.026,0.365,-0.005,0.027,0.025,0.000,0.000,0.000,-0.007,0.677,0.003,0.736,0.0000000,0.0000000,0.000,0.000,0.000,0.000,0,00:00:00,0,0.000,0.000,0.000,0.000,0.000,0.000,0.000,0.000,0.000,0.000,0.000,0.000,0.000,0.000
11.934,0,0,-0.372,-0.000,-2689.465,-1.740,0.022,-404.451,-0.963,0.188,-9.708,0.000,0.000,0.0103675,0.000,7500.000,1.385,4.717,1013.209,15.050,0.340,-1280.436,-9.750,0.029,0.371,-0.023,-0.014,-0.018,0.000,0.000,0.000,-0.006,0.685,0.005,0.728,0.0000000,0.0000000,0.000,0.000,0.000,0.000,0,00:00:00,0,0.000,0.000,0.000,0.000,0.000,0.000,0.000,0.000,0.000,0.000,0.000,0.000,0.000,0.000
12.035,0,0,-0.465,0.002,-2470.287,-1.811,0.041,-342.615,-0.856,0.192,-9.717,0.000,0.000,0.0103675,0.000,7500.000,1.191,3.486,1013.222,15.050,0.233,-1111.427,-9.750,0.040,0.374,0.010,0.001,0.012,0.000,0.000,0.000,-0.005,0.689,0.006,0.724,0.0000000,0.0000000,0.000,0.000,0.000,0.000,0,00:00:00,0,0.000,0.000,0.000,0.000,0.000,0.000,0.000,0.000,0.000,0.000,0.000,0.000,0.000,0.000
12.136,0,0,-0.560,0.006,-2284.465,-1.879,0.054,-282.052,-0.839,0.128,-9.580,0.000,0.000,0.0103675,0.000,7500.000,1.009,2.838,1013.279,15.049,-0.241,-982.229,-9.609,-0.017,0.398,0.003,-0.010,-0.008,0.000,0.000,0.000,-0.005,0.691,0.005,0.723,0.0000000,0.0000000,0.000,0.000,0.000,0.000,0,00:00:00,0,0.000,0.000,0.000,0.000,0.000,0.000,0.000,0.000,0.000,0.000,0.000,0.000,0.000,0.000
12.237,0,0,-0.658,0.011,-2121.778,-1.932,0.062,-220.948,-0.703,0.087,-9.590,0.000,0.000,0.0103675,0.000,7500.000,0.830,2.633,1013.208,15.049,0.346,-879.146,-9.611,-0.068,0.316,-0.012,-0.017,-0.002,0.000,0.000,0.000,-0.007,0.693,0.005,0.721,0.0000000,0.0000000,0.000,0.000,0.000,0.000,0,00:00:00,0,0.000,0.000,0.000,0.000,0.000,0.000,0.000,0.000,0.000,0.000,0.000,0.000,0.000,0.000
12.338,0,0,-0.756,0.016,-1985.817,-1.997,0.093,-162.300,-0.845,0.311,-9.618,0.000,0.000,0.0103675,0.000,7500.000,0.650,2.308,1013.284,15.048,-0.285,-879.777,-9.649,0.152,0.435,0.001,-0.000,-0.001,0.000,0.000,0.000,-0.003,0.692,0.008,0.722,0.0000000,0.0000000,0.000,0.000,0.000,0.000,0,00:00:00,0,0.000,0.000,0.000,0.000,0.000,0.000,0.000,0.000,0.000,0.000,0.000,0.000,0.000,0.000
12.439,0,0,-0.857,0.024,-1867.894,-2.054,0.115,-105.152,-0.787,0.227,-9.804,0.000,0.000,0.0103675,0.000,7500.000,0.478,2.447,1013.205,15.051,0.376,-879.115,-9.831,0.069,0.377,0.003,-0.027,-0.003,0.000,0.000,0.000,-0.003,0.692,0.008,0.722,0.0000000,0.0000000,0.000,0.000,0.000,0.000,0,00:00:00,0,0.000,0.000,0.000,0.000,0.000,0.000,0.000,0.000,0.000,0.000,0.000,0.000,0.000,0.000
12.540,0,0,-0.958,0.033,-1762.598,-2.082,0.142,-49.281,-0.523,0.271,-9.745,0.000,0.000,0.0103675,0.000,7500.000,0.310,2.401,1013.263,15.051,-0.110,-879.601,-9.760,0.123,0.202,0.007,-0.037,-0.012,0.000,0.000,0.000,-0.002,0.695,0.008,0.719,0.0000000,0.0000000,0.000,0.000,0.000,0.000,0,00:00:00,0,0.000,0.000,0.000,0.000,0.000,0.000,0.000,0.000,0.000,0.000,0.000,0.000,0.000,0.000
12.641,0,0,-1.058,0.044,-1666.221,-2.102,0.168,5.157,-0.482,0.270,-9.712,0.000,0.000,0.0103675,0.000,7500.000,0.145,1.899,1013.269,15.049,-0.157,-879.648,-9.725,0.084,0.223,-0.039,0.021,0.008,0.000,0.000,0.000,-0.003,0.697,0.010,0.717,0.0000000,0.0000000,0.000,0.000,0.000,0.000,0,00:00:00,0,0.000,0.000,0.000,0.000,0.000,0.000,0.000,0.000,0.000,0.000,0.000,0.000,0.000,0.000
12.742,0,0,-1.156,0.057,-1576.376,-2.144,0.194,57.700,-0.725,0.270,-9.749,0.000,0.000,0.0103675,0.000,7500.000,0.016,1.546,1013.234,15.049,0.131,-879.361,-9.771,0.101,0.394,0.021,-0.011,0.017,0.000,0.000,0.000,-0.002,0.695,0.010,0.719,0.0000000,0.0000000,0.000,0.000,0.000,0.000,0,00:00:00,0,0.000,0.000,0.000,0.000,0.000,0.000,0.000,0.000,0.000,0.000,0.000,0.000,0.000,0.000
12.843,0,0,-1.254,0.071,-1491.641,-2.190,0.222,107.695,-0.802,0.299,-9.696,0.000,0.000,0.0103675,0.000,7500.000,0.170,1.960,1013.201,15.051,0.406,-879.086,-9.723,0.176,0.429,0.050,0.003,0.006,0.000,0.000,0.000,0.001,0.693,0.009,0.721,0.0000000,0.0000000,0.000,0.000,0.000,0.000,0,00:00:00,0,0.000,0.000,0.000,0.000,0.000,0.000,0.000,0.000,0.000,0.000,0.000,0.000,0.000,0.000
12.944,0,0,-1.351,0.086,-1411.368,-2.231,0.234,154.298,-0.793,0.142,-9.794,0.000,0.000,0.0103675,0.000,7500.000,0.317,2.231,1013.283,15.049,-0.276,-879.768,-9.820,0.021,0.381,-0.002,-0.065,-0.009,0.000,0.000,0.000,-0.001,0.692,0.007,0.722,0.0000000,0.0000000,0.000,0.000,0.000,0.000,0,00:00:00,0,0.000,0.000,0.000,0.000,0.000,0.000,0.000,0.000,0.000,0.000,0.000,0.000,0.000,0.000
13.045,0,0,-1.448,0.100,-1335.177,-2.288,0.236,196.852,-0.993,0.051,-9.708,0.000,0.000,0.0103675,0.000,7500.000,0.454,2.412,1013.270,15.052,-0.165,-879.657,-9.744,-0.096,0.525,-0.029,-0.005,0.031,0.000,0.000,0.000,-0.005,0.690,0.006,0.724,0.0000000,0.0000000,0.000,0.000,0.000,0.000,0,00:00:00,0,0.000,0.000,0.000,0.000,0.000,0.000,0.000,0.000,0.000,0.000,0.000,0.000,0.000,0.000
13.146,0,0,-1.544,0.115,-1263.140,-2.322,0.245,234.656,-0.818,0.126,-9.694,0.000,0.000,0.0103675,0.000,7500.000,0.580,2.761,1013.299,15.048,-0.408,-879.899,-9.721,-0.012,0.392,0.007,0.007,-0.013,0.000,0.000,0.000,-0.005,0.691,0.005,0.722,0.0000000,0.0000000,0.000,0.000,0.000,0.000,0,00:00:00,0,0.000,0.000,0.000,0.000,0.000,0.000,0.000,0.000,0.000,0.000,0.000,0.000,0.000,0.000
13.247,0,0,-1.637,0.129,-1195.405,-2.354,0.253,267.241,-0.850,0.125,-9.791,0.000,0.000,0.0103675,0.000,7500.000,0.691,2.515,1013.261,15.052,-0.091,-879.582,-9.820,-0.022,0.417,-0.006,-0.020,0.013,0.000,0.000,0.000,-0.006,0.691,0.005,0.723,0.0000000,0.0000000,0.000,0.000,0.000,0.000,0,00:00:00,0,0.000,0.000,0.000,0.000,0.000,0.000,0.000,0.000,0.000,0.000,0.000,0.000,0.000,0.000
13.348,0,0,-1.727,0.143,-1022.228,-2.380,0.274,379.520,-0.843,0.249,-9.701,0.000,0.000,0.0103675,0.000,7500.000,0.787,2.531,1013.262,15.050,-0.099,-0.104,-9.731,0.106,0.424,0.005,0.012,0.005,0.000,0.000,0.000,-0.003,0.692,0.007,0.722,0.0000000,0.0000000,0.000,0.000,0.000,0.000,0,00:00:00,0,0.000,0.000,0.000,0.000,0.000,0.000,0.000,0.000,0.000,0.000,0.000,0.000,0.000,0.000
13.449,0,0,-1.812,0.157,-858.231,-2.409,0.281,476.915,-0.937,0.128,-9.906,0.000,0.000,0.0103675,0.000,7500.000,1.117,2.478,1013.258,15.051,-0.070,-0.117,-9.940,-0.027,0.476,-0.010,-0.019,0.010,0.000,0.000,0.000,-0.005,0.690,0.006,0.723,0.0000000,0.0000000,0.000,0.000,0.000,0.000,0,00:00:00,0,0.000,0.000,0.000,0.000,0.000,0.000,0.000,0.000,0.000,0.000,0.000,0.000,0.000,0.000
13.550,0,0,-1.891,0.171,-704.603,-2.384,0.289,558.975,-0.459,0.144,-9.741,0.000,0.000,0.0103675,0.000,7500.000,1.404,2.664,1013.250,15.051,-0.002,-0.058,-9.752,-0.002,0.144,0.006,-0.033,0.008,0.000,0.000,0.000,-0.005,0.696,0.006,0.718,0.0000000,0.0000000,0.000,0.000,0.000,0.000,0,00:00:00,0,0.000,0.000,0.000,0.000,0.000,0.000,0.000,0.000,0.000,0.000,0.000,0.000,0.000,0.000
13.651,0,0,-1.962,0.184,-562.274,-2.377,0.282,625.753,-0.694,0.005,-9.669,0.000,0.000,0.0103675,0.000,7500.000,1.646,1.851,1013.209,15.051,0.342,0.276,-9.686,-0.155,0.354,-0.016,-0.013,0.018,0.000,0.000,0.000,-0.008,0.695,0.004,0.719,0.0000000,0.0000000,0.000,0.000,0.000,0.000,0,00:00:00,0,0.000,0.000,0.000,0.000,0.000,0.000,0.000,0.000,0.000,0.000,0.000,0.000,0.000,0.000
13.752,0,0,-2.026,0.195,-431.957,-2.366,0.276,677.694,-0.708,0.020,-9.668,0.000,0.000,0.0103675,0.000,7500.000,1.842,2.011,1013.209,15.051,0.342,0.296,-9.686,-0.155,0.354,-0.016,-0.013,0.018,0.000,0.000,0.000,-0.010,0.694,0.003,0.720,0.0000000,0.0000000,0.000,0.000,0.000,0.000,0,00:00:00,0,0.000,0.000,0.000,0.000,0.000,0.000,0.000,0.000,0.000,0.000,0.000,0.000,0.000,0.000
13.853,0,0,-2.083,0.206,-314.082,-2.382,0.290,715.577,-1.032,0.220,-9.821,0.000,0.000,0.0103675,0.000,7500.000,1.995,2.090,1013.269,15.049,-0.162,-0.266,-9.861,0.024,0.570,-0.018,0.003,0.000,0.000,0.000,0.000,-0.008,0.690,0.006,0.723,0.0000000,0.0000000,0.000,0.000,0.000,0.000,0,00:00:00,0,0.000,0.000,0.000,0.000,0.000,0.000,0.000,0.000,0.000,0.000,0.000,0.000,0.000,0.000
13.954,0,0,-2.134,0.217,-208.608,-2.368,0.309,740.612,-0.784,0.280,-9.740,0.000,0.000,0.0103675,0.000,7500.000,2.107,2.689,1013.275,15.048,-0.210,-0.252,-9.768,0.068,0.373,-0.015,0.009,0.001,0.000,0.000,0.000,-0.007,0.692,0.008,0.722,0.0000000,0.0000000,0.000,0.000,0.000,0.000,0,00:00:00,0,0.000,0.000,0.000,0.000,0.000,0.000,0.000,0.000,0.000,0.000,0.000,0.000,0.000,0.000
14.055,0,0,-2.175,0.228,-115.311,-2.288,0.315,754.055,-0.184,0.164,-9.895,0.000,0.000,0.0103675,0.000,7500.000,2.180,2.412,1013.276,15.049,-0.214,-0.216,-9.899,-0.015,-0.018,0.036,-0.006,0.025,0.000,0.000,0.000,-0.006,0.700,0.007,0.714,0.0000000,0.0000000,0.000,0.000,0.000,0.000,0,00:00:00,0,0.000,0.000,0.000,0.000,0.000,0.000,0.000,0.000,0.000,0.000,0.000,0.000,0.000,0.000
14.156,0,0,-2.204,0.239,-33.711,-2.234,0.333,757.335,-0.481,0.287,-9.628,0.000,0.000,0.0103675,0.000,7500.000,2.220,1.169,1013.240,15.050,0.085,0.100,-9.640,0.129,0.265,0.019,0.025,0.016,0.000,0.000,0.000,-0.003,0.699,0.009,0.715,0.0000000,0.0000000,0.000,0.000,0.000,0.000,0,00:00:00,0,0.000,0.000,0.000,0.000,0.000,0.000,0.000,0.000,0.000,0.000,0.000,0.000,0.000,0.000
14.257,0,0,-2.222,0.250,36.678,-2.169,0.328,751.672,-0.396,0.072,-9.892,0.000,0.000,0.0103675,0.000,7500.000,2.229,1.299,1013.303,15.051,-0.442,-0.384,-9.898,-0.096,0.193,-0.007,0.010,0.024,0.000,0.000,0.000,-0.006,0.700,0.006,0.714,0.0000000,0.0000000,0.000,0.000,0.000,0.000,0,00:00:00,0,0.000,0.000,0.000,0.000,0.000,0.000,0.000,0.000,0.000,0.000,0.000,0.000,0.000,0.000
14.358,0,0,-2.231,0.259,96.709,-2.109,0.337,738.541,-0.491,0.212,-9.779,0.000,0.000,0.0103675,0.000,7500.000,2.213,1.179,1013.241,15.051,0.075,0.114,-9.790,0.049,0.261,0.004,0.001,0.028,0.000,0.000,0.000,-0.004,0.699,0.007,0.715,0.0000000,0.0000000,0.000,0.000,0.000,0.000,0,00:00:00,0,0.000,0.000,0.000,0.000,0.000,0.000,0.000,0.000,0.000,0.000,0.000,0.000,0.000,0.000
14.459,0,0,-2.232,0.268,147.097,-2.055,0.335,719.101,-0.565,0.114,-9.971,0.000,0.000,0.0103675,0.000,7500.000,2.174,1.352,1013.237,15.053,0.106,0.190,-9.983,-0.064,0.285,-0.013,-0.040,0.008,0.000,0.000,0.000,-0.006,0.697,0.006,0.717,0.0000000,0.0000000,0.000,0.000,0.000,0.000,0,00:00:00,0,0.000,0.000,0.000,0.000,0.000,0.000,0.000,0.000,0.000,0.000,0.000,0.000,0.000,0.000
14.560,0,0,-2.225,0.276,188.641,-2.004,0.347,694.533,-0.605,0.252,-9.770,0.000,0.000,0.0103675,0.000,7500.000,2.117,1.608,1013.236,15.048,0.117,0.190,-9.787,0.080,0.309,0.003,-0.012,-0.004,0.000,0.000,0.000,-0.005,0.696,0.008,0.718,0.0000000,0.0000000,0.000,0.000,0.000,0.000,0,00:00:00,0,0.000,0.000,0.000,0.000,0.000,0.000,0.000,0.000,0.000,0.000,0.000,0.000,0.000,0.000
14.661,0,0,-2.212,0.285,222.162,-1.953,0.365,665.869,-0.620,0.328,-9.699,0.000,0.000,0.0103675,0.000,7500.000,2.045,1.743,1013.224,15.049,0.218,0.242,-9.718,0.149,0.319,-0.006,0.004,-0.003,0.000,0.000,0.000,-0.003,0.696,0.010,0.718,0.0000000,0.0000000,0.000,0.000,0.000,0.000,0,00:00:00,0,0.000,0.000,0.000,0.000,0.000,0.000,0.000,0.000,0.000,0.000,0.000,0.000,0.000,0.000
14.762,0,0,-2.193,0.293,248.356,-1.894,0.359,633.946,-0.546,0.092,-9.782,0.000,0.000,0.0103675,0.000,7500.000,1.960,1.798,1013.302,15.050,-0.429,-0.427,-9.794,-0.089,0.266,-0.004,0.011,0.007,0.000,0.000,0.000,-0.006,0.697,0.007,0.717,0.0000000,0.0000000,0.000,0.000,0.000,0.000,0,00:00:00,0,0.000,0.000,0.000,0.000,0.000,0.000,0.000,0.000,0.000,0.000,0.000,0.000,0.000,0.000
14.863,0,0,-2.168,0.299,268.156,-1.836,0.346,599.712,-0.560,0.025,-9.939,0.000,0.000,0.0103675,0.000,7500.000,1.866,1.644,1013.250,15.052,-0.001,0.058,-9.951,-0.128,0.274,0.030,-0.013,-0.008,0.000,0.000,0.000,-0.008,0.697,0.003,0.717,0.0000000,0.0000000,0.000,0.000,0.000,0.000,0,00:00:00,0,0.000,0.000,0.000,0.000,0.000,0.000,0.000,0.000,0.000,0.000,0.000,0.000,0.000,0.000
14.964,0,0,-2.138,0.303,282.253,-1.780,0.338,563.902,-0.569,0.084,-9.643,0.000,0.000,0.0103675,0.000,7500.000,1.765,1.648,1013.218,15.048,0.265,0.317,-9.655,-0.058,0.291,0.006,0.012,0.014,0.000,0.000,0.000,-0.007,0.697,0.003,0.717,0.0000000,0.0000000,0.000,0.000,0.000,0.000,0,00:00:00,0,0.000,0.000,0.000,0.000,0.000,0.000,0.000,0.000,0.000,0.000,0.000,0.000,0.000,0.000
15.065,0,0,-2.105,0.307,291.255,-1.737,0.350,527.044,-0.688,0.275,-9.719,0.000,0.000,0.0103675,0.000,7500.000,1.660,1.653,1013.248,15.051,0.015,0.072,-9.739,0.113,0.365,-0.016,-0.002,-0.006,0.000,0.000,0.000,-0.005,0.695,0.007,0.719,0.0000000,0.0000000,0.000,0.000,0.000,0.000,0,00:00:00,0,0.000,0.000,0.000,0.000,0.000,0.000,0.000,0.000,0.000,0.000,0.000,0.000,0.000,0.000
15.166,0,0,-2.071,0.312,295.824,-1.721,0.362,489.692,-0.951,0.290,-9.915,0.000,0.000,0.0103675,0.000,7500.000,1.552,1.906,1013.249,15.050,0.012,0.020,-9.950,0.114,0.520,-0.010,-0.015,-0.019,0.000,0.000,0.000,-0.004,0.692,0.008,0.722,0.0000000,0.0000000,0.000,0.000,0.000,0.000,0,00:00:00,0,0.000,0.000,0.000,0.000,0.000,0.000,0.000,0.000,0.000,0.000,0.000,0.000,0.000,0.000
15.267,0,0,-2.037,0.316,296.570,-1.684,0.357,452.357,-0.725,0.120,-9.774,0.000,0.000,0.0103675,0.000,7500.000,1.442,2.493,1013.241,15.047,0.075,0.117,-9.795,-0.083,0.336,-0.033,-0.015,-0.001,0.000,0.000,0.000,-0.008,0.693,0.007,0.721,0.0000000,0.0000000,0.000,0.000,0.000,0.000,0,00:00:00,0,0.000,0.000,0.000,0.000,0.000,0.000,0.000,0.000,0.000,0.000,0.000,0.000,0.000,0.000
15.368,0,0,-2.000,0.320,293.968,-1.639,0.366,415.365,-0.629,0.263,-9.817,0.000,0.000,0.0103675,0.000,7500.000,1.332,2.273,1013.281,15.049,-0.255,-0.229,-9.836,0.063,0.296,0.005,0.018,0.009,0.000,0.000,0.000,-0.006,0.695,0.008,0.719,0.0000000,0.0000000,0.000,0.000,0.000,0.000,0,00:00:00,0,0.000,0.000,0.000,0.000,0.000,0.000,0.000,0.000,0.000,0.000,0.000,0.000,0.000,0.000
15.469,0,0,-1.963,0.324,288.616,-1.605,0.372,379.146,-0.722,0.229,-9.645,0.000,0.000,0.0103675,0.000,7500.000,1.223,1.946,1013.237,15.052,0.111,0.119,-9.668,0.077,0.368,0.047,-0.017,-0.006,0.000,0.000,0.000,-0.004,0.694,0.007,0.720,0.0000000,0.0000000,0.000,0.000,0.000,0.000,0,00:00:00,0,0.000,0.000,0.000,0.000,0.000,0.000,0.000,0.000,0.000,0.000,0.000,0.000,0.000,0.000
15.570,0,0,-1.925,0.328,280.912,-1.575,0.372,343.913,-0.736,0.184,-9.645,0.000,0.000,0.0103675,0.000,7500.000,1.116,2.111,1013.237,15.052,0.111,0.107,-9.668,0.077,0.368,0.047,-0.017,-0.006,0.000,0.000,0.000,-0.001,0.693,0.006,0.720,0.0000000,0.0000000,0.000,0.000,0.000,0.000,0,00:00:00,0,0.000,0.000,0.000,0.000,0.000,0.000,0.000,0.000,0.000,0.000,0.000,0.000,0.000,0.000
15.671,0,0,-1.887,0.331,271.266,-1.534,0.377,309.879,-0.617,0.227,-9.778,0.000,0.000,0.0103675,0.000,7500.000,1.012,2.193,1013.238,15.050,0.102,0.110,-9.795,0.111,0.286,-0.004,-0.008,0.046,0.000,0.000,0.000,0.000,0.695,0.008,0.719,0.0000000,0.0000000,0.000,0.000,0.000,0.000,0,00:00:00,0,0.000,0.000,0.000,0.000,0.000,0.000,0.000,0.000,0.000,0.000,0.000,0.000,0.000,0.000
15.772,0,0,-1.848,0.335,260.060,-1.494,0.383,277.246,-0.596,0.233,-9.779,0.000,0.000,0.0103675,0.000,7500.000,0.912,1.955,1013.238,15.050,0.102,0.188,-9.795,0.111,0.286,-0.004,-0.008,0.046,0.000,0.000,0.000,0.001,0.696,0.009,0.718,0.0000000,0.0000000,0.000,0.000,0.000,0.000,0,00:00:00,0,0.000,0.000,0.000,0.000,0.000,0.000,0.000,0.000,0.000,0.000,0.000,0.000,0.000,0.000
15.873,0,0,-1.810,0.338,247.581,-1.468,0.362,246.134,-0.720,-0.017,-9.630,0.000,0.000,0.0103675,0.000,7500.000,0.816,1.836,1013.268,15.052,-0.151,-0.082,-9.649,-0.127,0.362,0.004,-0.046,-0.030,0.000,0.000,0.000,-0.004,0.694,0.004,0.720,0.0000000,0.0000000,0.000,0.000,0.000,0.000,0,00:00:00,0,0.000,0.000,0.000,0.000,0.000,0.000,0.000,0.000,0.000,0.000,0.000,0.000,0.000,0.000
15.974,0,0,-1.773,0.338,234.162,-1.457,0.339,216.639,-0.846,-0.051,-9.847,0.000,0.000,0.0103675,0.000,7500.000,0.725,2.126,1013.269,15.051,-0.162,-0.140,-9.872,-0.162,0.439,-0.002,-0.010,0.001,0.000,0.000,0.000,-0.007,0.692,0.001,0.722,0.0000000,0.0000000,0.000,0.000,0.000,0.000,0,00:00:00,0,0.000,0.000,0.000,0.000,0.000,0.000,0.000,0.000,0.000,0.000,0.000,0.000,0.000,0.000
16.075,0,0,-1.738,0.337,220.108,-1.433,0.341,188.887,-0.700,0.205,-9.846,0.000,0.000,0.0103675,0.000,7500.000,0.638,2.365,1013.240,15.051,0.081,0.080,-9.867,0.084,0.325,-0.008,-0.018,-0.025,0.000,0.000,0.000,-0.005,0.694,0.004,0.720,0.0000000,0.0000000,0.000,0.000,0.000,0.000,0,00:00:00,0,0.000,0.000,0.000,0.000,0.000,0.000,0.000,0.000,0.000,0.000,0.000,0.000,0.000,0.000
16.176,0,0,-1.703,0.337,205.605,-1.403,0.345,162.896,-0.623,0.216,-9.731,0.000,0.000,0.0103675,0.000,7500.000,0.556,2.178,1013.259,15.050,-0.077,-0.070,-9.748,0.089,0.294,-0.005,0.006,0.010,0.000,0.000,0.000,-0.003,0.695,0.006,0.719,0.0000000,0.0000000,0.000,0.000,0.000,0.000,0,00:00:00,0,0.000,0.000,0.000,0.000,0.000,0.000,0.000,0.000,0.000,0.000,0.000,0.000,0.000,0.000
16.277,0,0,-1.669,0.336,190.936,-1.368,0.340,138.736,-0.547,0.138,-9.707,0.000,0.000,0.0103675,0.000,7500.000,0.480,1.938,1013.210,15.050,0.334,0.289,-9.720,0.026,0.256,0.015,0.001,0.009,0.000,0.000,0.000,-0.003,0.696,0.005,0.718,0.0000000,0.0000000,0.000,0.000,0.000,0.000,0,00:00:00,0,0.000,0.000,0.000,0.000,0.000,0.000,0.000,0.000,0.000,0.000,0.000,0.000,0.000,0.000
16.378,0,0,-1.635,0.336,176.188,-1.351,0.342,116.332,-0.713,0.199,-9.712,0.000,0.000,0.0103675,0.000,7500.000,0.408,1.721,1013.250,15.050,0.003,-0.010,-9.733,0.082,0.374,-0.005,-0.014,-0.004,0.000,0.000,0.000,-0.002,0.695,0.006,0.719,0.0000000,0.0000000,0.000,0.000,0.000,0.000,0,00:00:00,0,0.000,0.000,0.000,0.000,0.000,0.000,0.000,0.000,0.000,0.000,0.000,0.000,0.000,0.000
16.479,0,0,-1.604,0.335,161.508,-1.343,0.340,95.654,-0.777,0.153,-9.798,0.000,0.000,0.0103675,0.000,7500.000,0.342,2.002,1013.297,15.049,-0.393,-0.406,-9.821,0.032,0.402,-0.004,-0.007,-0.001,0.000,0.000,0.000,-0.003,0.693,0.006,0.720,0.0000000,0.0000000,0.000,0.000,0.000,0.000,0,00:00:00,0,0.000,0.000,0.000,0.000,0.000,0.000,0.000,0.000,0.000,0.000,0.000,0.000,0.000,0.000
16.580,0,0,-1.575,0.334,147.091,-1.338,0.338,76.728,-0.793,0.157,-9.796,0.000,0.000,0.0103675,0.000,7500.000,0.282,2.193,1013.297,15.049,-0.393,-0.405,-9.821,0.032,0.402,-0.004,-0.007,-0.001,0.000,0.000,0.000,-0.003,0.693,0.006,0.721,0.0000000,0.0000000,0.000,0.000,0.000,0.000,0,00:00:00,0,0.000,0.000,0.000,0.000,0.000,0.000,0.000,0.000,0.000,0.000,0.000,0.000,0.000,0.000
16.681,0,0,-1.548,0.334,133.090,-1.324,0.345,59.544,-0.683,0.249,-9.724,0.000,0.000,0.0103675,0.000,7500.000,0.226,2.289,1013.265,15.050,-0.124,-0.125,-9.746,0.107,0.312,-0.017,-0.045,0.010,0.000,0.000,0.000,-0.002,0.693,0.008,0.720,0.0000000,0.0000000,0.000,0.000,0.000,0.000,0,00:00:00,0,0.000,0.000,0.000,0.000,0.000,0.000,0.000,0.000,0.000,0.000,0.000,0.000,0.000,0.000
16.782,0,0,-1.522,0.334,119.551,-1.310,0.354,43.997,-0.674,0.267,-9.725,0.000,0.000,0.0103675,0.000,7500.000,0.175,2.190,1013.265,15.050,-0.124,-0.178,-9.746,0.107,0.312,-0.017,-0.045,0.010,0.000,0.000,0.000,-0.002,0.694,0.009,0.720,0.0000000,0.0000000,0.000,0.000,0.000,0.000,0,00:00:00,0,0.000,0.000,0.000,0.000,0.000,0.000,0.000,0.000,0.000,0.000,0.000,0.000,0.000,0.000
16.883,0,0,-1.497,0.335,106.591,-1.289,0.353,30.046,-0.588,0.175,-9.817,0.000,0.000,0.0103675,0.000,7500.000,0.130,2.142,1013.237,15.048,0.105,0.066,-9.832,-0.010,0.283,-0.027,0.039,-0.002,0.000,0.000,0.000,-0.005,0.696,0.008,0.718,0.0000000,0.0000000,0.000,0.000,0.000,0.000,0,00:00:00,0,0.000,0.000,0.000,0.000,0.000,0.000,0.000,0.000,0.000,0.000,0.000,0.000,0.000,0.000
16.984,0,0,-1.472,0.336,94.248,-1.270,0.360,17.611,-0.592,0.241,-9.755,0.000,0.000,0.0103675,0.000,7500.000,0.089,1.784,1013.232,15.050,0.151,0.155,-9.772,0.049,0.288,-0.007,-0.018,0.024,0.000,0.000,0.000,-0.005,0.696,0.009,0.718,0.0000000,0.0000000,0.000,0.000,0.000,0.000,0,00:00:00,0,0.000,0.000,0.000,0.000,0.000,0.000,0.000,0.000,0.000,0.000,0.000,0.000,0.000,0.000
17.085,0,0,-1.450,0.337,82.539,-1.293,0.366,6.574,-1.001,0.239,-9.898,0.000,0.000,0.0103675,0.000,7500.000,0.052,1.790,1013.243,15.051,0.060,0.057,-9.935,0.022,0.568,-0.023,0.009,-0.022,0.000,0.000,0.000,-0.006,0.691,0.009,0.722,0.0000000,0.0000000,0.000,0.000,0.000,0.000,0,00:00:00,0,0.000,0.000,0.000,0.000,0.000,0.000,0.000,0.000,0.000,0.000,0.000,0.000,0.000,0.000
17.186,0,0,-1.431,0.339,71.529,-1.278,0.358,-3.089,-0.611,0.105,-9.688,0.000,0.000,0.0103675,0.000,7500.000,0.020,2.506,1013.230,15.049,0.169,0.175,-9.703,-0.104,0.268,-0.001,0.006,-0.027,0.000,0.000,0.000,-0.009,0.694,0.006,0.719,0.0000000,0.0000000,0.000,0.000,0.000,0.000,0,00:00:00,0,0.000,0.000,0.000,0.000,0.000,0.000,0.000,0.000,0.000,0.000,0.000,0.000,0.000,0.000
17.287,0,0,-1.413,0.339,61.230,-1.276,0.343,-11.504,-0.723,0.026,-9.815,0.000,0.000,0.0103675,0.000,7500.000,0.010,2.025,1013.219,15.049,0.262,0.242,-9.833,-0.164,0.373,0.019,0.021,-0.010,0.000,0.000,0.000,-0.011,0.694,0.003,0.720,0.0000000,0.0000000,0.000,0.000,0.000,0.000,0,00:00:00,0,0.000,0.000,0.000,0.000,0.000,0.000,0.000,0.000,0.000,0.000,0.000,0.000,0.000,0.000
17.388,0,0,-1.395,0.338,51.582,-1.245,0.344,-18.776,-0.432,0.187,-9.578,0.000,0.000,0.0103675,0.000,7500.000,0.034,2.037,1013.269,15.050,-0.156,-0.202,-9.588,-0.008,0.179,-0.006,0.016,-0.008,0.000,0.000,0.000,-0.009,0.698,0.005,0.716,0.0000000,0.0000000,0.000,0.000,0.000,0.000,0,00:00:00,0,0.000,0.000,0.000,0.000,0.000,0.000,0.000,0.000,0.000,0.000,0.000,0.000,0.000,0.000
17.489,0,0,-1.378,0.338,42.735,-1.249,0.357,-24.927,-0.761,0.310,-9.864,0.000,0.000,0.0103675,0.000,7500.000,0.055,1.507,1013.204,15.051,0.386,0.391,-9.888,0.118,0.431,0.009,0.030,-0.029,0.000,0.000,0.000,-0.006,0.695,0.007,0.719,0.0000000,0.0000000,0.000,0.000,0.000,0.000,0,00:00:00,0,0.000,0.000,0.000,0.000,0.000,0.000,0.000,0.000,0.000,0.000,0.000,0.000,0.000,0.000
17.590,0,0,-1.361,0.340,34.566,-1.228,0.366,-30.106,-0.515,0.274,-9.833,0.000,0.000,0.0103675,0.000,7500.000,0.073,1.916,1013.234,15.050,0.137,0.193,-9.847,0.076,0.232,-0.006,-0.006,-0.011,0.000,0.000,0.000,-0.006,0.697,0.009,0.717,0.0000000,0.0000000,0.000,0.000,0.000,0.000,0,00:00:00,0,0.000,0.000,0.000,0.000,0.000,0.000,0.000,0.000,0.000,0.000,0.000,0.000,0.000,0.000
17.691,0,0,-1.347,0.341,27.127,-1.262,0.359,-34.342,-1.048,0.108,-9.773,0.000,0.000,0.0103675,0.000,7500.000,0.089,1.651,1013.206,15.051,0.366,0.444,-9.811,-0.121,0.602,-0.035,-0.010,0.018,0.000,0.000,0.000,-0.009,0.691,0.007,0.723,0.0000000,0.0000000,0.000,0.000,0.000,0.000,0,00:00:00,0,0.000,0.000,0.000,0.000,0.000,0.000,0.000,0.000,0.000,0.000,0.000,0.000,0.000,0.000
17.792,0,0,-1.336,0.341,20.263,-1.275,0.354,-37.832,-0.826,0.132,-9.801,0.000,0.000,0.0103675,0.000,7500.000,0.101,2.608,1013.294,15.051,-0.370,-0.270,-9.828,-0.077,0.414,0.021,0.038,0.006,0.000,0.000,0.000,-0.009,0.692,0.006,0.722,0.0000000,0.0000000,0.000,0.000,0.000,0.000,0,00:00:00,0,0.000,0.000,0.000,0.000,0.000,0.000,0.000,0.000,0.000,0.000,0.000,0.000,0.000,0.000
17.893,0,0,-1.328,0.341,14.053,-1.286,0.348,-40.570,-0.808,0.112,-9.803,0.000,0.000,0.0103675,0.000,7500.000,0.111,2.400,1013.294,15.051,-0.370,-0.295,-9.828,-0.077,0.414,0.021,0.038,0.006,0.000,0.000,0.000,-0.009,0.693,0.005,0.721,0.0000000,0.0000000,0.000,0.000,0.000,0.000,0,00:00:00,0,0.000,0.000,0.000,0.000,0.000,0.000,0.000,0.000,0.000,0.000,0.000,0.000,0.000,0.000
17.994,0,0,-1.321,0.340,8.502,-1.298,0.334,-42.606,-0.820,0.048,-9.772,0.000,0.000,0.0103675,0.000,7500.000,0.119,2.296,1013.269,15.049,-0.156,-0.112,-9.796,-0.139,0.412,-0.001,-0.011,-0.010,0.000,0.000,0.000,-0.011,0.692,0.003,0.722,0.0000000,0.0000000,0.000,0.000,0.000,0.000,0,00:00:00,0,0.000,0.000,0.000,0.000,0.000,0.000,0.000,0.000,0.000,0.000,0.000,0.000,0.000,0.000
18.095,0,0,-1.316,0.340,3.630,-1.302,0.357,-43.978,-0.725,0.406,-9.750,0.000,0.000,0.0103675,0.000,7500.000,0.125,2.384,1013.202,15.051,0.397,0.442,-9.777,0.175,0.350,-0.041,0.003,-0.016,0.000,0.000,0.000,-0.007,0.693,0.009,0.721,0.0000000,0.0000000,0.000,0.000,0.000,0.000,0,00:00:00,0,0.000,0.000,0.000,0.000,0.000,0.000,0.000,0.000,0.000,0.000,0.000,0.000,0.000,0.000
18.196,0,0,-1.311,0.342,-0.683,-1.303,0.384,-44.829,-0.707,0.448,-9.749,0.000,0.000,0.0103675,0.000,7500.000,0.130,2.208,1013.202,15.051,0.397,0.418,-9.777,0.175,0.350,-0.041,0.003,-0.016,0.000,0.000,0.000,-0.006,0.694,0.013,0.720,0.0000000,0.0000000,0.000,0.000,0.000,0.000,0,00:00:00,0,0.000,0.000,0.000,0.000,0.000,0.000,0.000,0.000,0.000,0.000,0.000,0.000,0.000,0.000
18.297,0,0,-1.308,0.345,-4.545,-1.312,0.384,-45.289,-0.776,0.182,-9.849,0.000,0.000,0.0103675,0.000,7500.000,0.132,2.121,1013.272,15.049,-0.186,-0.157,-9.873,-0.111,0.391,-0.022,-0.014,-0.002,0.000,0.000,0.000,-0.011,0.693,0.010,0.721,0.0000000,0.0000000,0.000,0.000,0.000,0.000,0,00:00:00,0,0.000,0.000,0.000,0.000,0.000,0.000,0.000,0.000,0.000,0.000,0.000,0.000,0.000,0.000
18.398,0,0,-1.306,0.349,-7.901,-1.324,0.408,-45.329,-0.800,0.417,-9.778,0.000,0.000,0.0103675,0.000,7500.000,0.133,2.236,1013.269,15.051,-0.162,-0.118,-9.810,0.126,0.407,0.002,-0.000,-0.014,0.000,0.000,0.000,-0.008,0.693,0.012,0.721,0.0000000,0.0000000,0.000,0.000,0.000,0.000,0,00:00:00,0,0.000,0.000,0.000,0.000,0.000,0.000,0.000,0.000,0.000,0.000,0.000,0.000,0.000,0.000
18.499,0,0,-1.304,0.355,-10.787,-1.319,0.435,-45.009,-0.633,0.456,-9.716,0.000,0.000,0.0103675,0.000,7500.000,0.134,2.308,1013.258,15.050,-0.067,-0.100,-9.741,0.163,0.297,-0.002,0.005,0.003,0.000,0.000,0.000,-0.006,0.695,0.015,0.719,0.0000000,0.0000000,0.000,0.000,0.000,0.000,0,00:00:00,0,0.000,0.000,0.000,0.000,0.000,0.000,0.000,0.000,0.000,0.000,0.000,0.000,0.000,0.000
18.600,0,0,-1.302,0.362,-13.259,-1.322,0.451,-44.415,-0.719,0.343,-9.834,0.000,0.000,0.0103675,0.000,7500.000,0.133,2.012,1013.267,15.050,-0.142,-0.228,-9.859,0.045,0.373,-0.002,0.020,0.010,0.000,0.000,0.000,-0.007,0.694,0.014,0.719,0.0000000,0.0000000,0.000,0.000,0.000,0.000,0,00:00:00,0,0.000,0.000,0.000,0.000,0.000,0.000,0.000,0.000,0.000,0.000,0.000,0.000,0.000,0.000
18.701,0,0,-1.301,0.369,-15.347,-1.323,0.451,-43.570,-0.690,0.196,-9.733,0.000,0.000,0.0103675,0.000,7500.000,0.131,2.031,1013.274,15.050,-0.197,-0.332,-9.753,-0.107,0.348,-0.013,0.010,-0.016,0.000,0.000,0.000,-0.012,0.694,0.010,0.719,0.0000000,0.0000000,0.000,0.000,0.000,0.000,0,00:00:00,0,0.000,0.000,0.000,0.000,0.000,0.000,0.000,0.000,0.000,0.000,0.000,0.000,0.000,0.000
18.802,0,0,-1.300,0.377,-17.016,-1.331,0.468,-42.474,-0.759,0.365,-9.725,0.000,0.000,0.0103675,0.000,7500.000,0.128,2.011,1013.231,15.051,0.156,0.045,-9.753,0.065,0.381,0.005,-0.036,0.012,0.000,0.000,0.000,-0.010,0.693,0.012,0.721,0.0000000,0.0000000,0.000,0.000,0.000,0.000,0,00:00:00,0,0.000,0.000,0.000,0.000,0.000,0.000,0.000,0.000,0.000,0.000,0.000,0.000,0.000,0.000
18.903,0,0,-1.300,0.384,-18.440,-1.332,0.469,-41.268,-0.701,0.219,-9.622,0.000,0.000,0.0103675,0.000,7500.000,0.125,2.228,1013.309,15.053,-0.489,-0.552,-9.644,-0.075,0.347,0.002,0.012,0.017,0.000,0.000,0.000,-0.011,0.694,0.010,0.720,0.0000000,0.0000000,0.000,0.000,0.000,0.000,0,00:00:00,0,0.000,0.000,0.000,0.000,0.000,0.000,0.000,0.000,0.000,0.000,0.000,0.000,0.000,0.000
19.004,0,0,-1.300,0.391,-19.485,-1.332,0.476,-39.896,-0.677,0.275,-9.892,0.000,0.000,0.0103675,0.000,7500.000,0.122,2.108,1013.248,15.050,0.017,-0.015,-9.914,0.001,0.313,0.029,-0.050,-0.007,0.000,0.000,0.000,-0.010,0.694,0.010,0.720,0.0000000,0.0000000,0.000,0.000,0.000,0.000,0,00:00:00,0,0.000,0.000,0.000,0.000,0.000,0.000,0.000,0.000,0.000,0.000,0.000,0.000,0.000,0.000
19.105,0,0,-1.299,0.399,-20.269,-1.315,0.489,-38.418,-0.518,0.332,-9.748,0.000,0.000,0.0103675,0.000,7500.000,0.118,2.102,1013.248,15.049,0.016,-0.051,-9.764,0.064,0.228,0.001,0.005,-0.020,0.000,0.000,0.000,-0.009,0.696,0.010,0.717,0.0000000,0.0000000,0.000,0.000,0.000,0.000,0,00:00:00,0,0.000,0.000,0.000,0.000,0.000,0.000,0.000,0.000,0.000,0.000,0.000,0.000,0.000,0.000
19.206,0,0,-1.297,0.406,-20.798,-1.301,0.497,-36.855,-0.542,0.300,-9.680,0.000,0.000,0.0103675,0.000,7500.000,0.113,1.707,1013.231,15.051,0.155,0.066,-9.696,0.025,0.267,-0.007,0.002,0.021,0.000,0.000,0.000,-0.009,0.697,0.011,0.717,0.0000000,0.0000000,0.000,0.000,0.000,0.000,0,00:00:00,0,0.000,0.000,0.000,0.000,0.000,0.000,0.000,0.000,0.000,0.000,0.000,0.000,0.000,0.000
19.307,0,0,-1.294,0.415,-21.115,-1.289,0.515,-35.254,-0.561,0.396,-9.703,0.000,0.000,0.0103675,0.000,7500.000,0.109,1.636,1013.235,15.050,0.124,0.080,-9.722,0.096,0.291,-0.025,0.025,-0.001,0.000,0.000,0.000,-0.008,0.697,0.013,0.717,0.0000000,0.0000000,0.000,0.000,0.000,0.000,0,00:00:00,0,0.000,0.000,0.000,0.000,0.000,0.000,0.000,0.000,0.000,0.000,0.000,0.000,0.000,0.000
19.408,0,0,-1.290,0.424,-21.210,-1.277,0.539,-33.608,-0.561,0.455,-9.701,0.000,0.000,0.0103675,0.000,7500.000,0.104,1.606,1013.202,15.052,0.396,0.352,-9.723,0.144,0.289,-0.009,0.004,0.028,0.000,0.000,0.000,-0.007,0.697,0.016,0.717,0.0000000,0.0000000,0.000,0.000,0.000,0.000,0,00:00:00,0,0.000,0.000,0.000,0.000,0.000,0.000,0.000,0.000,0.000,0.000,0.000,0.000,0.000,0.000
19.509,0,0,-1.286,0.434,-21.250,-1.281,0.555,-32.047,-0.710,0.386,-9.736,0.000,0.000,0.0103675,0.000,7500.000,0.099,1.641,1013.294,15.050,-0.366,-0.364,-9.761,0.087,0.387,0.017,0.009,0.022,0.000,0.000,0.000,-0.006,0.695,0.015,0.719,0.0000000,0.0000000,0.000,0.000,0.000,0.000,0,00:00:00,0,0.000,0.000,0.000,0.000,0.000,0.000,0.000,0.000,0.000,0.000,0.000,0.000,0.000,0.000
19.610,0,0,-1.282,0.445,-21.068,-1.277,0.572,-30.456,-0.636,0.399,-9.905,0.000,0.000,0.0103675,0.000,7500.000,0.094,1.928,1013.228,15.049,0.186,0.216,-9.928,0.089,0.316,-0.007,-0.001,0.006,0.000,0.000,0.000,-0.007,0.695,0.015,0.718,0.0000000,0.0000000,0.000,0.000,0.000,0.000,0,00:00:00,0,0.000,0.000,0.000,0.000,0.000,0.000,0.000,0.000,0.000,0.000,0.000,0.000,0.000,0.000
19.711,0,0,-1.279,0.456,-20.812,-1.278,0.588,-28.905,-0.679,0.405,-9.664,0.000,0.000,0.0103675,0.000,7500.000,0.090,1.877,1013.268,15.049,-0.147,-0.061,-9.690,0.113,0.353,0.011,0.008,-0.032,0.000,0.000,0.000,-0.007,0.695,0.014,0.719,0.0000000,0.0000000,0.000,0.000,0.000,0.000,0,00:00:00,0,0.000,0.000,0.000,0.000,0.000,0.000,0.000,0.000,0.000,0.000,0.000,0.000,0.000,0.000
19.812,0,0,-1.277,0.469,-20.431,-1.302,0.612,-27.406,-0.909,0.483,-9.943,0.000,0.000,0.0103675,0.000,7500.000,0.085,1.957,1013.239,15.051,0.095,0.128,-9.981,0.186,0.510,0.010,0.037,0.022,0.000,0.000,0.000,-0.005,0.693,0.016,0.721,0.0000000,0.0000000,0.000,0.000,0.000,0.000,0,00:00:00,0,0.000,0.000,0.000,0.000,0.000,0.000,0.000,0.000,0.000,0.000,0.000,0.000,0.000,0.000
19.913,0,0,-1.275,0.481,-19.961,-1.276,0.611,-25.941,-0.413,0.244,-9.813,0.000,0.000,0.0103675,0.000,7500.000,0.081,2.334,1013.230,15.049,0.165,0.209,-9.824,-0.019,0.146,0.021,0.009,0.007,0.000,0.000,0.000,-0.007,0.697,0.012,0.717,0.0000000,0.0000000,0.000,0.000,0.000,0.000,0,00:00:00,0,0.000,0.000,0.000,0.000,0.000,0.000,0.000,0.000,0.000,0.000,0.000,0.000,0.000,0.000
20.014,0,0,-1.274,0.491,-19.509,-1.304,0.608,-24.572,-0.946,0.222,-9.535,0.000,0.000,0.0103675,0.000,7500.000,0.076,1.568,1013.297,15.050,-0.389,-0.362,-9.570,-0.051,0.533,-0.017,-0.035,-0.004,0.000,0.000,0.000,-0.010,0.692,0.010,0.722,0.0000000,0.0000000,0.000,0.000,0.000,0.000,0,00:00:00,0,0.000,0.000,0.000,0.000,0.000,0.000,0.000,0.000,0.000,0.000,0.000,0.000,0.000,0.000
20.115,0,0,-1.273,0.501,-18.964,-1.293,0.610,-23.250,-0.564,0.290,-9.668,0.000,0.000,0.0103675,0.000,7500.000,0.072,2.478,1013.269,15.049,-0.160,-0.094,-9.686,0.003,0.234,-0.009,-0.010,0.043,0.000,0.000,0.000,-0.009,0.695,0.012,0.719,0.0000000,0.0000000,0.000,0.000,0.000,0.000,0,00:00:00,0,0.000,0.000,0.000,0.000,0.000,0.000,0.000,0.000,0.000,0.000,0.000,0.000,0.000,0.000
20.216,0,0,-1.271,0.510,-18.390,-1.284,0.615,-22.008,-0.573,0.315,-9.688,0.000,0.000,0.0103675,0.000,7500.000,0.069,1.959,1013.280,15.050,-0.246,-0.156,-9.706,0.033,0.270,0.007,-0.008,0.014,0.000,0.000,0.000,-0.009,0.696,0.012,0.718,0.0000000,0.0000000,0.000,0.000,0.000,0.000,0,00:00:00,0,0.000,0.000,0.000,0.000,0.000,0.000,0.000,0.000,0.000,0.000,0.000,0.000,0.000,0.000
20.317,0,0,-1.270,0.519,-17.749,-1.286,0.623,-20.821,-0.691,0.354,-9.804,0.000,0.000,0.0103675,0.000,7500.000,0.065,1.798,1013.241,15.049,0.073,0.131,-9.827,0.074,0.363,0.007,0.010,0.021,0.000,0.000,0.000,-0.007,0.695,0.012,0.719,0.0000000,0.0000000,0.000,0.000,0.000,0.000,0,00:00:00,0,0.000,0.000,0.000,0.000,0.000,0.000,0.000,0.000,0.000,0.000,0.000,0.000,0.000,0.000
20.418,0,0,-1.268,0.527,-17.102,-1.290,0.630,-19.720,-0.702,0.349,-9.803,0.000,0.000,0.0103675,0.000,7500.000,0.061,1.930,1013.241,15.049,0.073,0.075,-9.827,0.074,0.363,0.007,0.010,0.021,0.000,0.000,0.000,-0.007,0.695,0.013,0.719,0.0000000,0.0000000,0.000,0.000,0.000,0.000,0,00:00:00,0,0.000,0.000,0.000,0.000,0.000,0.000,0.000,0.000,0.000,0.000,0.000,0.000,0.000,0.000
20.519,0,0,-1.267,0.535,-16.465,-1.288,0.615,-18.708,-0.647,0.125,-9.794,0.000,0.000,0.0103675,0.000,7500.000,0.058,1.995,1013.258,15.050,-0.066,-0.033,-9.810,-0.125,0.312,0.021,-0.018,0.004,0.000,0.000,0.000,-0.010,0.695,0.008,0.719,0.0000000,0.0000000,0.000,0.000,0.000,0.000,0,00:00:00,0,0.000,0.000,0.000,0.000,0.000,0.000,0.000,0.000,0.000,0.000,0.000,0.000,0.000,0.000
20.620,0,0,-1.266,0.540,-15.835,-1.285,0.596,-17.777,-0.644,0.103,-9.794,0.000,0.000,0.0103675,0.000,7500.000,0.055,1.958,1013.258,15.050,-0.066,-0.066,-9.810,-0.125,0.312,0.021,-0.018,0.004,0.000,0.000,0.000,-0.011,0.695,0.006,0.719,0.0000000,0.0000000,0.000,0.000,0.000,0.000,0,00:00:00,0,0.000,0.000,0.000,0.000,0.000,0.000,0.000,0.000,0.000,0.000,0.000,0.000,0.000,0.000
20.721,0,0,-1.265,0.544,-15.163,-1.288,0.591,-16.887,-0.689,0.237,-9.813,0.000,0.000,0.0103675,0.000,7500.000,0.052,1.940,1013.215,15.049,0.288,0.283,-9.834,0.010,0.349,0.004,0.004,-0.008,0.000,0.000,0.000,-0.009,0.695,0.007,0.719,0.0000000,0.0000000,0.000,0.000,0.000,0.000,0,00:00:00,0,0.000,0.000,0.000,0.000,0.000,0.000,0.000,0.000,0.000,0.000,0.000,0.000,0.000,0.000
20.822,0,0,-1.265,0.547,-14.524,-1.299,0.586,-16.077,-0.774,0.229,-9.687,0.000,0.000,0.0103675,0.000,7500.000,0.050,1.975,1013.231,15.051,0.157,0.159,-9.712,0.005,0.408,0.001,0.009,0.009,0.000,0.000,0.000,-0.008,0.694,0.008,0.720,0.0000000,0.0000000,0.000,0.000,0.000,0.000,0,00:00:00,0,0.000,0.000,0.000,0.000,0.000,0.000,0.000,0.000,0.000,0.000,0.000,0.000,0.000,0.000
20.923,0,0,-1.266,0.549,-13.911,-1.314,0.579,-15.335,-0.813,0.223,-9.568,0.000,0.000,0.0103675,0.000,7500.000,0.048,2.163,1013.228,15.051,0.182,0.118,-9.595,-0.019,0.428,-0.022,0.019,0.002,0.000,0.000,0.000,-0.009,0.693,0.009,0.721,0.0000000,0.0000000,0.000,0.000,0.000,0.000,0,00:00:00,0,0.000,0.000,0.000,0.000,0.000,0.000,0.000,0.000,0.000,0.000,0.000,0.000,0.000,0.000
21.024,0,0,-1.267,0.550,-13.394,-1.312,0.579,-14.746,-0.646,0.285,-9.819,0.000,0.000,0.0103675,0.000,7500.000,0.045,2.303,1013.297,15.048,-0.391,-0.415,-9.839,0.001,0.303,-0.035,0.011,0.021,0.000,0.000,0.000,-0.010,0.695,0.010,0.719,0.0000000,0.0000000,0.000,0.000,0.000,0.000,0,00:00:00,0,0.000,0.000,0.000,0.000,0.000,0.000,0.000,0.000,0.000,0.000,0.000,0.000,0.000,0.000
21.125,0,0,-1.268,0.552,-12.896,-1.307,0.582,-14.216,-0.620,0.321,-9.819,0.000,0.000,0.0103675,0.000,7500.000,0.044,2.001,1013.297,15.048,-0.391,-0.397,-9.839,0.001,0.303,-0.035,0.011,0.021,0.000,0.000,0.000,-0.011,0.696,0.012,0.718,0.0000000,0.0000000,0.000,0.000,0.000,0.000,0,00:00:00,0,0.000,0.000,0.000,0.000,0.000,0.000,0.000,0.000,0.000,0.000,0.000,0.000,0.000,0.000
21.226,0,0,-1.269,0.553,-12.425,-1.312,0.586,-13.749,-0.715,0.331,-9.855,0.000,0.000,0.0103675,0.000,7500.000,0.042,1.850,1013.304,15.050,-0.452,-0.418,-9.880,-0.005,0.370,-0.017,-0.001,-0.016,0.000,0.000,0.000,-0.012,0.695,0.012,0.719,0.0000000,0.0000000,0.000,0.000,0.000,0.000,0,00:00:00,0,0.000,0.000,0.000,0.000,0.000,0.000,0.000,0.000,0.000,0.000,0.000,0.000,0.000,0.000
21.327,0,0,-1.270,0.555,-11.917,-1.324,0.588,-13.274,-0.787,0.319,-9.691,0.000,0.000,0.0103675,0.000,7500.000,0.041,2.002,1013.252,15.050,-0.017,0.022,-9.719,-0.024,0.409,-0.010,-0.010,0.042,0.000,0.000,0.000,-0.012,0.693,0.013,0.721,0.0000000,0.0000000,0.000,0.000,0.000,0.000,0,00:00:00,0,0.000,0.000,0.000,0.000,0.000,0.000,0.000,0.000,0.000,0.000,0.000,0.000,0.000,0.000
