State - Time (s),State - Stage,State - Stage,State - PX (m),State - PY (m),State - PZ (m),State - VX (m/s),State - VY (m/s),State - VZ (m/s),State - AX (m/s/s),State - AY (m/s/s),State - AZ (m/s/s),State - Actuation Angle (deg),State - Acutal Angle (deg),State - CdA,State - Est Apo (m),State - Target Apogee (m),State - Mach Number,State - Tilt [deg],MockBarometer - Pres (hPa),MockBarometer - Temp (C),MockBarometer - Alt ASL (m),MockBarometer - Alt AGL (m),MockIMU - AccX (m/s^2),MockIMU - AccY (m/s^2),MockIMU - AccZ (m/s^2),MockIMU - GyroX (rad/s),MockIMU - GyroY (rad/s),MockIMU - GyroZ (rad/s),MockIMU - MagX (uT),MockIMU - MagY (uT),MockIMU - MagZ (uT),MockIMU - OriX,MockIMU - OriY,MockIMU - OriZ,MockIMU - OriW,MockGPS - Lat,MockGPS - Lon,MockGPS - Alt (m),MockGPS - Disp X (m),MockGPS - Disp Y (m),MockGPS - Disp Z (m),MockGPS - Fix Quality,MockGPS - Time of Day,E5 - Rel Steps,BR - Battery Voltage (V),BR - ALT (m),BR - PRES (Pa),BR - TEMP (C),BR - VEL (m/s),BR - ANG (deg),BR - ACCX (m/s^2),BR - ACCY (m/s^2),BR - ACCZ (m/s^2),BR - GYROX (rad/s),BR - GYROY (rad/s),BR - GYROZ (rad/s),BR - ROLL (deg),BR - TILT (deg)
11.021,0,0,0.000,0.000,0.000,0.000,0.000,0.000,0.000,0.000,0.000,0.000,0.000,0.0103675,0.000,7500.000,0.000,0.000,0.000,0.000,44307.690,0.000,0.000,0.000,0.000,0.000,0.000,0.000,0.000,0.000,0.000,0.000,0.000,0.000,1.000,0.0000000,0.0000000,0.000,0.000,0.000,0.000,0,00:00:00,0,0.000,0.000,0.000,0.000,0.000,0.000,0.000,0.000,0.000,0.000,0.000,0.000,0.000,0.000
11.122,0,0,-0.000,0.000,-5473.795,-0.753,0.001,-993.995,-7.528,0.006,-6.549,0.000,0.000,0.0103675,0.000,7500.000,0.000,90.000,1013.271,15.051,-0.179,-5474.983,-9.968,0.064,0.452,0.036,-0.029,-0.018,0.000,0.000,0.000,0.004,0.371,-0.002,0.928,0.0000000,0.0000000,0.000,0.000,0.000,0.000,0,00:00:00,0,0.000,0.000,0.000,0.000,0.000,0.000,0.000,0.000,0.000,0.000,0.000,0.000,0.000,0.000
11.223,0,0,-0.048,-0.000,-4411.414,-1.191,-0.012,-786.965,-4.419,-0.121,-8.979,0.000,0.000,0.0103675,0.000,7500.000,2.926,46.381,1013.251,15.051,-0.007,-3289.868,-10.001,-0.075,0.358,-0.029,0.021,0.003,0.000,0.000,0.000,0.001,0.543,-0.002,0.839,0.0000000,0.0000000,0.000,0.000,0.000,0.000,0,00:00:00,0,0.000,0.000,0.000,0.000,0.000,0.000,0.000,0.000,0.000,0.000,0.000,0.000,0.000,0.000
11.324,0,0,-0.118,-0.001,-3754.937,-1.417,-0.024,-656.023,-2.350,-0.129,-9.500,0.000,0.000,0.0103675,0.000,7500.000,2.317,24.157,1013.268,15.049,-0.151,-2360.314,-9.785,-0.088,0.202,0.003,-0.015,0.005,0.000,0.000,0.000,-0.001,0.624,-0.003,0.781,0.0000000,0.0000000,0.000,0.000,0.000,0.000,0,00:00:00,0,0.000,0.000,0.000,0.000,0.000,0.000,0.000,0.000,0.000,0.000,0.000,0.000,0.000,0.000
11.425,0,0,-0.198,-0.003,-3299.098,-1.545,-0.037,-560.604,-1.391,-0.125,-9.687,0.000,0.000,0.0103675,0.000,7500.000,1.931,12.715,1013.268,15.049,-0.151,-1841.985,-9.785,-0.088,0.202,0.003,-0.015,0.005,0.000,0.000,0.000,-0.001,0.663,-0.004,0.749,0.0000000,0.0000000,0.000,0.000,0.000,0.000,0,00:00:00,0,0.000,0.000,0.000,0.000,0.000,0.000,0.000,0.000,0.000,0.000,0.000,0.000,0.000,0.000
11.526,0,0,-0.283,-0.006,-2958.815,-1.658,-0.047,-483.514,-1.250,-0.100,-9.702,0.000,0.000,0.0103675,0.000,7500.000,1.650,6.994,1013.268,15.050,-0.147,-1510.827,-9.772,-0.088,0.439,-0.022,0.004,0.024,0.000,0.000,0.000,-0.002,0.677,-0.003,0.736,0.0000000,0.0000000,0.000,0.000,0.000,0.000,0,00:00:00,0,0.000,0.000,0.000,0.000,0.000,0.000,0.000,0.000,0.000,0.000,0.000,0.000,0.000,0.000
11.627,0,0,-0.372,-0.008,-2691.285,-1.728,-0.033,-415.962,-0.839,0.129,-9.727,0.000,0.000,0.0103675,0.000,7500.000,1.423,4.770,1013.246,15.051,0.035,-1280.644,-9.759,0.123,0.291,-0.014,0.006,-0.012,0.000,0.000,0.000,0.001,0.687,0.001,0.727,0.0000000,0.0000000,0.000,0.000,0.000,0.000,0,00:00:00,0,0.000,0.000,0.000,0.000,0.000,0.000,0.000,0.000,0.000,0.000,0.000,0.000,0.000,0.000
11.728,0,0,-0.463,-0.010,-2472.205,-1.782,-0.040,-352.940,-0.686,-0.073,-9.758,0.000,0.000,0.0103675,0.000,7500.000,1.225,3.221,1013.265,15.049,-0.124,-1111.650,-9.778,-0.039,0.276,0.039,0.006,-0.008,0.000,0.000,0.000,0.001,0.692,-0.002,0.722,0.0000000,0.0000000,0.000,0.000,0.000,0.000,0,00:00:00,0,0.000,0.000,0.000,0.000,0.000,0.000,0.000,0.000,0.000,0.000,0.000,0.000,0.000,0.000
11.829,0,0,-0.555,-0.013,-2286.380,-1.821,-0.049,-291.403,-0.560,-0.093,-9.766,0.000,0.000,0.0103675,0.000,7500.000,1.039,2.402,1013.260,15.051,-0.080,-981.971,-9.779,-0.079,0.242,-0.020,0.016,0.022,0.000,0.000,0.000,-0.001,0.696,-0.002,0.719,0.0000000,0.0000000,0.000,0.000,0.000,0.000,0,00:00:00,0,0.000,0.000,0.000,0.000,0.000,0.000,0.000,0.000,0.000,0.000,0.000,0.000,0.000,0.000
11.930,0,0,-0.648,-0.015,-2123.753,-1.884,-0.042,-229.518,-0.808,0.065,-9.795,0.000,0.000,0.0103675,0.000,7500.000,0.858,1.866,1013.250,15.048,-0.003,-879.369,-9.818,0.088,0.438,0.011,0.017,-0.007,0.000,0.000,0.000,0.002,0.694,-0.000,0.720,0.0000000,0.0000000,0.000,0.000,0.000,0.000,0,00:00:00,0,0.000,0.000,0.000,0.000,0.000,0.000,0.000,0.000,0.000,0.000,0.000,0.000,0.000,0.000
12.031,0,0,-0.743,-0.017,-1987.830,-1.944,-0.052,-170.230,-0.787,-0.096,-9.718,0.000,0.000,0.0103675,0.000,7500.000,0.676,2.161,1013.282,15.052,-0.264,-879.630,-9.742,-0.086,0.399,-0.013,-0.011,0.033,0.000,0.000,0.000,-0.000,0.693,-0.001,0.721,0.0000000,0.0000000,0.000,0.000,0.000,0.000,0,00:00:00,0,0.000,0.000,0.000,0.000,0.000,0.000,0.000,0.000,0.000,0.000,0.000,0.000,0.000,0.000
12.132,0,0,-0.840,-0.021,-1870.049,-2.002,-0.059,-112.579,-0.798,-0.083,-9.718,0.000,0.000,0.0103675,0.000,7500.000,0.501,2.285,1013.282,15.052,-0.264,-879.630,-9.742,-0.086,0.399,-0.013,-0.011,0.033,0.000,0.000,0.000,-0.001,0.692,-0.001,0.721,0.0000000,0.0000000,0.000,0.000,0.000,0.000,0,00:00:00,0,0.000,0.000,0.000,0.000,0.000,0.000,0.000,0.000,0.000,0.000,0.000,0.000,0.000,0.000
12.233,0,0,-0.938,-0.025,-1764.800,-2.033,-0.089,-56.250,-0.556,-0.295,-9.743,0.000,0.000,0.0103675,0.000,7500.000,0.331,2.346,1013.229,15.051,0.173,-879.193,-9.755,-0.303,0.248,-0.010,0.022,-0.029,0.000,0.000,0.000,-0.007,0.696,-0.006,0.718,0.0000000,0.0000000,0.000,0.000,0.000,0.000,0,00:00:00,0,0.000,0.000,0.000,0.000,0.000,0.000,0.000,0.000,0.000,0.000,0.000,0.000,0.000,0.000
12.334,0,0,-1.035,-0.031,-1668.500,-2.080,-0.082,-1.445,-0.739,0.057,-9.918,0.000,0.000,0.0103675,0.000,7500.000,0.166,1.839,1013.246,15.049,0.030,-879.336,-9.938,0.017,0.391,-0.029,0.013,0.021,0.000,0.000,0.000,-0.004,0.695,-0.001,0.719,0.0000000,0.0000000,0.000,0.000,0.000,0.000,0,00:00:00,0,0.000,0.000,0.000,0.000,0.000,0.000,0.000,0.000,0.000,0.000,0.000,0.000,0.000,0.000
12.435,0,0,-1.134,-0.035,-1578.783,-2.134,-0.075,51.422,-0.836,0.060,-9.748,0.000,0.000,0.0103675,0.000,7500.000,0.007,2.006,1013.251,15.049,-0.011,-879.377,-9.774,-0.008,0.439,-0.031,-0.014,-0.022,0.000,0.000,0.000,-0.004,0.693,0.001,0.721,0.0000000,0.0000000,0.000,0.000,0.000,0.000,0,00:00:00,0,0.000,0.000,0.000,0.000,0.000,0.000,0.000,0.000,0.000,0.000,0.000,0.000,0.000,0.000
12.536,0,0,-1.231,-0.037,-1494.201,-2.157,-0.043,101.692,-0.573,0.305,-9.750,0.000,0.000,0.0103675,0.000,7500.000,0.152,2.330,1013.243,15.050,0.061,-879.305,-9.766,0.224,0.244,-0.008,-0.025,-0.001,0.000,0.000,0.000,0.000,0.695,0.006,0.719,0.0000000,0.0000000,0.000,0.000,0.000,0.000,0,00:00:00,0,0.000,0.000,0.000,0.000,0.000,0.000,0.000,0.000,0.000,0.000,0.000,0.000,0.000,0.000
12.637,0,0,-1.325,-0.038,-1414.007,-2.150,-0.047,148.609,-0.321,-0.044,-9.851,0.000,0.000,0.0103675,0.000,7500.000,0.299,1.951,1013.252,15.049,-0.017,-879.383,-9.855,-0.134,0.110,-0.012,0.023,-0.008,0.000,0.000,0.000,-0.004,0.699,0.002,0.715,0.0000000,0.0000000,0.000,0.000,0.000,0.000,0,00:00:00,0,0.000,0.000,0.000,0.000,0.000,0.000,0.000,0.000,0.000,0.000,0.000,0.000,0.000,0.000
12.738,0,0,-1.413,-0.040,-1337.907,-2.146,-0.052,191.461,-0.379,-0.068,-9.725,0.000,0.000,0.0103675,0.000,7500.000,0.438,1.227,1013.261,15.049,-0.093,-879.460,-9.730,-0.148,0.189,0.007,0.019,-0.003,0.000,0.000,0.000,-0.006,0.700,-0.000,0.714,0.0000000,0.0000000,0.000,0.000,0.000,0.000,0,00:00:00,0,0.000,0.000,0.000,0.000,0.000,0.000,0.000,0.000,0.000,0.000,0.000,0.000,0.000,0.000
12.839,0,0,-1.496,-0.042,-1265.914,-2.136,-0.059,229.590,-0.369,-0.076,-9.726,0.000,0.000,0.0103675,0.000,7500.000,0.564,1.118,1013.261,15.049,-0.093,-879.460,-9.730,-0.148,0.189,0.007,0.019,-0.003,0.000,0.000,0.000,-0.007,0.700,-0.002,0.714,0.0000000,0.0000000,0.000,0.000,0.000,0.000,0,00:00:00,0,0.000,0.000,0.000,0.000,0.000,0.000,0.000,0.000,0.000,0.000,0.000,0.000,0.000,0.000
12.940,0,0,-1.573,-0.043,-1198.226,-2.127,-0.050,262.505,-0.435,0.071,-9.633,0.000,0.000,0.0103675,0.000,7500.000,0.676,1.064,1013.249,15.050,0.006,-879.360,-9.640,-0.005,0.233,-0.004,0.008,0.005,0.000,0.000,0.000,-0.005,0.700,0.001,0.714,0.0000000,0.0000000,0.000,0.000,0.000,0.000,0,00:00:00,0,0.000,0.000,0.000,0.000,0.000,0.000,0.000,0.000,0.000,0.000,0.000,0.000,0.000,0.000
13.041,0,0,-1.645,-0.044,-1025.011,-2.128,-0.038,375.060,-0.566,0.104,-9.746,0.000,0.000,0.0103675,0.000,7500.000,0.773,1.200,1013.250,15.052,0.000,0.107,-9.758,0.036,0.310,0.010,0.002,-0.004,0.000,0.000,0.000,-0.003,0.698,0.002,0.716,0.0000000,0.0000000,0.000,0.000,0.000,0.000,0,00:00:00,0,0.000,0.000,0.000,0.000,0.000,0.000,0.000,0.000,0.000,0.000,0.000,0.000,0.000,0.000
13.142,0,0,-1.713,-0.043,-860.985,-2.147,-0.027,472.744,-0.808,0.095,-9.826,0.000,0.000,0.0103675,0.000,7500.000,1.104,1.503,1013.254,15.047,-0.033,0.083,-9.850,0.059,0.443,0.031,-0.029,-0.028,0.000,0.000,0.000,-0.001,0.694,0.002,0.720,0.0000000,0.0000000,0.000,0.000,0.000,0.000,0,00:00:00,0,0.000,0.000,0.000,0.000,0.000,0.000,0.000,0.000,0.000,0.000,0.000,0.000,0.000,0.000
13.243,0,0,-1.777,-0.042,-707.335,-2.152,-0.029,555.081,-0.715,-0.033,-9.751,0.000,0.000,0.0103675,0.000,7500.000,1.392,2.123,1013.257,15.050,-0.055,0.042,-9.771,-0.074,0.357,-0.006,0.003,-0.012,0.000,0.000,0.000,-0.003,0.694,0.000,0.720,0.0000000,0.0000000,0.000,0.000,0.000,0.000,0,00:00:00,0,0.000,0.000,0.000,0.000,0.000,0.000,0.000,0.000,0.000,0.000,0.000,0.000,0.000,0.000
13.344,0,0,-1.835,-0.042,-565.023,-2.160,-0.036,622.098,-0.794,-0.094,-9.752,0.000,0.000,0.0103675,0.000,7500.000,1.634,2.101,1013.262,15.052,-0.100,-0.020,-9.775,-0.123,0.399,0.012,-0.037,0.039,0.000,0.000,0.000,-0.003,0.693,-0.001,0.721,0.0000000,0.0000000,0.000,0.000,0.000,0.000,0,00:00:00,0,0.000,0.000,0.000,0.000,0.000,0.000,0.000,0.000,0.000,0.000,0.000,0.000,0.000,0.000
13.445,0,0,-1.890,-0.042,-434.679,-2.188,-0.030,674.304,-1.037,0.044,-9.820,0.000,0.000,0.0103675,0.000,7500.000,1.831,2.325,1013.238,15.048,0.097,0.163,-9.860,0.029,0.549,0.014,-0.029,-0.026,0.000,0.000,0.000,-0.002,0.689,-0.000,0.724,0.0000000,0.0000000,0.000,0.000,0.000,0.000,0,00:00:00,0,0.000,0.000,0.000,0.000,0.000,0.000,0.000,0.000,0.000,0.000,0.000,0.000,0.000,0.000
13.546,0,0,-1.941,-0.041,-316.718,-2.180,-0.028,712.507,-0.734,0.000,-9.786,0.000,0.000,0.0103675,0.000,7500.000,1.985,2.838,1013.272,15.050,-0.181,-0.137,-9.808,-0.023,0.330,-0.009,0.009,-0.020,0.000,0.000,0.000,-0.002,0.692,-0.000,0.722,0.0000000,0.0000000,0.000,0.000,0.000,0.000,0,00:00:00,0,0.000,0.000,0.000,0.000,0.000,0.000,0.000,0.000,0.000,0.000,0.000,0.000,0.000,0.000
13.647,0,0,-1.984,-0.040,-211.119,-2.170,-0.028,737.869,-0.761,-0.017,-9.764,0.000,0.000,0.0103675,0.000,7500.000,2.097,2.358,1013.254,15.048,-0.036,0.014,-9.786,-0.067,0.385,-0.026,0.034,0.041,0.000,0.000,0.000,-0.003,0.693,0.001,0.721,0.0000000,0.0000000,0.000,0.000,0.000,0.000,0,00:00:00,0,0.000,0.000,0.000,0.000,0.000,0.000,0.000,0.000,0.000,0.000,0.000,0.000,0.000,0.000
13.748,0,0,-2.022,-0.040,-117.697,-2.174,-0.029,751.648,-0.944,-0.027,-9.608,0.000,0.000,0.0103675,0.000,7500.000,2.172,2.207,1013.267,15.050,-0.140,-0.093,-9.641,-0.040,0.505,0.038,-0.003,0.007,0.000,0.000,0.000,-0.002,0.691,-0.001,0.723,0.0000000,0.0000000,0.000,0.000,0.000,0.000,0,00:00:00,0,0.000,0.000,0.000,0.000,0.000,0.000,0.000,0.000,0.000,0.000,0.000,0.000,0.000,0.000
13.849,0,0,-2.055,-0.039,-35.944,-2.149,-0.019,755.224,-0.703,0.083,-9.737,0.000,0.000,0.0103675,0.000,7500.000,2.213,2.612,1013.218,15.051,0.269,0.317,-9.758,0.059,0.314,-0.010,-0.021,-0.017,0.000,0.000,0.000,-0.001,0.693,0.001,0.721,0.0000000,0.0000000,0.000,0.000,0.000,0.000,0,00:00:00,0,0.000,0.000,0.000,0.000,0.000,0.000,0.000,0.000,0.000,0.000,0.000,0.000,0.000,0.000
13.950,0,0,-2.078,-0.037,34.599,-2.099,-0.018,749.857,-0.479,-0.007,-9.772,0.000,0.000,0.0103675,0.000,7500.000,2.223,2.288,1013.282,15.049,-0.269,-0.221,-9.782,-0.039,0.171,-0.007,-0.055,0.015,0.000,0.000,0.000,-0.001,0.696,0.001,0.718,0.0000000,0.0000000,0.000,0.000,0.000,0.000,0,00:00:00,0,0.000,0.000,0.000,0.000,0.000,0.000,0.000,0.000,0.000,0.000,0.000,0.000,0.000,0.000
14.051,0,0,-2.093,-0.035,94.741,-2.050,-0.002,736.959,-0.530,0.140,-9.703,0.000,0.000,0.0103675,0.000,7500.000,2.207,1.802,1013.263,15.050,-0.108,-0.087,-9.714,0.127,0.247,0.021,-0.017,0.003,0.000,0.000,0.000,0.002,0.697,0.003,0.717,0.0000000,0.0000000,0.000,0.000,0.000,0.000,0,00:00:00,0,0.000,0.000,0.000,0.000,0.000,0.000,0.000,0.000,0.000,0.000,0.000,0.000,0.000,0.000
14.152,0,0,-2.101,-0.032,145.256,-2.009,-0.005,717.772,-0.621,-0.045,-9.644,0.000,0.000,0.0103675,0.000,7500.000,2.169,1.677,1013.243,15.050,0.056,0.054,-9.659,-0.029,0.330,0.029,0.032,-0.003,0.000,0.000,0.000,0.001,0.696,-0.000,0.718,0.0000000,0.0000000,0.000,0.000,0.000,0.000,0,00:00:00,0,0.000,0.000,0.000,0.000,0.000,0.000,0.000,0.000,0.000,0.000,0.000,0.000,0.000,0.000
14.253,0,0,-2.101,-0.029,186.938,-1.968,0.009,693.419,-0.650,0.125,-9.682,0.000,0.000,0.0103675,0.000,7500.000,2.113,1.726,1013.240,15.049,0.079,0.100,-9.698,0.107,0.341,-0.033,0.013,0.024,0.000,0.000,0.000,0.002,0.696,0.003,0.718,0.0000000,0.0000000,0.000,0.000,0.000,0.000,0,00:00:00,0,0.000,0.000,0.000,0.000,0.000,0.000,0.000,0.000,0.000,0.000,0.000,0.000,0.000,0.000
14.354,0,0,-2.096,-0.027,220.557,-1.929,-0.011,664.902,-0.675,-0.211,-9.830,0.000,0.000,0.0103675,0.000,7500.000,2.041,1.832,1013.269,15.049,-0.155,-0.121,-9.848,-0.195,0.335,0.030,-0.034,0.007,0.000,0.000,0.000,-0.002,0.695,-0.003,0.719,0.0000000,0.0000000,0.000,0.000,0.000,0.000,0,00:00:00,0,0.000,0.000,0.000,0.000,0.000,0.000,0.000,0.000,0.000,0.000,0.000,0.000,0.000,0.000
14.455,0,0,-2.086,-0.026,246.983,-1.895,-0.020,633.227,-0.741,-0.104,-9.785,0.000,0.000,0.0103675,0.000,7500.000,1.957,1.988,1013.233,15.052,0.145,0.168,-9.806,-0.084,0.379,0.001,-0.008,-0.044,0.000,0.000,0.000,-0.003,0.694,-0.004,0.720,0.0000000,0.0000000,0.000,0.000,0.000,0.000,0,00:00:00,0,0.000,0.000,0.000,0.000,0.000,0.000,0.000,0.000,0.000,0.000,0.000,0.000,0.000,0.000
14.556,0,0,-2.071,-0.025,266.906,-1.845,-0.018,599.155,-0.585,0.005,-9.784,0.000,0.000,0.0103675,0.000,7500.000,1.864,2.124,1013.261,15.048,-0.090,-0.043,-9.798,0.005,0.265,-0.018,-0.011,0.011,0.000,0.000,0.000,-0.001,0.695,-0.001,0.719,0.0000000,0.0000000,0.000,0.000,0.000,0.000,0,00:00:00,0,0.000,0.000,0.000,0.000,0.000,0.000,0.000,0.000,0.000,0.000,0.000,0.000,0.000,0.000
14.657,0,0,-2.052,-0.024,281.070,-1.805,0.005,563.422,-0.688,0.221,-9.777,0.000,0.000,0.0103675,0.000,7500.000,1.764,1.868,1013.273,15.047,-0.190,-0.142,-9.795,0.195,0.359,-0.022,0.016,0.010,0.000,0.000,0.000,0.002,0.695,0.004,0.719,0.0000000,0.0000000,0.000,0.000,0.000,0.000,0,00:00:00,0,0.000,0.000,0.000,0.000,0.000,0.000,0.000,0.000,0.000,0.000,0.000,0.000,0.000,0.000
14.758,0,0,-2.029,-0.021,290.211,-1.754,0.006,526.707,-0.563,-0.005,-9.678,0.000,0.000,0.0103675,0.000,7500.000,1.659,1.937,1013.239,15.052,0.090,0.143,-9.691,-0.032,0.265,-0.003,-0.002,-0.006,0.000,0.000,0.000,-0.000,0.696,0.002,0.718,0.0000000,0.0000000,0.000,0.000,0.000,0.000,0,00:00:00,0,0.000,0.000,0.000,0.000,0.000,0.000,0.000,0.000,0.000,0.000,0.000,0.000,0.000,0.000
14.859,0,0,-2.003,-0.018,294.893,-1.720,0.008,489.484,-0.736,0.011,-9.698,0.000,0.000,0.0103675,0.000,7500.000,1.551,1.759,1013.257,15.049,-0.058,-0.041,-9.718,-0.027,0.397,-0.013,0.016,-0.003,0.000,0.000,0.000,-0.002,0.695,0.001,0.719,0.0000000,0.0000000,0.000,0.000,0.000,0.000,0,00:00:00,0,0.000,0.000,0.000,0.000,0.000,0.000,0.000,0.000,0.000,0.000,0.000,0.000,0.000,0.000
14.960,0,0,-1.974,-0.015,295.774,-1.684,0.028,452.279,-0.694,0.193,-9.620,0.000,0.000,0.0103675,0.000,7500.000,1.441,2.004,1013.224,15.052,0.212,0.257,-9.639,0.141,0.362,-0.012,0.033,-0.008,0.000,0.000,0.000,0.001,0.695,0.004,0.719,0.0000000,0.0000000,0.000,0.000,0.000,0.000,0,00:00:00,0,0.000,0.000,0.000,0.000,0.000,0.000,0.000,0.000,0.000,0.000,0.000,0.000,0.000,0.000
15.061,0,0,-1.944,-0.011,293.332,-1.651,0.025,415.417,-0.722,-0.038,-9.747,0.000,0.000,0.0103675,0.000,7500.000,1.331,1.985,1013.240,15.048,0.086,0.142,-9.766,-0.060,0.369,0.027,0.002,-0.036,0.000,0.000,0.000,-0.001,0.694,0.000,0.720,0.0000000,0.0000000,0.000,0.000,0.000,0.000,0,00:00:00,0,0.000,0.000,0.000,0.000,0.000,0.000,0.000,0.000,0.000,0.000,0.000,0.000,0.000,0.000
15.162,0,0,-1.913,-0.007,288.046,-1.614,0.035,379.219,-0.668,0.092,-9.871,0.000,0.000,0.0103675,0.000,7500.000,1.223,2.070,1013.265,15.047,-0.127,-0.080,-9.888,0.092,0.331,0.025,0.012,0.004,0.000,0.000,0.000,0.002,0.695,0.001,0.719,0.0000000,0.0000000,0.000,0.000,0.000,0.000,0,00:00:00,0,0.000,0.000,0.000,0.000,0.000,0.000,0.000,0.000,0.000,0.000,0.000,0.000,0.000,0.000
15.263,0,0,-1.879,-0.004,280.436,-1.540,0.026,344.035,-0.277,-0.094,-9.801,0.000,0.000,0.0103675,0.000,7500.000,1.116,1.957,1013.234,15.052,0.137,0.170,-9.805,-0.077,0.075,0.016,0.008,0.035,0.000,0.000,0.000,0.001,0.700,-0.001,0.714,0.0000000,0.0000000,0.000,0.000,0.000,0.000,0,00:00:00,0,0.000,0.000,0.000,0.000,0.000,0.000,0.000,0.000,0.000,0.000,0.000,0.000,0.000,0.000
15.364,0,0,-1.843,-0.002,270.861,-1.509,0.021,310.073,-0.691,-0.049,-9.478,0.000,0.000,0.0103675,0.000,7500.000,1.013,1.176,1013.248,15.051,0.015,0.053,-9.495,-0.040,0.385,-0.008,-0.036,0.009,0.000,0.000,0.000,-0.000,0.696,-0.001,0.718,0.0000000,0.0000000,0.000,0.000,0.000,0.000,0,00:00:00,0,0.000,0.000,0.000,0.000,0.000,0.000,0.000,0.000,0.000,0.000,0.000,0.000,0.000,0.000
15.465,0,0,-1.806,0.001,259.729,-1.463,0.027,277.470,-0.516,0.066,-9.881,0.000,0.000,0.0103675,0.000,7500.000,0.913,1.850,1013.231,15.050,0.156,0.190,-9.891,0.045,0.240,-0.030,0.008,0.001,0.000,0.000,0.000,-0.000,0.697,0.001,0.717,0.0000000,0.0000000,0.000,0.000,0.000,0.000,0,00:00:00,0,0.000,0.000,0.000,0.000,0.000,0.000,0.000,0.000,0.000,0.000,0.000,0.000,0.000,0.000
15.566,0,0,-1.768,0.003,247.317,-1.436,0.030,246.398,-0.681,0.028,-9.550,0.000,0.000,0.0103675,0.000,7500.000,0.817,1.596,1013.263,15.051,-0.104,-0.079,-9.567,0.055,0.367,0.051,0.004,0.008,0.000,0.000,0.000,0.002,0.695,0.000,0.719,0.0000000,0.0000000,0.000,0.000,0.000,0.000,0,00:00:00,0,0.000,0.000,0.000,0.000,0.000,0.000,0.000,0.000,0.000,0.000,0.000,0.000,0.000,0.000
15.667,0,0,-1.731,0.005,233.994,-1.396,0.016,216.957,-0.543,-0.134,-9.810,0.000,0.000,0.0103675,0.000,7500.000,0.725,1.884,1013.240,15.051,0.083,0.124,-9.822,-0.106,0.247,-0.002,-0.023,-0.002,0.000,0.000,0.000,-0.000,0.696,-0.002,0.718,0.0000000,0.0000000,0.000,0.000,0.000,0.000,0,00:00:00,0,0.000,0.000,0.000,0.000,0.000,0.000,0.000,0.000,0.000,0.000,0.000,0.000,0.000,0.000
15.768,0,0,-1.693,0.006,219.944,-1.349,0.008,189.199,-0.447,-0.072,-9.688,0.000,0.000,0.0103675,0.000,7500.000,0.639,1.730,1013.284,15.050,-0.280,-0.263,-9.696,-0.030,0.204,0.014,0.010,-0.018,0.000,0.000,0.000,-0.000,0.698,-0.003,0.716,0.0000000,0.0000000,0.000,0.000,0.000,0.000,0,00:00:00,0,0.000,0.000,0.000,0.000,0.000,0.000,0.000,0.000,0.000,0.000,0.000,0.000,0.000,0.000
15.869,0,0,-1.656,0.005,205.477,-1.334,-0.006,163.203,-0.736,-0.142,-9.806,0.000,0.000,0.0103675,0.000,7500.000,0.557,1.438,1013.276,15.051,-0.220,-0.170,-9.826,-0.072,0.404,0.028,-0.017,0.012,0.000,0.000,0.000,0.001,0.695,-0.004,0.719,0.0000000,0.0000000,0.000,0.000,0.000,0.000,0,00:00:00,0,0.000,0.000,0.000,0.000,0.000,0.000,0.000,0.000,0.000,0.000,0.000,0.000,0.000,0.000
15.970,0,0,-1.620,0.004,190.782,-1.311,-0.008,138.997,-0.645,-0.019,-9.751,0.000,0.000,0.0103675,0.000,7500.000,0.480,1.943,1013.275,15.050,-0.210,-0.208,-9.767,0.036,0.318,-0.012,-0.005,0.045,0.000,0.000,0.000,0.002,0.695,-0.002,0.719,0.0000000,0.0000000,0.000,0.000,0.000,0.000,0,00:00:00,0,0.000,0.000,0.000,0.000,0.000,0.000,0.000,0.000,0.000,0.000,0.000,0.000,0.000,0.000
16.071,0,0,-1.586,0.003,176.047,-1.290,-0.009,116.579,-0.643,-0.005,-9.751,0.000,0.000,0.0103675,0.000,7500.000,0.409,1.918,1013.275,15.050,-0.210,-0.227,-9.767,0.036,0.318,-0.012,-0.005,0.045,0.000,0.000,0.000,0.003,0.695,0.000,0.719,0.0000000,0.0000000,0.000,0.000,0.000,0.000,0,00:00:00,0,0.000,0.000,0.000,0.000,0.000,0.000,0.000,0.000,0.000,0.000,0.000,0.000,0.000,0.000
16.172,0,0,-1.554,0.002,161.462,-1.289,-0.014,95.963,-0.824,-0.045,-9.707,0.000,0.000,0.0103675,0.000,7500.000,0.343,1.905,1013.253,15.052,-0.025,-0.025,-9.732,-0.017,0.449,-0.015,0.021,-0.029,0.000,0.000,0.000,0.001,0.693,-0.001,0.721,0.0000000,0.0000000,0.000,0.000,0.000,0.000,0,00:00:00,0,0.000,0.000,0.000,0.000,0.000,0.000,0.000,0.000,0.000,0.000,0.000,0.000,0.000,0.000
16.273,0,0,-1.524,0.000,147.202,-1.274,-0.012,77.122,-0.664,0.012,-9.886,0.000,0.000,0.0103675,0.000,7500.000,0.283,2.214,1013.191,15.052,0.490,0.485,-9.904,0.039,0.309,-0.001,-0.021,-0.004,0.000,0.000,0.000,0.002,0.694,-0.000,0.720,0.0000000,0.0000000,0.000,0.000,0.000,0.000,0,00:00:00,0,0.000,0.000,0.000,0.000,0.000,0.000,0.000,0.000,0.000,0.000,0.000,0.000,0.000,0.000
16.374,0,0,-1.496,-0.001,133.259,-1.269,-0.010,59.946,-0.747,0.028,-9.768,0.000,0.000,0.0103675,0.000,7500.000,0.227,2.059,1013.229,15.051,0.177,0.155,-9.789,0.053,0.389,-0.001,0.025,0.020,0.000,0.000,0.000,0.003,0.694,0.001,0.720,0.0000000,0.0000000,0.000,0.000,0.000,0.000,0,00:00:00,0,0.000,0.000,0.000,0.000,0.000,0.000,0.000,0.000,0.000,0.000,0.000,0.000,0.000,0.000
16.475,0,0,-1.470,-0.001,119.776,-1.246,-0.005,44.406,-0.561,0.043,-9.792,0.000,0.000,0.0103675,0.000,7500.000,0.177,2.096,1013.229,15.050,0.174,0.151,-9.804,0.090,0.250,0.022,-0.015,-0.010,0.000,0.000,0.000,0.004,0.696,0.000,0.718,0.0000000,0.0000000,0.000,0.000,0.000,0.000,0,00:00:00,0,0.000,0.000,0.000,0.000,0.000,0.000,0.000,0.000,0.000,0.000,0.000,0.000,0.000,0.000
16.576,0,0,-1.444,-0.002,106.833,-1.223,-0.003,30.438,-0.537,0.022,-9.793,0.000,0.000,0.0103675,0.000,7500.000,0.131,1.820,1013.229,15.050,0.174,0.153,-9.804,0.090,0.250,0.022,-0.015,-0.010,0.000,0.000,0.000,0.005,0.697,-0.000,0.717,0.0000000,0.0000000,0.000,0.000,0.000,0.000,0,00:00:00,0,0.000,0.000,0.000,0.000,0.000,0.000,0.000,0.000,0.000,0.000,0.000,0.000,0.000,0.000
16.677,0,0,-1.418,-0.002,94.463,-1.205,-0.014,17.945,-0.579,-0.112,-9.843,0.000,0.000,0.0103675,0.000,7500.000,0.090,1.681,1013.248,15.053,0.018,-0.031,-9.856,-0.036,0.295,0.007,0.017,0.013,0.000,0.000,0.000,0.004,0.697,-0.002,0.717,0.0000000,0.0000000,0.000,0.000,0.000,0.000,0,00:00:00,0,0.000,0.000,0.000,0.000,0.000,0.000,0.000,0.000,0.000,0.000,0.000,0.000,0.000,0.000
16.778,0,0,-1.394,-0.004,82.744,-1.188,-0.039,6.879,-0.562,-0.252,-9.855,0.000,0.000,0.0103675,0.000,7500.000,0.053,1.649,1013.250,15.048,0.004,-0.008,-9.869,-0.165,0.285,0.007,0.012,-0.011,0.000,0.000,0.000,0.000,0.697,-0.006,0.717,0.0000000,0.0000000,0.000,0.000,0.000,0.000,0,00:00:00,0,0.000,0.000,0.000,0.000,0.000,0.000,0.000,0.000,0.000,0.000,0.000,0.000,0.000,0.000
16.879,0,0,-1.370,-0.007,71.708,-1.168,-0.036,-2.835,-0.529,0.032,-9.772,0.000,0.000,0.0103675,0.000,7500.000,0.021,1.620,1013.250,15.048,0.002,0.006,-9.782,0.145,0.256,0.029,-0.013,0.002,0.000,0.000,0.000,0.005,0.697,-0.003,0.717,0.0000000,0.0000000,0.000,0.000,0.000,0.000,0,00:00:00,0,0.000,0.000,0.000,0.000,0.000,0.000,0.000,0.000,0.000,0.000,0.000,0.000,0.000,0.000
16.980,0,0,-1.347,-0.010,61.378,-1.158,-0.035,-11.283,-0.615,-0.001,-9.725,0.000,0.000,0.0103675,0.000,7500.000,0.009,1.597,1013.251,15.050,-0.005,0.042,-9.739,0.061,0.317,-0.050,-0.008,-0.002,0.000,0.000,0.000,0.004,0.696,-0.001,0.718,0.0000000,0.0000000,0.000,0.000,0.000,0.000,0,00:00:00,0,0.000,0.000,0.000,0.000,0.000,0.000,0.000,0.000,0.000,0.000,0.000,0.000,0.000,0.000
17.081,0,0,-1.327,-0.012,51.779,-1.171,-0.034,-18.548,-0.826,0.004,-9.714,0.000,0.000,0.0103675,0.000,7500.000,0.033,1.755,1013.240,15.047,0.087,0.163,-9.738,0.074,0.458,0.010,0.019,0.009,0.000,0.000,0.000,0.005,0.694,-0.000,0.720,0.0000000,0.0000000,0.000,0.000,0.000,0.000,0,00:00:00,0,0.000,0.000,0.000,0.000,0.000,0.000,0.000,0.000,0.000,0.000,0.000,0.000,0.000,0.000
17.182,0,0,-1.309,-0.014,42.907,-1.173,-0.037,-24.721,-0.716,-0.035,-9.712,0.000,0.000,0.0103675,0.000,7500.000,0.055,2.169,1013.227,15.049,0.193,0.259,-9.732,0.038,0.352,0.003,-0.007,-0.000,0.000,0.000,0.000,0.005,0.694,-0.001,0.720,0.0000000,0.0000000,0.000,0.000,0.000,0.000,0,00:00:00,0,0.000,0.000,0.000,0.000,0.000,0.000,0.000,0.000,0.000,0.000,0.000,0.000,0.000,0.000
17.283,0,0,-1.294,-0.017,34.708,-1.187,-0.044,-29.927,-0.824,-0.078,-9.723,0.000,0.000,0.0103675,0.000,7500.000,0.073,2.143,1013.251,15.051,-0.010,0.020,-9.749,-0.023,0.427,-0.019,-0.001,0.027,0.000,0.000,0.000,0.003,0.693,-0.001,0.721,0.0000000,0.0000000,0.000,0.000,0.000,0.000,0,00:00:00,0,0.000,0.000,0.000,0.000,0.000,0.000,0.000,0.000,0.000,0.000,0.000,0.000,0.000,0.000
17.384,0,0,-1.280,-0.019,27.205,-1.176,-0.033,-34.215,-0.559,0.102,-9.675,0.000,0.000,0.0103675,0.000,7500.000,0.088,2.330,1013.250,15.050,-0.002,0.012,-9.687,0.176,0.245,0.020,0.010,0.002,0.000,0.000,0.000,0.007,0.695,0.001,0.718,0.0000000,0.0000000,0.000,0.000,0.000,0.000,0,00:00:00,0,0.000,0.000,0.000,0.000,0.000,0.000,0.000,0.000,0.000,0.000,0.000,0.000,0.000,0.000
17.485,0,0,-1.267,-0.020,20.381,-1.169,-0.029,-37.687,-0.603,0.029,-9.828,0.000,0.000,0.0103675,0.000,7500.000,0.101,1.861,1013.249,15.051,0.011,0.024,-9.841,0.091,0.294,-0.012,-0.005,-0.004,0.000,0.000,0.000,0.006,0.696,0.001,0.718,0.0000000,0.0000000,0.000,0.000,0.000,0.000,0,00:00:00,0,0.000,0.000,0.000,0.000,0.000,0.000,0.000,0.000,0.000,0.000,0.000,0.000,0.000,0.000
17.586,0,0,-1.255,-0.020,14.209,-1.187,-0.029,-40.383,-0.834,-0.013,-9.558,0.000,0.000,0.0103675,0.000,7500.000,0.111,1.801,1013.249,15.050,0.007,-0.008,-9.583,0.050,0.465,0.004,0.028,0.005,0.000,0.000,0.000,0.005,0.693,0.000,0.721,0.0000000,0.0000000,0.000,0.000,0.000,0.000,0,00:00:00,0,0.000,0.000,0.000,0.000,0.000,0.000,0.000,0.000,0.000,0.000,0.000,0.000,0.000,0.000
17.687,0,0,-1.246,-0.022,8.685,-1.199,-0.044,-42.422,-0.773,-0.162,-9.865,0.000,0.000,0.0103675,0.000,7500.000,0.119,2.210,1013.234,15.047,0.133,0.124,-9.888,-0.137,0.390,-0.044,0.004,0.017,0.000,0.000,0.000,0.000,0.693,-0.002,0.721,0.0000000,0.0000000,0.000,0.000,0.000,0.000,0,00:00:00,0,0.000,0.000,0.000,0.000,0.000,0.000,0.000,0.000,0.000,0.000,0.000,0.000,0.000,0.000
17.788,0,0,-1.239,-0.025,3.750,-1.201,-0.062,-43.866,-0.678,-0.194,-9.855,0.000,0.000,0.0103675,0.000,7500.000,0.125,2.223,1013.237,15.050,0.105,0.068,-9.874,-0.146,0.334,0.021,0.024,0.013,0.000,0.000,0.000,-0.001,0.695,-0.004,0.719,0.0000000,0.0000000,0.000,0.000,0.000,0.000,0,00:00:00,0,0.000,0.000,0.000,0.000,0.000,0.000,0.000,0.000,0.000,0.000,0.000,0.000,0.000,0.000
17.889,0,0,-1.233,-0.028,-0.679,-1.215,-0.065,-44.803,-0.787,-0.038,-9.646,0.000,0.000,0.0103675,0.000,7500.000,0.129,2.009,1013.287,15.051,-0.311,-0.370,-9.669,-0.014,0.415,-0.024,0.008,-0.010,0.000,0.000,0.000,-0.001,0.693,-0.003,0.721,0.0000000,0.0000000,0.000,0.000,0.000,0.000,0,00:00:00,0,0.000,0.000,0.000,0.000,0.000,0.000,0.000,0.000,0.000,0.000,0.000,0.000,0.000,0.000
17.990,0,0,-1.229,-0.031,-4.521,-1.227,-0.051,-45.239,-0.764,0.118,-9.740,0.000,0.000,0.0103675,0.000,7500.000,0.132,2.209,1013.243,15.051,0.058,-0.022,-9.762,0.167,0.384,0.030,-0.000,-0.007,0.000,0.000,0.000,0.004,0.693,0.000,0.721,0.0000000,0.0000000,0.000,0.000,0.000,0.000,0,00:00:00,0,0.000,0.000,0.000,0.000,0.000,0.000,0.000,0.000,0.000,0.000,0.000,0.000,0.000,0.000
18.091,0,0,-1.226,-0.033,-7.882,-1.223,-0.051,-45.294,-0.606,-0.014,-9.857,0.000,0.000,0.0103675,0.000,7500.000,0.133,2.233,1013.256,15.051,-0.053,-0.163,-9.872,0.040,0.269,0.004,-0.020,0.012,0.000,0.000,0.000,0.004,0.695,-0.000,0.719,0.0000000,0.0000000,0.000,0.000,0.000,0.000,0,00:00:00,0,0.000,0.000,0.000,0.000,0.000,0.000,0.000,0.000,0.000,0.000,0.000,0.000,0.000,0.000
18.192,0,0,-1.222,-0.034,-10.793,-1.209,-0.056,-44.999,-0.497,-0.074,-9.751,0.000,0.000,0.0103675,0.000,7500.000,0.133,1.954,1013.268,15.048,-0.150,-0.282,-9.761,-0.029,0.220,-0.011,-0.001,-0.018,0.000,0.000,0.000,0.002,0.697,-0.002,0.717,0.0000000,0.0000000,0.000,0.000,0.000,0.000,0,00:00:00,0,0.000,0.000,0.000,0.000,0.000,0.000,0.000,0.000,0.000,0.000,0.000,0.000,0.000,0.000
18.293,0,0,-1.216,-0.037,-13.195,-1.161,-0.061,-44.352,-0.167,-0.063,-9.830,0.000,0.000,0.0103675,0.000,7500.000,0.133,1.625,1013.208,15.049,0.346,0.264,-9.831,-0.017,0.022,0.002,0.011,0.030,0.000,0.000,0.000,0.002,0.702,-0.001,0.712,0.0000000,0.0000000,0.000,0.000,0.000,0.000,0,00:00:00,0,0.000,0.000,0.000,0.000,0.000,0.000,0.000,0.000,0.000,0.000,0.000,0.000,0.000,0.000
18.394,0,0,-1.207,-0.039,-15.203,-1.152,-0.063,-43.475,-0.548,-0.038,-9.972,0.000,0.000,0.0103675,0.000,7500.000,0.131,0.845,1013.210,15.050,0.331,0.268,-9.982,0.007,0.314,-0.001,-0.007,0.020,0.000,0.000,0.000,0.002,0.699,-0.001,0.715,0.0000000,0.0000000,0.000,0.000,0.000,0.000,0,00:00:00,0,0.000,0.000,0.000,0.000,0.000,0.000,0.000,0.000,0.000,0.000,0.000,0.000,0.000,0.000
18.495,0,0,-1.200,-0.042,-16.905,-1.159,-0.076,-42.423,-0.694,-0.150,-9.853,0.000,0.000,0.0103675,0.000,7500.000,0.128,1.343,1013.255,15.050,-0.046,-0.093,-9.870,-0.092,0.387,0.012,0.001,0.008,0.000,0.000,0.000,0.001,0.696,-0.003,0.718,0.0000000,0.0000000,0.000,0.000,0.000,0.000,0,00:00:00,0,0.000,0.000,0.000,0.000,0.000,0.000,0.000,0.000,0.000,0.000,0.000,0.000,0.000,0.000
18.596,0,0,-1.193,-0.045,-18.332,-1.148,-0.094,-41.247,-0.516,-0.203,-9.859,0.000,0.000,0.0103675,0.000,7500.000,0.125,1.791,1013.305,15.052,-0.462,-0.492,-9.871,-0.164,0.244,-0.020,0.005,-0.001,0.000,0.000,0.000,-0.002,0.697,-0.005,0.717,0.0000000,0.0000000,0.000,0.000,0.000,0.000,0,00:00:00,0,0.000,0.000,0.000,0.000,0.000,0.000,0.000,0.000,0.000,0.000,0.000,0.000,0.000,0.000
18.697,0,0,-1.186,-0.050,-19.368,-1.160,-0.093,-39.850,-0.750,-0.018,-9.692,0.000,0.000,0.0103675,0.000,7500.000,0.121,1.589,1013.229,15.052,0.177,0.135,-9.712,0.013,0.416,-0.005,0.016,0.041,0.000,0.000,0.000,0.000,0.695,-0.002,0.719,0.0000000,0.0000000,0.000,0.000,0.000,0.000,0,00:00:00,0,0.000,0.000,0.000,0.000,0.000,0.000,0.000,0.000,0.000,0.000,0.000,0.000,0.000,0.000
18.798,0,0,-1.182,-0.053,-20.133,-1.183,-0.092,-38.377,-0.841,-0.020,-9.899,0.000,0.000,0.0103675,0.000,7500.000,0.117,1.974,1013.222,15.051,0.230,0.177,-9.924,0.026,0.454,0.020,0.022,0.064,0.000,0.000,0.000,0.003,0.693,-0.001,0.721,0.0000000,0.0000000,0.000,0.000,0.000,0.000,0,00:00:00,0,0.000,0.000,0.000,0.000,0.000,0.000,0.000,0.000,0.000,0.000,0.000,0.000,0.000,0.000
18.899,0,0,-1.180,-0.056,-20.668,-1.187,-0.076,-36.832,-0.664,0.135,-9.795,0.000,0.000,0.0103675,0.000,7500.000,0.113,2.233,1013.231,15.048,0.162,0.141,-9.812,0.166,0.327,-0.014,0.034,-0.003,0.000,0.000,0.000,0.005,0.695,0.002,0.719,0.0000000,0.0000000,0.000,0.000,0.000,0.000,0,00:00:00,0,0.000,0.000,0.000,0.000,0.000,0.000,0.000,0.000,0.000,0.000,0.000,0.000,0.000,0.000
19.000,0,0,-1.177,-0.058,-21.011,-1.180,-0.089,-35.241,-0.546,-0.160,-9.588,0.000,0.000,0.0103675,0.000,7500.000,0.108,1.975,1013.246,15.052,0.034,0.006,-9.600,-0.139,0.266,-0.013,0.037,0.029,0.000,0.000,0.000,0.000,0.697,-0.001,0.717,0.0000000,0.0000000,0.000,0.000,0.000,0.000,0,00:00:00,0,0.000,0.000,0.000,0.000,0.000,0.000,0.000,0.000,0.000,0.000,0.000,0.000,0.000,0.000
19.101,0,0,-1.176,-0.060,-21.158,-1.193,-0.076,-33.640,-0.746,0.093,-9.761,0.000,0.000,0.0103675,0.000,7500.000,0.104,1.674,1013.239,15.050,0.093,0.080,-9.781,0.114,0.401,0.003,-0.005,0.020,0.000,0.000,0.000,0.003,0.694,0.001,0.720,0.0000000,0.0000000,0.000,0.000,0.000,0.000,0,00:00:00,0,0.000,0.000,0.000,0.000,0.000,0.000,0.000,0.000,0.000,0.000,0.000,0.000,0.000,0.000
19.202,0,0,-1.175,-0.062,-21.156,-1.195,-0.077,-32.045,-0.642,-0.039,-9.720,0.000,0.000,0.0103675,0.000,7500.000,0.099,2.027,1013.252,15.052,-0.014,0.007,-9.736,-0.029,0.317,-0.012,0.010,0.031,0.000,0.000,0.000,0.002,0.695,0.001,0.719,0.0000000,0.0000000,0.000,0.000,0.000,0.000,0,00:00:00,0,0.000,0.000,0.000,0.000,0.000,0.000,0.000,0.000,0.000,0.000,0.000,0.000,0.000,0.000
19.303,0,0,-1.174,-0.063,-21.014,-1.205,-0.088,-30.484,-0.717,-0.147,-9.914,0.000,0.000,0.0103675,0.000,7500.000,0.094,1.916,1013.246,15.050,0.036,0.022,-9.934,-0.121,0.357,0.012,-0.032,-0.012,0.000,0.000,0.000,-0.001,0.694,-0.003,0.720,0.0000000,0.0000000,0.000,0.000,0.000,0.000,0,00:00:00,0,0.000,0.000,0.000,0.000,0.000,0.000,0.000,0.000,0.000,0.000,0.000,0.000,0.000,0.000
19.404,0,0,-1.175,-0.066,-20.762,-1.217,-0.101,-28.959,-0.730,-0.161,-9.913,0.000,0.000,0.0103675,0.000,7500.000,0.090,2.080,1013.246,15.050,0.036,-0.012,-9.934,-0.121,0.357,0.012,-0.032,-0.012,0.000,0.000,0.000,-0.002,0.694,-0.005,0.720,0.0000000,0.0000000,0.000,0.000,0.000,0.000,0,00:00:00,0,0.000,0.000,0.000,0.000,0.000,0.000,0.000,0.000,0.000,0.000,0.000,0.000,0.000,0.000
19.505,0,0,-1.177,-0.069,-20.414,-1.244,-0.091,-27.447,-0.885,0.066,-9.608,0.000,0.000,0.0103675,0.000,7500.000,0.085,2.161,1013.249,15.049,0.009,-0.033,-9.637,0.088,0.476,-0.014,0.020,0.002,0.000,0.000,0.000,0.001,0.692,-0.001,0.722,0.0000000,0.0000000,0.000,0.000,0.000,0.000,0,00:00:00,0,0.000,0.000,0.000,0.000,0.000,0.000,0.000,0.000,0.000,0.000,0.000,0.000,0.000,0.000
19.606,0,0,-1.182,-0.070,-19.966,-1.278,-0.088,-25.988,-0.962,-0.013,-9.741,0.000,0.000,0.0103675,0.000,7500.000,0.081,2.436,1013.239,15.052,0.090,0.095,-9.775,0.038,0.504,0.032,0.004,0.041,0.000,0.000,0.000,0.003,0.690,-0.001,0.723,0.0000000,0.0000000,0.000,0.000,0.000,0.000,0,00:00:00,0,0.000,0.000,0.000,0.000,0.000,0.000,0.000,0.000,0.000,0.000,0.000,0.000,0.000,0.000
19.707,0,0,-1.189,-0.071,-19.467,-1.303,-0.071,-24.598,-0.874,0.128,-9.716,0.000,0.000,0.0103675,0.000,7500.000,0.077,2.683,1013.250,15.049,0.004,0.005,-9.744,0.160,0.443,-0.016,0.034,0.004,0.000,0.000,0.000,0.005,0.691,0.002,0.723,0.0000000,0.0000000,0.000,0.000,0.000,0.000,0,00:00:00,0,0.000,0.000,0.000,0.000,0.000,0.000,0.000,0.000,0.000,0.000,0.000,0.000,0.000,0.000
19.808,0,0,-1.197,-0.071,-18.916,-1.307,-0.065,-23.283,-0.672,0.023,-9.793,0.000,0.000,0.0103675,0.000,7500.000,0.073,2.546,1013.247,15.049,0.022,0.010,-9.811,0.057,0.311,0.000,0.023,0.021,0.000,0.000,0.000,0.005,0.694,0.002,0.720,0.0000000,0.0000000,0.000,0.000,0.000,0.000,0,00:00:00,0,0.000,0.000,0.000,0.000,0.000,0.000,0.000,0.000,0.000,0.000,0.000,0.000,0.000,0.000
19.909,0,0,-1.205,-0.070,-18.340,-1.320,-0.063,-22.039,-0.758,-0.014,-9.711,0.000,0.000,0.0103675,0.000,7500.000,0.069,2.112,1013.252,15.050,-0.014,-0.073,-9.733,0.053,0.380,0.034,-0.018,0.008,0.000,0.000,0.000,0.005,0.693,0.000,0.721,0.0000000,0.0000000,0.000,0.000,0.000,0.000,0,00:00:00,0,0.000,0.000,0.000,0.000,0.000,0.000,0.000,0.000,0.000,0.000,0.000,0.000,0.000,0.000
20.010,0,0,-1.214,-0.069,-17.737,-1.340,-0.057,-20.881,-0.833,0.026,-9.834,0.000,0.000,0.0103675,0.000,7500.000,0.065,2.226,1013.252,15.050,-0.019,-0.076,-9.860,0.106,0.430,0.012,0.006,-0.015,0.000,0.000,0.000,0.006,0.692,-0.000,0.721,0.0000000,0.0000000,0.000,0.000,0.000,0.000,0,00:00:00,0,0.000,0.000,0.000,0.000,0.000,0.000,0.000,0.000,0.000,0.000,0.000,0.000,0.000,0.000
20.111,0,0,-1.224,-0.068,-17.115,-1.371,-0.075,-19.785,-0.958,-0.213,-9.718,0.000,0.000,0.0103675,0.000,7500.000,0.062,2.344,1013.247,15.049,0.021,-0.050,-9.753,-0.155,0.499,-0.030,-0.024,-0.031,0.000,0.000,0.000,0.000,0.690,-0.004,0.724,0.0000000,0.0000000,0.000,0.000,0.000,0.000,0,00:00:00,0,0.000,0.000,0.000,0.000,0.000,0.000,0.000,0.000,0.000,0.000,0.000,0.000,0.000,0.000
20.212,0,0,-1.236,-0.069,-16.458,-1.397,-0.083,-18.767,-0.899,-0.119,-9.935,0.000,0.000,0.0103675,0.000,7500.000,0.058,2.706,1013.223,15.051,0.227,0.142,-9.967,-0.023,0.436,0.040,-0.021,0.016,0.000,0.000,0.000,0.002,0.690,-0.004,0.723,0.0000000,0.0000000,0.000,0.000,0.000,0.000,0,00:00:00,0,0.000,0.000,0.000,0.000,0.000,0.000,0.000,0.000,0.000,0.000,0.000,0.000,0.000,0.000
20.313,0,0,-1.248,-0.070,-15.843,-1.401,-0.080,-17.862,-0.700,-0.010,-9.983,0.000,0.000,0.0103675,0.000,7500.000,0.055,2.666,1013.259,15.050,-0.076,-0.130,-10.002,0.075,0.317,-0.010,0.017,-0.024,0.000,0.000,0.000,0.003,0.693,-0.003,0.721,0.0000000,0.0000000,0.000,0.000,0.000,0.000,0,00:00:00,0,0.000,0.000,0.000,0.000,0.000,0.000,0.000,0.000,0.000,0.000,0.000,0.000,0.000,0.000
20.414,0,0,-1.259,-0.071,-15.232,-1.394,-0.090,-17.012,-0.598,-0.132,-9.829,0.000,0.000,0.0103675,0.000,7500.000,0.053,2.193,1013.260,15.050,-0.081,-0.106,-9.843,-0.084,0.280,-0.038,0.018,-0.003,0.000,0.000,0.000,0.000,0.696,-0.003,0.718,0.0000000,0.0000000,0.000,0.000,0.000,0.000,0,00:00:00,0,0.000,0.000,0.000,0.000,0.000,0.000,0.000,0.000,0.000,0.000,0.000,0.000,0.000,0.000
20.515,0,0,-1.268,-0.073,-14.649,-1.388,-0.098,-16.235,-0.603,-0.120,-9.689,0.000,0.000,0.0103675,0.000,7500.000,0.050,1.857,1013.274,15.052,-0.199,-0.229,-9.704,-0.060,0.296,0.012,-0.007,-0.026,0.000,0.000,0.000,-0.000,0.696,-0.004,0.718,0.0000000,0.0000000,0.000,0.000,0.000,0.000,0,00:00:00,0,0.000,0.000,0.000,0.000,0.000,0.000,0.000,0.000,0.000,0.000,0.000,0.000,0.000,0.000
20.616,0,0,-1.276,-0.075,-14.074,-1.397,-0.097,-15.543,-0.764,-0.025,-9.915,0.000,0.000,0.0103675,0.000,7500.000,0.048,1.821,1013.260,15.051,-0.086,-0.172,-9.936,0.046,0.409,0.010,0.015,-0.004,0.000,0.000,0.000,0.002,0.694,-0.003,0.720,0.0000000,0.0000000,0.000,0.000,0.000,0.000,0,00:00:00,0,0.000,0.000,0.000,0.000,0.000,0.000,0.000,0.000,0.000,0.000,0.000,0.000,0.000,0.000
20.717,0,0,-1.283,-0.078,-13.520,-1.374,-0.121,-14.903,-0.442,-0.287,-9.738,0.000,0.000,0.0103675,0.000,7500.000,0.046,2.048,1013.265,15.052,-0.122,-0.190,-9.748,-0.194,0.175,0.025,-0.017,0.043,0.000,0.000,0.000,0.000,0.697,-0.006,0.717,0.0000000,0.0000000,0.000,0.000,0.000,0.000,0,00:00:00,0,0.000,0.000,0.000,0.000,0.000,0.000,0.000,0.000,0.000,0.000,0.000,0.000,0.000,0.000
20.818,0,0,-1.288,-0.081,-12.983,-1.367,-0.101,-14.333,-0.605,0.158,-9.832,0.000,0.000,0.0103675,0.000,7500.000,0.044,1.587,1013.261,15.048,-0.092,-0.139,-9.844,0.233,0.327,-0.015,0.041,0.006,0.000,0.000,0.000,0.006,0.697,-0.000,0.717,0.0000000,0.0000000,0.000,0.000,0.000,0.000,0,00:00:00,0,0.000,0.000,0.000,0.000,0.000,0.000,0.000,0.000,0.000,0.000,0.000,0.000,0.000,0.000
20.919,0,0,-1.292,-0.084,-12.429,-1.366,-0.123,-13.776,-0.675,-0.257,-9.656,0.000,0.000,0.0103675,0.000,7500.000,0.042,1.627,1013.228,15.051,0.179,0.150,-9.675,-0.159,0.360,0.020,0.001,-0.015,0.000,0.000,0.000,0.002,0.695,-0.005,0.719,0.0000000,0.0000000,0.000,0.000,0.000,0.000,0,00:00:00,0,0.000,0.000,0.000,0.000,0.000,0.000,0.000,0.000,0.000,0.000,0.000,0.000,0.000,0.000
21.020,0,0,-1.298,-0.087,-11.911,-1.398,-0.126,-13.310,-1.003,-0.080,-9.887,0.000,0.000,0.0103675,0.000,7500.000,0.041,1.874,1013.233,15.050,0.138,0.113,-9.922,0.014,0.568,-0.007,0.019,-0.009,0.000,0.000,0.000,0.002,0.691,-0.004,0.722,0.0000000,0.0000000,0.000,0.000,0.000,0.000,0,00:00:00,0,0.000,0.000,0.000,0.000,0.000,0.000,0.000,0.000,0.000,0.000,0.000,0.000,0.000,0.000
