State - Time (s),State - Stage,State - Stage,State - PX (m),State - PY (m),State - PZ (m),State - VX (m/s),State - VY (m/s),State - VZ (m/s),State - AX (m/s/s),State - AY (m/s/s),State - AZ (m/s/s),State - Actuation Angle (deg),State - Acutal Angle (deg),State - CdA,State - Est Apo (m),State - Target Apogee (m),State - Mach Number,State - Tilt [deg],MockBarometer - Pres (hPa),MockBarometer - Temp (C),MockBarometer - Alt ASL (m),MockBarometer - Alt AGL (m),MockIMU - AccX (m/s^2),MockIMU - AccY (m/s^2),MockIMU - AccZ (m/s^2),MockIMU - GyroX (rad/s),MockIMU - GyroY (rad/s),MockIMU - GyroZ (rad/s),MockIMU - MagX (uT),MockIMU - MagY (uT),MockIMU - MagZ (uT),MockIMU - OriX,MockIMU - OriY,MockIMU - OriZ,MockIMU - OriW,MockGPS - Lat,MockGPS - Lon,MockGPS - Alt (m),MockGPS - Disp X (m),MockGPS - Disp Y (m),MockGPS - Disp Z (m),MockGPS - Fix Quality,MockGPS - Time of Day,E5 - Rel Steps,BR - Battery Voltage (V),BR - ALT (m),BR - PRES (Pa),BR - TEMP (C),BR - VEL (m/s),BR - ANG (deg),BR - ACCX (m/s^2),BR - ACCY (m/s^2),BR - ACCZ (m/s^2),BR - GYROX (rad/s),BR - GYROY (rad/s),BR - GYROZ (rad/s),BR - ROLL (deg),BR - TILT (deg)
10.550,0,0,0.000,0.000,0.000,0.000,0.000,0.000,0.000,0.000,0.000,0.000,0.000,0.0103675,0.000,9144.000,0.000,0.000,0.000,0.000,44307.690,0.000,0.000,0.000,0.000,0.000,0.000,0.000,0.000,0.000,0.000,0.000,0.000,0.000,1.000,0.0000000,0.0000000,0.000,0.000,0.000,0.000,0,00:00:00,0,0.000,0.000,0.000,0.000,0.000,0.000,0.000,0.000,0.000,0.000,0.000,0.000,0.000,0.000
10.651,0,0,0.000,0.000,0.000,0.000,0.000,0.000,0.000,0.000,0.000,0.000,0.000,0.0103675,0.000,9144.000,0.000,90.000,0.000,0.000,44307.690,0.000,0.000,0.000,0.000,0.000,0.000,0.000,0.000,0.000,0.000,0.000,0.000,0.000,1.000,0.0000000,0.0000000,0.000,0.000,0.000,0.000,0,00:00:00,0,0.000,0.000,0.000,0.000,0.000,0.000,0.000,0.000,0.000,0.000,0.000,0.000,0.000,0.000
10.752,0,0,-0.018,0.000,-4257.964,-0.734,0.006,-795.301,-7.302,0.056,-6.530,0.000,0.000,0.0103675,0.000,9144.000,0.000,90.000,1013.224,15.050,0.213,-8358.339,-9.789,0.048,0.364,0.013,0.000,0.029,0.000,0.000,0.000,0.002,0.374,0.001,0.927,0.0000000,0.0000000,0.000,0.000,0.000,0.000,0,00:00:00,0,0.000,0.000,0.000,0.000,0.000,0.000,0.000,0.000,0.000,0.000,0.000,0.000,0.000,0.000
10.853,0,0,-0.076,0.001,-4731.616,-1.189,0.012,-869.642,-4.574,0.066,-8.972,0.000,0.000,0.0103675,0.000,9144.000,2.341,46.064,1013.260,15.050,-0.082,-5475.100,-10.060,0.051,0.466,-0.026,-0.000,0.002,0.000,0.000,0.000,0.001,0.542,0.002,0.840,0.0000000,0.0000000,0.000,0.000,0.000,0.000,0,00:00:00,0,0.000,0.000,0.000,0.000,0.000,0.000,0.000,0.000,0.000,0.000,0.000,0.000,0.000,0.000
10.954,0,0,-0.155,0.002,-4630.340,-1.464,0.018,-834.300,-2.829,0.058,-9.322,0.000,0.000,0.0103675,0.000,9144.000,2.560,24.359,1013.235,15.050,0.122,-4104.054,-9.727,0.053,0.534,-0.010,0.004,-0.039,0.000,0.000,0.000,0.001,0.617,0.001,0.787,0.0000000,0.0000000,0.000,0.000,0.000,0.000,0,00:00:00,0,0.000,0.000,0.000,0.000,0.000,0.000,0.000,0.000,0.000,0.000,0.000,0.000,0.000,0.000
11.055,0,0,-0.244,0.003,-4407.252,-1.606,0.019,-772.728,-1.525,0.010,-9.773,0.000,0.000,0.0103675,0.000,9144.000,2.456,13.740,1013.247,15.050,0.025,-3289.987,-9.888,-0.003,0.239,-0.007,0.026,0.025,0.000,0.000,0.000,0.001,0.659,0.001,0.752,0.0000000,0.0000000,0.000,0.000,0.000,0.000,0,00:00:00,0,0.000,0.000,0.000,0.000,0.000,0.000,0.000,0.000,0.000,0.000,0.000,0.000,0.000,0.000
11.156,0,0,-0.336,0.004,-4165.946,-1.692,0.021,-702.497,-0.989,0.018,-9.841,0.000,0.000,0.0103675,0.000,9144.000,2.275,7.486,1013.247,15.050,0.025,-2747.938,-9.888,-0.003,0.239,-0.007,0.026,0.025,0.000,0.000,0.000,0.000,0.680,0.002,0.733,0.0000000,0.0000000,0.000,0.000,0.000,0.000,0,00:00:00,0,0.000,0.000,0.000,0.000,0.000,0.000,0.000,0.000,0.000,0.000,0.000,0.000,0.000,0.000
11.257,0,0,-0.430,0.005,-3933.579,-1.773,0.026,-627.364,-0.951,0.051,-9.896,0.000,0.000,0.0103675,0.000,9144.000,2.068,4.359,1013.255,15.050,-0.042,-2360.352,-9.935,0.004,0.378,-0.030,-0.016,-0.032,0.000,0.000,0.000,-0.002,0.686,0.002,0.727,0.0000000,0.0000000,0.000,0.000,0.000,0.000,0,00:00:00,0,0.000,0.000,0.000,0.000,0.000,0.000,0.000,0.000,0.000,0.000,0.000,0.000,0.000,0.000
11.358,0,0,-0.526,0.007,-3715.915,-1.830,0.035,-547.538,-0.724,0.093,-9.498,0.000,0.000,0.0103675,0.000,9144.000,1.847,3.312,1013.263,15.047,-0.108,-2069.108,-9.521,0.044,0.294,-0.005,-0.020,-0.023,0.000,0.000,0.000,-0.001,0.691,0.002,0.723,0.0000000,0.0000000,0.000,0.000,0.000,0.000,0,00:00:00,0,0.000,0.000,0.000,0.000,0.000,0.000,0.000,0.000,0.000,0.000,0.000,0.000,0.000,0.000
11.459,0,0,-0.623,0.010,-3512.108,-1.883,0.053,-462.576,-0.711,0.183,-9.805,0.000,0.000,0.0103675,0.000,9144.000,1.612,2.596,1013.283,15.049,-0.272,-1842.209,-9.827,0.118,0.319,-0.014,-0.022,-0.039,0.000,0.000,0.000,-0.001,0.693,0.004,0.721,0.0000000,0.0000000,0.000,0.000,0.000,0.000,0,00:00:00,0,0.000,0.000,0.000,0.000,0.000,0.000,0.000,0.000,0.000,0.000,0.000,0.000,0.000,0.000
11.560,0,0,-0.719,0.014,-3342.286,-1.921,0.062,-380.794,-0.571,0.091,-9.829,0.000,0.000,0.0103675,0.000,9144.000,1.362,2.293,1013.280,15.051,-0.248,-1842.185,-9.843,0.007,0.253,-0.021,0.011,-0.019,0.000,0.000,0.000,-0.002,0.696,0.004,0.718,0.0000000,0.0000000,0.000,0.000,0.000,0.000,0,00:00:00,0,0.000,0.000,0.000,0.000,0.000,0.000,0.000,0.000,0.000,0.000,0.000,0.000,0.000,0.000
11.661,0,0,-0.815,0.019,-3195.327,-1.947,0.088,-300.760,-0.482,0.266,-9.643,0.000,0.000,0.0103675,0.000,9144.000,1.121,1.851,1013.263,15.050,-0.111,-1842.048,-9.655,0.176,0.201,-0.008,-0.058,-0.005,0.000,0.000,0.000,0.000,0.697,0.007,0.717,0.0000000,0.0000000,0.000,0.000,0.000,0.000,0,00:00:00,0,0.000,0.000,0.000,0.000,0.000,0.000,0.000,0.000,0.000,0.000,0.000,0.000,0.000,0.000
11.762,0,0,-0.910,0.026,-3063.916,-1.988,0.095,-221.985,-0.651,0.076,-9.771,0.000,0.000,0.0103675,0.000,9144.000,0.885,1.686,1013.216,15.050,0.285,-1841.652,-9.787,-0.000,0.344,0.017,0.019,0.014,0.000,0.000,0.000,-0.001,0.696,0.005,0.718,0.0000000,0.0000000,0.000,0.000,0.000,0.000,0,00:00:00,0,0.000,0.000,0.000,0.000,0.000,0.000,0.000,0.000,0.000,0.000,0.000,0.000,0.000,0.000
11.863,0,0,-1.004,0.032,-2943.366,-2.005,0.091,-144.625,-0.439,-0.032,-9.637,0.000,0.000,0.0103675,0.000,9144.000,0.654,1.796,1013.302,15.049,-0.429,-1842.366,-9.643,-0.136,0.207,-0.033,0.045,-0.006,0.000,0.000,0.000,-0.005,0.699,0.002,0.716,0.0000000,0.0000000,0.000,0.000,0.000,0.000,0,00:00:00,0,0.000,0.000,0.000,0.000,0.000,0.000,0.000,0.000,0.000,0.000,0.000,0.000,0.000,0.000
11.964,0,0,-1.097,0.037,-2830.408,-2.044,0.095,-69.184,-0.691,0.049,-9.814,0.000,0.000,0.0103675,0.000,9144.000,0.426,1.383,1013.249,15.048,0.005,-1841.933,-9.831,-0.048,0.387,0.007,0.017,0.006,0.000,0.000,0.000,-0.005,0.696,0.002,0.718,0.0000000,0.0000000,0.000,0.000,0.000,0.000,0,00:00:00,0,0.000,0.000,0.000,0.000,0.000,0.000,0.000,0.000,0.000,0.000,0.000,0.000,0.000,0.000
12.065,0,0,-1.190,0.043,-2723.202,-2.099,0.100,3.484,-0.886,0.063,-9.685,0.000,0.000,0.0103675,0.000,9144.000,0.204,1.770,1013.277,15.050,-0.225,-1842.163,-9.713,-0.038,0.499,-0.005,0.026,0.008,0.000,0.000,0.000,-0.005,0.693,0.002,0.721,0.0000000,0.0000000,0.000,0.000,0.000,0.000,0,00:00:00,0,0.000,0.000,0.000,0.000,0.000,0.000,0.000,0.000,0.000,0.000,0.000,0.000,0.000,0.000
12.166,0,0,-1.283,0.049,-2620.656,-2.140,0.118,72.392,-0.778,0.190,-9.902,0.000,0.000,0.0103675,0.000,9144.000,0.012,2.283,1013.245,15.050,0.040,-1841.897,-9.927,0.102,0.380,0.019,-0.024,0.014,0.000,0.000,0.000,-0.002,0.693,0.005,0.721,0.0000000,0.0000000,0.000,0.000,0.000,0.000,0,00:00:00,0,0.000,0.000,0.000,0.000,0.000,0.000,0.000,0.000,0.000,0.000,0.000,0.000,0.000,0.000
12.267,0,0,-1.375,0.056,-2522.454,-2.171,0.127,136.488,-0.733,0.113,-9.809,0.000,0.000,0.0103675,0.000,9144.000,0.213,2.305,1013.290,15.051,-0.336,-1842.273,-9.830,0.043,0.352,0.016,-0.017,-0.030,0.000,0.000,0.000,-0.001,0.693,0.003,0.721,0.0000000,0.0000000,0.000,0.000,0.000,0.000,0,00:00:00,0,0.000,0.000,0.000,0.000,0.000,0.000,0.000,0.000,0.000,0.000,0.000,0.000,0.000,0.000
12.368,0,0,-1.466,0.064,-2428.588,-2.236,0.132,194.842,-1.104,0.068,-9.896,0.000,0.000,0.0103675,0.000,9144.000,0.402,2.225,1013.280,15.051,-0.250,-1842.187,-9.940,-0.027,0.603,-0.026,-0.016,-0.004,0.000,0.000,0.000,-0.003,0.689,0.003,0.725,0.0000000,0.0000000,0.000,0.000,0.000,0.000,0,00:00:00,0,0.000,0.000,0.000,0.000,0.000,0.000,0.000,0.000,0.000,0.000,0.000,0.000,0.000,0.000
12.469,0,0,-1.557,0.071,-2339.327,-2.276,0.142,246.710,-0.912,0.119,-9.959,0.000,0.000,0.0103675,0.000,9144.000,0.574,2.893,1013.214,15.049,0.298,-1841.639,-9.991,0.053,0.447,0.032,0.019,0.015,0.000,0.000,0.000,-0.001,0.690,0.003,0.723,0.0000000,0.0000000,0.000,0.000,0.000,0.000,0,00:00:00,0,0.000,0.000,0.000,0.000,0.000,0.000,0.000,0.000,0.000,0.000,0.000,0.000,0.000,0.000
12.570,0,0,-1.644,0.079,-2134.591,-2.291,0.157,384.630,-0.720,0.181,-9.928,0.000,0.000,0.0103675,0.000,9144.000,0.726,2.673,1013.246,15.049,0.034,-879.381,-9.949,0.122,0.328,0.007,0.006,0.008,0.000,0.000,0.000,0.001,0.693,0.005,0.721,0.0000000,0.0000000,0.000,0.000,0.000,0.000,0,00:00:00,0,0.000,0.000,0.000,0.000,0.000,0.000,0.000,0.000,0.000,0.000,0.000,0.000,0.000,0.000
12.671,0,0,-1.725,0.088,-1827.750,-2.298,0.172,592.893,-0.684,0.174,-9.930,0.000,0.000,0.0103675,0.000,9144.000,1.132,2.265,1013.246,15.049,0.034,0.081,-9.949,0.122,0.328,0.007,0.006,0.008,0.000,0.000,0.000,0.002,0.694,0.005,0.720,0.0000000,0.0000000,0.000,0.000,0.000,0.000,0,00:00:00,0,0.000,0.000,0.000,0.000,0.000,0.000,0.000,0.000,0.000,0.000,0.000,0.000,0.000,0.000
12.772,0,0,-1.800,0.097,-1537.556,-2.267,0.159,772.802,-0.374,-0.086,-9.908,0.000,0.000,0.0103675,0.000,9144.000,1.745,2.061,1013.260,15.050,-0.080,-0.039,-9.914,-0.130,0.132,0.005,0.006,0.019,0.000,0.000,0.000,-0.002,0.698,0.001,0.716,0.0000000,0.0000000,0.000,0.000,0.000,0.000,0,00:00:00,0,0.000,0.000,0.000,0.000,0.000,0.000,0.000,0.000,0.000,0.000,0.000,0.000,0.000,0.000
12.873,0,0,-1.866,0.104,-1266.084,-2.267,0.169,924.068,-0.725,0.135,-9.923,0.000,0.000,0.0103675,0.000,9144.000,2.275,1.397,1013.199,15.050,0.425,0.500,-9.942,0.078,0.406,-0.010,0.008,0.011,0.000,0.000,0.000,-0.000,0.696,0.003,0.718,0.0000000,0.0000000,0.000,0.000,0.000,0.000,0,00:00:00,0,0.000,0.000,0.000,0.000,0.000,0.000,0.000,0.000,0.000,0.000,0.000,0.000,0.000,0.000
12.974,0,0,-1.927,0.111,-1015.060,-2.270,0.160,1047.166,-0.817,-0.044,-9.734,0.000,0.000,0.0103675,0.000,9144.000,2.720,1.843,1013.220,15.050,0.249,0.336,-9.758,-0.090,0.438,0.007,-0.008,0.009,0.000,0.000,0.000,-0.002,0.693,0.001,0.721,0.0000000,0.0000000,0.000,0.000,0.000,0.000,0,00:00:00,0,0.000,0.000,0.000,0.000,0.000,0.000,0.000,0.000,0.000,0.000,0.000,0.000,0.000,0.000
13.075,0,0,-1.981,0.117,-785.508,-2.261,0.163,1143.343,-0.734,0.078,-9.814,0.000,0.000,0.0103675,0.000,9144.000,3.083,2.231,1013.233,15.051,0.142,0.254,-9.835,0.052,0.359,0.023,-0.010,0.024,0.000,0.000,0.000,0.000,0.693,0.002,0.720,0.0000000,0.0000000,0.000,0.000,0.000,0.000,0,00:00:00,0,0.000,0.000,0.000,0.000,0.000,0.000,0.000,0.000,0.000,0.000,0.000,0.000,0.000,0.000
13.176,0,0,-2.028,0.123,-577.884,-2.231,0.176,1214.410,-0.589,0.183,-9.907,0.000,0.000,0.0103675,0.000,9144.000,3.366,2.189,1013.242,15.049,0.065,0.176,-9.922,0.117,0.271,-0.040,0.011,0.000,0.000,0.000,0.000,0.000,0.696,0.005,0.718,0.0000000,0.0000000,0.000,0.000,0.000,0.000,0,00:00:00,0,0.000,0.000,0.000,0.000,0.000,0.000,0.000,0.000,0.000,0.000,0.000,0.000,0.000,0.000
13.277,0,0,-2.066,0.129,-392.146,-2.207,0.172,1262.552,-0.682,0.017,-9.710,0.000,0.000,0.0103675,0.000,9144.000,3.575,1.846,1013.281,15.051,-0.258,-0.118,-9.728,-0.039,0.349,0.009,-0.005,0.027,0.000,0.000,0.000,-0.001,0.695,0.003,0.719,0.0000000,0.0000000,0.000,0.000,0.000,0.000,0,00:00:00,0,0.000,0.000,0.000,0.000,0.000,0.000,0.000,0.000,0.000,0.000,0.000,0.000,0.000,0.000
13.378,0,0,-2.098,0.134,-227.655,-2.187,0.167,1290.218,-0.770,0.011,-9.891,0.000,0.000,0.0103675,0.000,9144.000,3.717,1.964,1013.206,15.050,0.369,0.523,-9.912,-0.059,0.403,-0.016,0.007,-0.013,0.000,0.000,0.000,-0.003,0.694,0.002,0.720,0.0000000,0.0000000,0.000,0.000,0.000,0.000,0,00:00:00,0,0.000,0.000,0.000,0.000,0.000,0.000,0.000,0.000,0.000,0.000,0.000,0.000,0.000,0.000
13.479,0,0,-2.122,0.139,-83.780,-2.149,0.175,1299.711,-0.625,0.152,-9.836,0.000,0.000,0.0103675,0.000,9144.000,3.798,2.125,1013.305,15.051,-0.457,-0.359,-9.852,0.079,0.300,-0.003,0.013,-0.028,0.000,0.000,0.000,-0.002,0.695,0.003,0.719,0.0000000,0.0000000,0.000,0.000,0.000,0.000,0,00:00:00,0,0.000,0.000,0.000,0.000,0.000,0.000,0.000,0.000,0.000,0.000,0.000,0.000,0.000,0.000
13.580,0,0,-2.138,0.143,40.762,-2.114,0.180,1293.598,-0.679,0.111,-9.837,0.000,0.000,0.0103675,0.000,9144.000,3.826,1.896,1013.257,15.049,-0.060,0.009,-9.855,0.049,0.333,0.013,-0.034,0.028,0.000,0.000,0.000,-0.000,0.695,0.004,0.719,0.0000000,0.0000000,0.000,0.000,0.000,0.000,0,00:00:00,0,0.000,0.000,0.000,0.000,0.000,0.000,0.000,0.000,0.000,0.000,0.000,0.000,0.000,0.000
13.681,0,0,-2.148,0.147,147.174,-2.083,0.167,1274.170,-0.751,-0.058,-9.603,0.000,0.000,0.0103675,0.000,9144.000,3.808,2.015,1013.263,15.050,-0.108,-0.054,-9.624,-0.092,0.388,0.026,-0.002,0.022,0.000,0.000,0.000,-0.002,0.694,0.001,0.720,0.0000000,0.0000000,0.000,0.000,0.000,0.000,0,00:00:00,0,0.000,0.000,0.000,0.000,0.000,0.000,0.000,0.000,0.000,0.000,0.000,0.000,0.000,0.000
13.782,0,0,-2.151,0.149,236.828,-2.042,0.162,1243.575,-0.674,0.030,-9.638,0.000,0.000,0.0103675,0.000,9144.000,3.751,2.167,1013.265,15.053,-0.125,-0.034,-9.656,-0.009,0.331,-0.004,0.011,-0.003,0.000,0.000,0.000,-0.002,0.694,0.001,0.720,0.0000000,0.0000000,0.000,0.000,0.000,0.000,0,00:00:00,0,0.000,0.000,0.000,0.000,0.000,0.000,0.000,0.000,0.000,0.000,0.000,0.000,0.000,0.000
13.883,0,0,-2.148,0.151,311.143,-2.007,0.160,1203.806,-0.736,0.058,-9.805,0.000,0.000,0.0103675,0.000,9144.000,3.661,2.034,1013.233,15.051,0.143,0.148,-9.825,0.015,0.377,-0.004,0.008,-0.003,0.000,0.000,0.000,-0.002,0.694,0.002,0.720,0.0000000,0.0000000,0.000,0.000,0.000,0.000,0,00:00:00,0,0.000,0.000,0.000,0.000,0.000,0.000,0.000,0.000,0.000,0.000,0.000,0.000,0.000,0.000
13.984,0,0,-2.141,0.152,371.485,-1.970,0.159,1156.655,-0.741,0.063,-9.805,0.000,0.000,0.0103675,0.000,9144.000,3.544,2.093,1013.233,15.051,0.143,0.124,-9.825,0.015,0.377,-0.004,0.008,-0.003,0.000,0.000,0.000,-0.002,0.694,0.002,0.720,0.0000000,0.0000000,0.000,0.000,0.000,0.000,0,00:00:00,0,0.000,0.000,0.000,0.000,0.000,0.000,0.000,0.000,0.000,0.000,0.000,0.000,0.000,0.000
14.085,0,0,-2.128,0.153,419.190,-1.911,0.150,1103.691,-0.523,-0.003,-9.983,0.000,0.000,0.0103675,0.000,9144.000,3.405,2.123,1013.254,15.049,-0.031,-0.086,-9.995,-0.018,0.219,0.033,-0.018,-0.009,0.000,0.000,0.000,-0.001,0.696,0.000,0.718,0.0000000,0.0000000,0.000,0.000,0.000,0.000,0,00:00:00,0,0.000,0.000,0.000,0.000,0.000,0.000,0.000,0.000,0.000,0.000,0.000,0.000,0.000,0.000
14.186,0,0,-2.109,0.152,455.636,-1.857,0.133,1046.463,-0.567,-0.096,-9.505,0.000,0.000,0.0103675,0.000,9144.000,3.249,1.743,1013.221,15.051,0.242,0.184,-9.518,-0.104,0.285,0.005,0.010,-0.016,0.000,0.000,0.000,-0.003,0.697,-0.002,0.718,0.0000000,0.0000000,0.000,0.000,0.000,0.000,0,00:00:00,0,0.000,0.000,0.000,0.000,0.000,0.000,0.000,0.000,0.000,0.000,0.000,0.000,0.000,0.000
14.287,0,0,-2.084,0.149,482.044,-1.776,0.112,986.125,-0.308,-0.120,-9.796,0.000,0.000,0.0103675,0.000,9144.000,3.081,1.701,1013.206,15.052,0.368,0.303,-9.800,-0.103,0.114,0.026,0.012,-0.048,0.000,0.000,0.000,-0.003,0.700,-0.004,0.714,0.0000000,0.0000000,0.000,0.000,0.000,0.000,0,00:00:00,0,0.000,0.000,0.000,0.000,0.000,0.000,0.000,0.000,0.000,0.000,0.000,0.000,0.000,0.000
14.388,0,0,-2.054,0.146,499.503,-1.738,0.111,923.745,-0.714,0.064,-9.764,0.000,0.000,0.0103675,0.000,9144.000,2.903,1.148,1013.247,15.052,0.029,-0.099,-9.781,0.054,0.419,-0.027,0.025,0.011,0.000,0.000,0.000,-0.001,0.696,-0.000,0.718,0.0000000,0.0000000,0.000,0.000,0.000,0.000,0,00:00:00,0,0.000,0.000,0.000,0.000,0.000,0.000,0.000,0.000,0.000,0.000,0.000,0.000,0.000,0.000
14.489,0,0,-2.021,0.142,509.148,-1.663,0.098,860.307,-0.333,-0.053,-9.735,0.000,0.000,0.0103675,0.000,9144.000,2.719,1.728,1013.270,15.049,-0.169,-0.221,-9.740,-0.063,0.120,0.000,-0.013,0.003,0.000,0.000,0.000,-0.002,0.699,-0.001,0.715,0.0000000,0.0000000,0.000,0.000,0.000,0.000,0,00:00:00,0,0.000,0.000,0.000,0.000,0.000,0.000,0.000,0.000,0.000,0.000,0.000,0.000,0.000,0.000
14.590,0,0,-1.983,0.137,512.007,-1.585,0.085,796.642,-0.293,-0.053,-9.736,0.000,0.000,0.0103675,0.000,9144.000,2.533,1.254,1013.270,15.049,-0.169,-0.212,-9.740,-0.063,0.120,0.000,-0.013,0.003,0.000,0.000,0.000,-0.002,0.701,-0.001,0.713,0.0000000,0.0000000,0.000,0.000,0.000,0.000,0,00:00:00,0,0.000,0.000,0.000,0.000,0.000,0.000,0.000,0.000,0.000,0.000,0.000,0.000,0.000,0.000
14.691,0,0,-1.942,0.132,509.026,-1.553,0.076,733.456,-0.728,-0.022,-9.702,0.000,0.000,0.0103675,0.000,9144.000,2.345,1.017,1013.262,15.049,-0.101,-0.129,-9.719,-0.048,0.439,-0.018,0.033,0.017,0.000,0.000,0.000,-0.003,0.696,-0.000,0.718,0.0000000,0.0000000,0.000,0.000,0.000,0.000,0,00:00:00,0,0.000,0.000,0.000,0.000,0.000,0.000,0.000,0.000,0.000,0.000,0.000,0.000,0.000,0.000
14.792,0,0,-1.902,0.127,501.118,-1.516,0.080,671.390,-0.657,0.110,-9.598,0.000,0.000,0.0103675,0.000,9144.000,2.159,1.707,1013.202,15.047,0.397,0.373,-9.614,0.099,0.345,0.020,0.005,0.040,0.000,0.000,0.000,0.001,0.696,0.002,0.719,0.0000000,0.0000000,0.000,0.000,0.000,0.000,0,00:00:00,0,0.000,0.000,0.000,0.000,0.000,0.000,0.000,0.000,0.000,0.000,0.000,0.000,0.000,0.000
14.893,0,0,-1.860,0.122,488.938,-1.459,0.064,610.796,-0.445,-0.098,-9.869,0.000,0.000,0.0103675,0.000,9144.000,1.976,1.865,1013.254,15.048,-0.035,-0.031,-9.877,-0.128,0.178,-0.022,-0.037,-0.008,0.000,0.000,0.000,-0.003,0.697,-0.000,0.717,0.0000000,0.0000000,0.000,0.000,0.000,0.000,0,00:00:00,0,0.000,0.000,0.000,0.000,0.000,0.000,0.000,0.000,0.000,0.000,0.000,0.000,0.000,0.000
14.994,0,0,-1.817,0.116,473.270,-1.428,0.065,552.193,-0.671,0.081,-9.623,0.000,0.000,0.0103675,0.000,9144.000,1.798,1.555,1013.248,15.049,0.018,0.033,-9.640,0.070,0.359,0.020,-0.004,-0.027,0.000,0.000,0.000,-0.000,0.696,0.000,0.718,0.0000000,0.0000000,0.000,0.000,0.000,0.000,0,00:00:00,0,0.000,0.000,0.000,0.000,0.000,0.000,0.000,0.000,0.000,0.000,0.000,0.000,0.000,0.000
15.095,0,0,-1.776,0.110,454.749,-1.398,0.047,495.868,-0.654,-0.127,-9.683,0.000,0.000,0.0103675,0.000,9144.000,1.626,1.857,1013.256,15.050,-0.049,-0.017,-9.699,-0.135,0.346,0.000,0.044,0.001,0.000,0.000,0.000,-0.003,0.696,-0.002,0.718,0.0000000,0.0000000,0.000,0.000,0.000,0.000,0,00:00:00,0,0.000,0.000,0.000,0.000,0.000,0.000,0.000,0.000,0.000,0.000,0.000,0.000,0.000,0.000
15.196,0,0,-1.735,0.103,434.001,-1.359,0.027,442.094,-0.552,-0.134,-9.924,0.000,0.000,0.0103675,0.000,9144.000,1.460,1.824,1013.226,15.050,0.199,0.213,-9.935,-0.163,0.266,-0.023,0.007,-0.018,0.000,0.000,0.000,-0.006,0.697,-0.003,0.717,0.0000000,0.0000000,0.000,0.000,0.000,0.000,0,00:00:00,0,0.000,0.000,0.000,0.000,0.000,0.000,0.000,0.000,0.000,0.000,0.000,0.000,0.000,0.000
15.297,0,0,-1.694,0.096,411.456,-1.344,0.027,391.034,-0.760,0.051,-9.783,0.000,0.000,0.0103675,0.000,9144.000,1.301,1.657,1013.275,15.052,-0.211,-0.260,-9.804,0.033,0.417,0.009,0.014,-0.058,0.000,0.000,0.000,-0.003,0.695,-0.002,0.719,0.0000000,0.0000000,0.000,0.000,0.000,0.000,0,00:00:00,0,0.000,0.000,0.000,0.000,0.000,0.000,0.000,0.000,0.000,0.000,0.000,0.000,0.000,0.000
15.398,0,0,-1.657,0.089,387.735,-1.329,0.028,342.949,-0.748,0.058,-9.628,0.000,0.000,0.0103675,0.000,9144.000,1.151,2.005,1013.213,15.053,0.306,0.291,-9.649,0.010,0.397,-0.029,0.034,0.030,0.000,0.000,0.000,-0.002,0.694,0.001,0.720,0.0000000,0.0000000,0.000,0.000,0.000,0.000,0,00:00:00,0,0.000,0.000,0.000,0.000,0.000,0.000,0.000,0.000,0.000,0.000,0.000,0.000,0.000,0.000
15.499,0,0,-1.620,0.084,363.143,-1.292,0.034,297.805,-0.506,0.105,-9.848,0.000,0.000,0.0103675,0.000,9144.000,1.010,2.085,1013.239,15.050,0.089,0.046,-9.858,0.089,0.222,0.035,0.011,0.008,0.000,0.000,0.000,0.001,0.697,0.002,0.717,0.0000000,0.0000000,0.000,0.000,0.000,0.000,0,00:00:00,0,0.000,0.000,0.000,0.000,0.000,0.000,0.000,0.000,0.000,0.000,0.000,0.000,0.000,0.000
15.600,0,0,-1.584,0.079,338.049,-1.264,0.030,255.701,-0.569,-0.004,-9.626,0.000,0.000,0.0103675,0.000,9144.000,0.877,1.657,1013.274,15.050,-0.199,-0.231,-9.638,-0.007,0.291,0.013,0.014,0.001,0.000,0.000,0.000,0.001,0.697,0.001,0.717,0.0000000,0.0000000,0.000,0.000,0.000,0.000,0,00:00:00,0,0.000,0.000,0.000,0.000,0.000,0.000,0.000,0.000,0.000,0.000,0.000,0.000,0.000,0.000
15.701,0,0,-1.549,0.074,312.811,-1.245,0.016,216.628,-0.634,-0.092,-9.902,0.000,0.000,0.0103675,0.000,9144.000,0.753,1.653,1013.281,15.049,-0.257,-0.290,-9.917,-0.085,0.326,0.009,-0.006,-0.003,0.000,0.000,0.000,-0.001,0.696,-0.001,0.718,0.0000000,0.0000000,0.000,0.000,0.000,0.000,0,00:00:00,0,0.000,0.000,0.000,0.000,0.000,0.000,0.000,0.000,0.000,0.000,0.000,0.000,0.000,0.000
15.802,0,0,-1.515,0.068,287.752,-1.215,0.005,180.613,-0.514,-0.078,-10.046,0.000,0.000,0.0103675,0.000,9144.000,0.638,1.783,1013.246,15.050,0.033,-0.053,-10.056,-0.085,0.238,-0.016,-0.001,-0.012,0.000,0.000,0.000,-0.003,0.697,-0.002,0.717,0.0000000,0.0000000,0.000,0.000,0.000,0.000,0,00:00:00,0,0.000,0.000,0.000,0.000,0.000,0.000,0.000,0.000,0.000,0.000,0.000,0.000,0.000,0.000
15.903,0,0,-1.483,0.062,263.088,-1.226,0.005,147.650,-0.903,0.035,-9.550,0.000,0.000,0.0103675,0.000,9144.000,0.532,1.574,1013.241,15.050,0.078,0.011,-9.579,0.006,0.514,-0.024,-0.004,-0.002,0.000,0.000,0.000,-0.002,0.693,0.000,0.721,0.0000000,0.0000000,0.000,0.000,0.000,0.000,0,00:00:00,0,0.000,0.000,0.000,0.000,0.000,0.000,0.000,0.000,0.000,0.000,0.000,0.000,0.000,0.000
16.004,0,0,-1.455,0.056,238.996,-1.222,0.009,117.579,-0.738,0.071,-9.719,0.000,0.000,0.0103675,0.000,9144.000,0.435,2.332,1013.260,15.052,-0.087,-0.142,-9.740,0.054,0.350,0.017,-0.033,0.044,0.000,0.000,0.000,0.001,0.693,0.002,0.721,0.0000000,0.0000000,0.000,0.000,0.000,0.000,0,00:00:00,0,0.000,0.000,0.000,0.000,0.000,0.000,0.000,0.000,0.000,0.000,0.000,0.000,0.000,0.000
16.105,0,0,-1.430,0.052,215.650,-1.230,0.010,90.332,-0.835,0.037,-9.694,0.000,0.000,0.0103675,0.000,9144.000,0.346,2.288,1013.275,15.052,-0.204,-0.257,-9.721,-0.018,0.432,-0.041,0.012,-0.006,0.000,0.000,0.000,-0.002,0.692,0.002,0.722,0.0000000,0.0000000,0.000,0.000,0.000,0.000,0,00:00:00,0,0.000,0.000,0.000,0.000,0.000,0.000,0.000,0.000,0.000,0.000,0.000,0.000,0.000,0.000
16.206,0,0,-1.407,0.049,193.255,-1.230,0.031,65.838,-0.744,0.232,-9.790,0.000,0.000,0.0103675,0.000,9144.000,0.266,2.381,1013.234,15.053,0.134,0.085,-9.813,0.181,0.356,0.008,-0.019,-0.024,0.000,0.000,0.000,0.001,0.693,0.005,0.721,0.0000000,0.0000000,0.000,0.000,0.000,0.000,0,00:00:00,0,0.000,0.000,0.000,0.000,0.000,0.000,0.000,0.000,0.000,0.000,0.000,0.000,0.000,0.000
16.307,0,0,-1.386,0.048,171.855,-1.227,0.041,43.935,-0.709,0.123,-9.770,0.000,0.000,0.0103675,0.000,9144.000,0.194,2.281,1013.253,15.052,-0.021,-0.012,-9.791,0.076,0.337,0.003,-0.022,-0.007,0.000,0.000,0.000,0.001,0.693,0.004,0.720,0.0000000,0.0000000,0.000,0.000,0.000,0.000,0,00:00:00,0,0.000,0.000,0.000,0.000,0.000,0.000,0.000,0.000,0.000,0.000,0.000,0.000,0.000,0.000
16.408,0,0,-1.367,0.047,151.557,-1.208,0.052,24.517,-0.537,0.133,-9.656,0.000,0.000,0.0103675,0.000,9144.000,0.129,2.188,1013.244,15.049,0.051,0.032,-9.668,0.091,0.244,0.005,0.025,0.025,0.000,0.000,0.000,0.002,0.696,0.005,0.718,0.0000000,0.0000000,0.000,0.000,0.000,0.000,0,00:00:00,0,0.000,0.000,0.000,0.000,0.000,0.000,0.000,0.000,0.000,0.000,0.000,0.000,0.000,0.000
16.509,0,0,-1.349,0.048,132.424,-1.215,0.050,7.411,-0.777,0.008,-9.897,0.000,0.000,0.0103675,0.000,9144.000,0.072,1.745,1013.233,15.050,0.145,0.101,-9.918,-0.054,0.426,-0.020,0.026,0.013,0.000,0.000,0.000,-0.001,0.694,0.003,0.720,0.0000000,0.0000000,0.000,0.000,0.000,0.000,0,00:00:00,0,0.000,0.000,0.000,0.000,0.000,0.000,0.000,0.000,0.000,0.000,0.000,0.000,0.000,0.000
16.610,0,0,-1.333,0.047,114.456,-1.223,0.029,-7.526,-0.783,-0.183,-9.801,0.000,0.000,0.0103675,0.000,9144.000,0.022,2.029,1013.258,15.051,-0.063,-0.105,-9.822,-0.227,0.419,0.013,0.033,0.005,0.000,0.000,0.000,-0.005,0.694,-0.002,0.720,0.0000000,0.0000000,0.000,0.000,0.000,0.000,0,00:00:00,0,0.000,0.000,0.000,0.000,0.000,0.000,0.000,0.000,0.000,0.000,0.000,0.000,0.000,0.000
16.711,0,0,-1.319,0.045,97.722,-1.221,0.037,-20.401,-0.676,0.102,-9.675,0.000,0.000,0.0103675,0.000,9144.000,0.022,2.140,1013.247,15.051,0.022,-0.004,-9.694,0.037,0.323,-0.018,-0.022,0.010,0.000,0.000,0.000,-0.003,0.694,0.002,0.720,0.0000000,0.0000000,0.000,0.000,0.000,0.000,0,00:00:00,0,0.000,0.000,0.000,0.000,0.000,0.000,0.000,0.000,0.000,0.000,0.000,0.000,0.000,0.000
16.812,0,0,-1.306,0.045,82.254,-1.199,0.041,-31.367,-0.477,0.065,-9.749,0.000,0.000,0.0103675,0.000,9144.000,0.060,2.087,1013.218,15.049,0.266,0.276,-9.759,0.022,0.198,0.024,-0.003,0.001,0.000,0.000,0.000,-0.002,0.697,0.002,0.717,0.0000000,0.0000000,0.000,0.000,0.000,0.000,0,00:00:00,0,0.000,0.000,0.000,0.000,0.000,0.000,0.000,0.000,0.000,0.000,0.000,0.000,0.000,0.000
16.913,0,0,-1.292,0.045,67.969,-1.198,0.061,-40.625,-0.665,0.217,-9.784,0.000,0.000,0.0103675,0.000,9144.000,0.092,1.634,1013.243,15.052,0.058,0.057,-9.802,0.119,0.343,-0.054,-0.025,-0.014,0.000,0.000,0.000,-0.002,0.695,0.005,0.719,0.0000000,0.0000000,0.000,0.000,0.000,0.000,0,00:00:00,0,0.000,0.000,0.000,0.000,0.000,0.000,0.000,0.000,0.000,0.000,0.000,0.000,0.000,0.000
17.014,0,0,-1.280,0.048,54.883,-1.199,0.086,-48.287,-0.686,0.271,-9.781,0.000,0.000,0.0103675,0.000,9144.000,0.120,1.892,1013.243,15.052,0.058,0.068,-9.802,0.119,0.343,-0.054,-0.025,-0.014,0.000,0.000,0.000,-0.002,0.695,0.008,0.719,0.0000000,0.0000000,0.000,0.000,0.000,0.000,0,00:00:00,0,0.000,0.000,0.000,0.000,0.000,0.000,0.000,0.000,0.000,0.000,0.000,0.000,0.000,0.000
17.115,0,0,-1.271,0.051,42.936,-1.225,0.082,-54.525,-0.932,-0.003,-9.827,0.000,0.000,0.0103675,0.000,9144.000,0.142,2.021,1013.270,15.050,-0.165,-0.139,-9.857,-0.123,0.509,0.031,0.008,0.024,0.000,0.000,0.000,-0.005,0.692,0.004,0.722,0.0000000,0.0000000,0.000,0.000,0.000,0.000,0,00:00:00,0,0.000,0.000,0.000,0.000,0.000,0.000,0.000,0.000,0.000,0.000,0.000,0.000,0.000,0.000
17.216,0,0,-1.265,0.053,32.152,-1.250,0.068,-59.412,-0.904,-0.116,-9.716,0.000,0.000,0.0103675,0.000,9144.000,0.161,2.465,1013.244,15.049,0.047,0.079,-9.744,-0.241,0.470,-0.014,0.017,-0.015,0.000,0.000,0.000,-0.010,0.691,0.000,0.723,0.0000000,0.0000000,0.000,0.000,0.000,0.000,0,00:00:00,0,0.000,0.000,0.000,0.000,0.000,0.000,0.000,0.000,0.000,0.000,0.000,0.000,0.000,0.000
17.317,0,0,-1.260,0.054,22.448,-1.248,0.075,-63.133,-0.645,0.102,-9.815,0.000,0.000,0.0103675,0.000,9144.000,0.175,2.563,1013.247,15.051,0.022,0.035,-9.833,-0.008,0.293,0.020,0.032,-0.035,0.000,0.000,0.000,-0.007,0.694,0.001,0.720,0.0000000,0.0000000,0.000,0.000,0.000,0.000,0,00:00:00,0,0.000,0.000,0.000,0.000,0.000,0.000,0.000,0.000,0.000,0.000,0.000,0.000,0.000,0.000
17.418,0,0,-1.256,0.057,13.830,-1.256,0.089,-65.765,-0.745,0.166,-9.842,0.000,0.000,0.0103675,0.000,9144.000,0.186,2.046,1013.209,15.051,0.342,0.380,-9.864,0.061,0.377,0.009,-0.008,0.020,0.000,0.000,0.000,-0.004,0.694,0.004,0.720,0.0000000,0.0000000,0.000,0.000,0.000,0.000,0,00:00:00,0,0.000,0.000,0.000,0.000,0.000,0.000,0.000,0.000,0.000,0.000,0.000,0.000,0.000,0.000
17.519,0,0,-1.253,0.060,6.133,-1.248,0.086,-67.509,-0.571,0.003,-9.834,0.000,0.000,0.0103675,0.000,9144.000,0.194,2.138,1013.258,15.050,-0.063,-0.031,-9.847,-0.065,0.252,0.036,-0.019,0.016,0.000,0.000,0.000,-0.003,0.696,0.002,0.718,0.0000000,0.0000000,0.000,0.000,0.000,0.000,0,00:00:00,0,0.000,0.000,0.000,0.000,0.000,0.000,0.000,0.000,0.000,0.000,0.000,0.000,0.000,0.000
17.620,0,0,-1.251,0.062,-0.661,-1.280,0.085,-68.445,-0.982,0.022,-9.822,0.000,0.000,0.0103675,0.000,9144.000,0.199,1.857,1013.276,15.050,-0.220,-0.201,-9.856,-0.035,0.550,0.009,0.004,-0.018,0.000,0.000,0.000,-0.004,0.691,0.001,0.722,0.0000000,0.0000000,0.000,0.000,0.000,0.000,0,00:00:00,0,0.000,0.000,0.000,0.000,0.000,0.000,0.000,0.000,0.000,0.000,0.000,0.000,0.000,0.000
17.721,0,0,-1.251,0.064,-6.580,-1.290,0.080,-68.658,-0.755,-0.022,-9.840,0.000,0.000,0.0103675,0.000,9144.000,0.202,2.516,1013.270,15.052,-0.163,-0.172,-9.862,-0.060,0.368,0.021,0.025,0.035,0.000,0.000,0.000,-0.003,0.693,0.000,0.721,0.0000000,0.0000000,0.000,0.000,0.000,0.000,0,00:00:00,0,0.000,0.000,0.000,0.000,0.000,0.000,0.000,0.000,0.000,0.000,0.000,0.000,0.000,0.000
17.822,0,0,-1.251,0.065,-11.683,-1.279,0.089,-68.254,-0.542,0.125,-9.918,0.000,0.000,0.0103675,0.000,9144.000,0.202,2.255,1013.263,15.049,-0.104,-0.136,-9.930,0.121,0.236,0.037,0.013,-0.004,0.000,0.000,0.000,0.001,0.696,0.002,0.718,0.0000000,0.0000000,0.000,0.000,0.000,0.000,0,00:00:00,0,0.000,0.000,0.000,0.000,0.000,0.000,0.000,0.000,0.000,0.000,0.000,0.000,0.000,0.000
17.923,0,0,-1.250,0.068,-16.035,-1.263,0.094,-67.319,-0.500,0.089,-9.920,0.000,0.000,0.0103675,0.000,9144.000,0.201,1.771,1013.263,15.049,-0.104,-0.134,-9.930,0.121,0.236,0.037,0.013,-0.004,0.000,0.000,0.000,0.004,0.698,0.002,0.716,0.0000000,0.0000000,0.000,0.000,0.000,0.000,0,00:00:00,0,0.000,0.000,0.000,0.000,0.000,0.000,0.000,0.000,0.000,0.000,0.000,0.000,0.000,0.000
18.024,0,0,-1.248,0.070,-19.723,-1.271,0.094,-65.943,-0.737,0.031,-9.764,0.000,0.000,0.0103675,0.000,9144.000,0.198,1.528,1013.284,15.050,-0.283,-0.327,-9.783,0.075,0.407,0.015,0.006,-0.009,0.000,0.000,0.000,0.004,0.695,0.001,0.719,0.0000000,0.0000000,0.000,0.000,0.000,0.000,0,00:00:00,0,0.000,0.000,0.000,0.000,0.000,0.000,0.000,0.000,0.000,0.000,0.000,0.000,0.000,0.000
18.125,0,0,-1.249,0.071,-22.736,-1.294,0.074,-64.172,-0.885,-0.156,-9.814,0.000,0.000,0.0103675,0.000,9144.000,0.194,1.936,1013.250,15.051,-0.002,-0.050,-9.842,-0.107,0.480,-0.001,0.001,-0.016,0.000,0.000,0.000,0.001,0.692,-0.003,0.722,0.0000000,0.0000000,0.000,0.000,0.000,0.000,0,00:00:00,0,0.000,0.000,0.000,0.000,0.000,0.000,0.000,0.000,0.000,0.000,0.000,0.000,0.000,0.000
18.226,0,0,-1.249,0.070,-25.186,-1.279,0.051,-62.118,-0.502,-0.187,-9.851,0.000,0.000,0.0103675,0.000,9144.000,0.189,2.361,1013.263,15.050,-0.108,-0.147,-9.862,-0.139,0.195,-0.001,-0.017,-0.014,0.000,0.000,0.000,-0.002,0.696,-0.005,0.718,0.0000000,0.0000000,0.000,0.000,0.000,0.000,0,00:00:00,0,0.000,0.000,0.000,0.000,0.000,0.000,0.000,0.000,0.000,0.000,0.000,0.000,0.000,0.000
18.327,0,0,-1.248,0.068,-27.142,-1.253,0.047,-59.852,-0.403,-0.005,-9.880,0.000,0.000,0.0103675,0.000,9144.000,0.183,1.795,1013.286,15.049,-0.298,-0.342,-9.887,0.059,0.162,0.018,-0.011,-0.003,0.000,0.000,0.000,0.002,0.698,-0.003,0.716,0.0000000,0.0000000,0.000,0.000,0.000,0.000,0,00:00:00,0,0.000,0.000,0.000,0.000,0.000,0.000,0.000,0.000,0.000,0.000,0.000,0.000,0.000,0.000
18.428,0,0,-1.246,0.065,-28.612,-1.261,0.027,-57.382,-0.730,-0.172,-9.757,0.000,0.000,0.0103675,0.000,9144.000,0.176,1.398,1013.270,15.048,-0.168,-0.241,-9.777,-0.110,0.403,-0.005,-0.016,-0.031,0.000,0.000,0.000,-0.001,0.695,-0.005,0.719,0.0000000,0.0000000,0.000,0.000,0.000,0.000,0,00:00:00,0,0.000,0.000,0.000,0.000,0.000,0.000,0.000,0.000,0.000,0.000,0.000,0.000,0.000,0.000
18.529,0,0,-1.244,0.061,-29.661,-1.247,0.014,-54.790,-0.514,-0.096,-9.824,0.000,0.000,0.0103675,0.000,9144.000,0.169,1.926,1013.271,15.054,-0.178,-0.230,-9.835,-0.039,0.229,-0.004,-0.012,-0.004,0.000,0.000,0.000,-0.000,0.697,-0.004,0.717,0.0000000,0.0000000,0.000,0.000,0.000,0.000,0,00:00:00,0,0.000,0.000,0.000,0.000,0.000,0.000,0.000,0.000,0.000,0.000,0.000,0.000,0.000,0.000
18.630,0,0,-1.241,0.056,-30.338,-1.238,0.011,-52.111,-0.565,-0.000,-9.776,0.000,0.000,0.0103675,0.000,9144.000,0.161,1.664,1013.273,15.053,-0.195,-0.232,-9.789,0.027,0.266,-0.029,-0.050,0.013,0.000,0.000,0.000,0.001,0.696,-0.001,0.718,0.0000000,0.0000000,0.000,0.000,0.000,0.000,0,00:00:00,0,0.000,0.000,0.000,0.000,0.000,0.000,0.000,0.000,0.000,0.000,0.000,0.000,0.000,0.000
18.731,0,0,-1.239,0.052,-30.675,-1.261,0.004,-49.372,-0.882,-0.035,-9.682,0.000,0.000,0.0103675,0.000,9144.000,0.153,1.752,1013.266,15.048,-0.130,-0.148,-9.709,-0.007,0.494,0.002,0.013,0.014,0.000,0.000,0.000,0.001,0.693,-0.001,0.721,0.0000000,0.0000000,0.000,0.000,0.000,0.000,0,00:00:00,0,0.000,0.000,0.000,0.000,0.000,0.000,0.000,0.000,0.000,0.000,0.000,0.000,0.000,0.000
18.832,0,0,-1.240,0.047,-30.677,-1.303,0.009,-46.608,-1.067,0.073,-9.877,0.000,0.000,0.0103675,0.000,9144.000,0.145,2.295,1013.227,15.050,0.195,0.214,-9.918,0.087,0.574,-0.014,-0.017,-0.026,0.000,0.000,0.000,0.002,0.689,0.000,0.724,0.0000000,0.0000000,0.000,0.000,0.000,0.000,0,00:00:00,0,0.000,0.000,0.000,0.000,0.000,0.000,0.000,0.000,0.000,0.000,0.000,0.000,0.000,0.000
18.933,0,0,-1.243,0.044,-30.479,-1.306,0.008,-43.891,-0.684,0.009,-9.755,0.000,0.000,0.0103675,0.000,9144.000,0.137,2.853,1013.263,15.053,-0.112,-0.077,-9.775,0.029,0.284,0.005,-0.032,-0.010,0.000,0.000,0.000,0.002,0.692,0.000,0.721,0.0000000,0.0000000,0.000,0.000,0.000,0.000,0,00:00:00,0,0.000,0.000,0.000,0.000,0.000,0.000,0.000,0.000,0.000,0.000,0.000,0.000,0.000,0.000
19.034,0,0,-1.245,0.040,-30.083,-1.295,0.002,-41.246,-0.539,-0.039,-9.915,0.000,0.000,0.0103675,0.000,9144.000,0.129,2.350,1013.276,15.050,-0.214,-0.145,-9.927,-0.033,0.217,-0.015,-0.019,0.001,0.000,0.000,0.000,0.000,0.696,-0.000,0.718,0.0000000,0.0000000,0.000,0.000,0.000,0.000,0,00:00:00,0,0.000,0.000,0.000,0.000,0.000,0.000,0.000,0.000,0.000,0.000,0.000,0.000,0.000,0.000
19.135,0,0,-1.247,0.036,-29.449,-1.298,0.002,-38.599,-0.684,0.022,-9.664,0.000,0.000,0.0103675,0.000,9144.000,0.121,1.858,1013.220,15.049,0.250,0.303,-9.682,0.001,0.341,-0.026,-0.031,0.023,0.000,0.000,0.000,-0.000,0.694,0.001,0.720,0.0000000,0.0000000,0.000,0.000,0.000,0.000,0,00:00:00,0,0.000,0.000,0.000,0.000,0.000,0.000,0.000,0.000,0.000,0.000,0.000,0.000,0.000,0.000
19.236,0,0,-1.250,0.033,-28.698,-1.316,-0.001,-36.072,-0.837,-0.017,-9.734,0.000,0.000,0.0103675,0.000,9144.000,0.114,2.028,1013.242,15.052,0.063,0.131,-9.760,-0.035,0.446,0.002,0.007,-0.001,0.000,0.000,0.000,-0.001,0.693,0.000,0.721,0.0000000,0.0000000,0.000,0.000,0.000,0.000,0,00:00:00,0,0.000,0.000,0.000,0.000,0.000,0.000,0.000,0.000,0.000,0.000,0.000,0.000,0.000,0.000
19.337,0,0,-1.252,0.030,-27.814,-1.296,-0.001,-33.647,-0.466,0.018,-9.847,0.000,0.000,0.0103675,0.000,9144.000,0.106,2.301,1013.230,15.050,0.167,0.267,-9.856,-0.017,0.175,-0.017,-0.012,0.007,0.000,0.000,0.000,-0.002,0.697,0.001,0.717,0.0000000,0.0000000,0.000,0.000,0.000,0.000,0,00:00:00,0,0.000,0.000,0.000,0.000,0.000,0.000,0.000,0.000,0.000,0.000,0.000,0.000,0.000,0.000
19.438,0,0,-1.252,0.027,-26.837,-1.272,0.001,-31.335,-0.414,0.036,-9.849,0.000,0.000,0.0103675,0.000,9144.000,0.099,1.693,1013.230,15.050,0.167,0.318,-9.856,-0.017,0.175,-0.017,-0.012,0.007,0.000,0.000,0.000,-0.002,0.698,0.002,0.716,0.0000000,0.0000000,0.000,0.000,0.000,0.000,0,00:00:00,0,0.000,0.000,0.000,0.000,0.000,0.000,0.000,0.000,0.000,0.000,0.000,0.000,0.000,0.000
19.539,0,0,-1.251,0.024,-25.841,-1.271,-0.004,-29.176,-0.652,-0.032,-9.773,0.000,0.000,0.0103675,0.000,9144.000,0.092,1.389,1013.271,15.049,-0.173,-0.010,-9.789,-0.095,0.343,-0.011,-0.038,0.012,0.000,0.000,0.000,-0.004,0.696,0.001,0.718,0.0000000,0.0000000,0.000,0.000,0.000,0.000,0,00:00:00,0,0.000,0.000,0.000,0.000,0.000,0.000,0.000,0.000,0.000,0.000,0.000,0.000,0.000,0.000
19.640,0,0,-1.250,0.023,-24.784,-1.282,0.018,-27.138,-0.763,0.227,-9.813,0.000,0.000,0.0103675,0.000,9144.000,0.086,1.808,1013.258,15.051,-0.069,0.091,-9.835,0.156,0.417,-0.003,0.032,0.008,0.000,0.000,0.000,-0.000,0.695,0.005,0.719,0.0000000,0.0000000,0.000,0.000,0.000,0.000,0,00:00:00,0,0.000,0.000,0.000,0.000,0.000,0.000,0.000,0.000,0.000,0.000,0.000,0.000,0.000,0.000
19.741,0,0,-1.251,0.023,-23.698,-1.294,0.040,-25.233,-0.780,0.233,-9.812,0.000,0.000,0.0103675,0.000,9144.000,0.080,2.025,1013.258,15.051,-0.069,0.088,-9.835,0.156,0.417,-0.003,0.032,0.008,0.000,0.000,0.000,0.001,0.694,0.007,0.720,0.0000000,0.0000000,0.000,0.000,0.000,0.000,0,00:00:00,0,0.000,0.000,0.000,0.000,0.000,0.000,0.000,0.000,0.000,0.000,0.000,0.000,0.000,0.000
19.842,0,0,-1.253,0.026,-22.603,-1.307,0.063,-23.464,-0.788,0.238,-9.811,0.000,0.000,0.0103675,0.000,9144.000,0.074,2.134,1013.258,15.051,-0.069,0.058,-9.835,0.156,0.417,-0.003,0.032,0.008,0.000,0.000,0.000,0.002,0.693,0.008,0.720,0.0000000,0.0000000,0.000,0.000,0.000,0.000,0,00:00:00,0,0.000,0.000,0.000,0.000,0.000,0.000,0.000,0.000,0.000,0.000,0.000,0.000,0.000,0.000
19.943,0,0,-1.255,0.030,-21.514,-1.326,0.077,-21.830,-0.841,0.154,-9.776,0.000,0.000,0.0103675,0.000,9144.000,0.069,2.188,1013.263,15.049,-0.112,0.016,-9.804,0.067,0.438,-0.007,0.001,-0.019,0.000,0.000,0.000,0.000,0.692,0.006,0.722,0.0000000,0.0000000,0.000,0.000,0.000,0.000,0,00:00:00,0,0.000,0.000,0.000,0.000,0.000,0.000,0.000,0.000,0.000,0.000,0.000,0.000,0.000,0.000
20.044,0,0,-1.260,0.035,-20.419,-1.346,0.097,-20.309,-0.861,0.220,-9.721,0.000,0.000,0.0103675,0.000,9144.000,0.064,2.369,1013.249,15.051,0.009,0.130,-9.751,0.105,0.441,-0.026,-0.002,0.033,0.000,0.000,0.000,0.000,0.692,0.008,0.722,0.0000000,0.0000000,0.000,0.000,0.000,0.000,0,00:00:00,0,0.000,0.000,0.000,0.000,0.000,0.000,0.000,0.000,0.000,0.000,0.000,0.000,0.000,0.000
20.145,0,0,-1.265,0.041,-19.371,-1.349,0.102,-18.955,-0.694,0.064,-9.887,0.000,0.000,0.0103675,0.000,9144.000,0.060,2.486,1013.268,15.049,-0.146,-0.050,-9.906,-0.047,0.318,0.003,-0.005,0.033,0.000,0.000,0.000,-0.002,0.694,0.006,0.720,0.0000000,0.0000000,0.000,0.000,0.000,0.000,0,00:00:00,0,0.000,0.000,0.000,0.000,0.000,0.000,0.000,0.000,0.000,0.000,0.000,0.000,0.000,0.000
20.246,0,0,-1.269,0.047,-18.293,-1.331,0.112,-17.667,-0.497,0.131,-9.757,0.000,0.000,0.0103675,0.000,9144.000,0.056,2.178,1013.214,15.052,0.296,0.374,-9.769,0.022,0.201,-0.000,-0.024,0.030,0.000,0.000,0.000,-0.002,0.696,0.006,0.718,0.0000000,0.0000000,0.000,0.000,0.000,0.000,0,00:00:00,0,0.000,0.000,0.000,0.000,0.000,0.000,0.000,0.000,0.000,0.000,0.000,0.000,0.000,0.000
20.347,0,0,-1.271,0.053,-17.319,-1.311,0.127,-16.553,-0.470,0.172,-9.744,0.000,0.000,0.0103675,0.000,9144.000,0.052,1.745,1013.265,15.049,-0.125,-0.093,-9.754,0.086,0.219,0.022,0.012,-0.030,0.000,0.000,0.000,-0.001,0.698,0.005,0.716,0.0000000,0.0000000,0.000,0.000,0.000,0.000,0,00:00:00,0,0.000,0.000,0.000,0.000,0.000,0.000,0.000,0.000,0.000,0.000,0.000,0.000,0.000,0.000
20.448,0,0,-1.270,0.060,-16.373,-1.287,0.126,-15.535,-0.426,0.018,-9.644,0.000,0.000,0.0103675,0.000,9144.000,0.049,1.482,1013.251,15.048,-0.008,-0.009,-9.651,-0.054,0.208,0.013,0.021,0.011,0.000,0.000,0.000,-0.002,0.699,0.003,0.715,0.0000000,0.0000000,0.000,0.000,0.000,0.000,0,00:00:00,0,0.000,0.000,0.000,0.000,0.000,0.000,0.000,0.000,0.000,0.000,0.000,0.000,0.000,0.000
20.549,0,0,-1.268,0.066,-15.478,-1.277,0.124,-14.660,-0.572,0.017,-9.943,0.000,0.000,0.0103675,0.000,9144.000,0.046,1.296,1013.256,15.050,-0.048,-0.050,-9.954,-0.038,0.313,0.019,0.020,0.015,0.000,0.000,0.000,-0.002,0.698,0.002,0.716,0.0000000,0.0000000,0.000,0.000,0.000,0.000,0,00:00:00,0,0.000,0.000,0.000,0.000,0.000,0.000,0.000,0.000,0.000,0.000,0.000,0.000,0.000,0.000
