Time (s),Pos X (m),Pos Y (m),Pos Z (m),Vel X (m/s),Vel Y (m/s),Vel Z (m/s),Acc X (m/s²),Acc Y (m/s²),Acc Z (m/s²)
0.1,0.0,0.0,0.0,0.0,0.0,0.0,0.0,0.0,-9.8
0.2,0.0,0.0,0.0,0.0,0.0,0.0,0.0,0.0,-9.8
0.30000000000000004,0.0,0.0,0.0,0.0,0.0,0.0,0.0,0.0,-9.8
0.4,0.0,0.0,0.0,0.0,0.0,0.0,0.0,0.0,-9.8
0.5,0.0,0.0,0.0,0.0,0.0,0.0,0.0,0.0,-9.8
0.6,0.0,0.0,0.0,0.0,0.0,0.0,0.0,0.0,-9.8
0.7,0.0,0.0,0.0,0.0,0.0,0.0,0.0,0.0,-9.8
0.7999999999999999,0.0,0.0,0.0,0.0,0.0,0.0,0.0,0.0,-9.8
0.8999999999999999,0.0,0.0,0.0,0.0,0.0,0.0,0.0,0.0,-9.8
0.9999999999999999,0.0,0.0,0.0,0.0,0.0,0.0,0.0,0.0,-9.8
1.0999999999999999,0.0,0.0,0.0,0.0,0.0,0.0,0.0,0.0,-9.8
1.2,0.0,0.0,0.0,0.0,0.0,0.0,0.0,0.0,-9.8
1.3,0.0,0.0,0.0,0.0,0.0,0.0,0.0,0.0,-9.8
1.4000000000000001,0.0,0.0,0.0,0.0,0.0,0.0,0.0,0.0,-9.8
1.5000000000000002,0.0,0.0,0.0,0.0,0.0,0.0,0.0,0.0,-9.8
1.6000000000000003,0.0,0.0,0.0,0.0,0.0,0.0,0.0,0.0,-9.8
1.7000000000000004,0.0,0.0,0.0,0.0,0.0,0.0,0.0,0.0,-9.8
1.8000000000000005,0.0,0.0,0.0,0.0,0.0,0.0,0.0,0.0,-9.8
1.9000000000000006,0.0,0.0,0.0,0.0,0.0,0.0,0.0,0.0,-9.8
2.0000000000000004,0.0,0.0,0.0,0.0,0.0,0.0,0.0,0.0,-9.8
2.1000000000000005,0.0,0.0,0.0,0.0,0.0,0.0,0.0,0.0,-9.8
2.2000000000000006,0.0,0.0,0.0,0.0,0.0,0.0,0.0,0.0,-9.8
2.3000000000000007,0.0,0.0,0.0,0.0,0.0,0.0,0.0,0.0,-9.8
2.400000000000001,0.0,0.0,0.0,0.0,0.0,0.0,0.0,0.0,-9.8
2.500000000000001,0.0,0.0,0.0,0.0,0.0,0.0,0.0,0.0,-9.8
2.600000000000001,0.0,0.0,0.0,0.0,0.0,0.0,0.0,0.0,-9.8
2.700000000000001,0.0,0.0,0.0,0.0,0.0,0.0,0.0,0.0,-9.8
2.800000000000001,0.0,0.0,0.0,0.0,0.0,0.0,0.0,0.0,-9.8
2.9000000000000012,0.0,0.0,0.0,0.0,0.0,0.0,0.0,0.0,-9.8
3.0000000000000013,0.0,0.0,0.0,0.0,0.0,0.0,0.0,0.0,-9.8
3.1000000000000014,0.0,0.0,0.0,0.0,0.0,0.0,0.0,0.0,-9.8
3.2000000000000015,0.0,0.0,0.0,0.0,0.0,0.0,0.0,0.0,-9.8
3.3000000000000016,0.0,0.0,0.0,0.0,0.0,0.0,0.0,0.0,-9.8
3.4000000000000017,0.0,0.0,0.0,0.0,0.0,0.0,0.0,0.0,-9.8
3.5000000000000018,0.0,0.0,0.0,0.0,0.0,0.0,0.0,0.0,-9.8
3.600000000000002,0.0,0.0,0.0,0.0,0.0,0.0,0.0,0.0,-9.8
3.700000000000002,0.0,0.0,0.0,0.0,0.0,0.0,0.0,0.0,-9.8
3.800000000000002,0.0,0.0,0.0,0.0,0.0,0.0,0.0,0.0,-9.8
3.900000000000002,0.0,0.0,0.0,0.0,0.0,0.0,0.0,0.0,-9.8
4.000000000000002,0.0,0.0,0.0,0.0,0.0,0.0,0.0,0.0,-9.8
4.100000000000001,0.0,0.0,0.0,0.0,0.0,0.0,0.0,0.0,-9.8
4.200000000000001,0.0,0.0,0.0,0.0,0.0,0.0,0.0,0.0,-9.8
4.300000000000001,0.0,0.0,0.0,0.0,0.0,0.0,0.0,0.0,-9.8
4.4,0.0,0.0,0.0,0.0,0.0,0.0,0.0,0.0,-9.8
4.5,0.0,0.0,0.0,0.0,0.0,0.0,0.0,0.0,-9.8
4.6,0.0,0.0,0.0,0.0,0.0,0.0,0.0,0.0,-9.8
4.699999999999999,0.0,0.0,0.0,0.0,0.0,0.0,0.0,0.0,-9.8
4.799999999999999,0.0,0.0,0.0,0.0,0.0,0.0,0.0,0.0,-9.8
4.899999999999999,0.0,0.0,0.0,0.0,0.0,0.0,0.0,0.0,-9.8
4.999999999999998,0.0,0.0,0.0,0.0,0.0,0.0,0.0,0.0,-9.8
5.099999999999998,0.0,0.0,0.7544943711430387,0.0,0.0,5.029962474286925,0.0,0.0,50.29962474286924
5.1999999999999975,0.0,0.0,2.0147962162433775,0.0,0.0,10.078666458764564,0.0,0.0,50.48703984477639
5.299999999999997,0.0,0.0,3.7827078936842,0.0,0.0,15.145633335860335,0.0,0.0,50.6696687709577
5.399999999999997,0.0,0.0,6.0599822908747285,0.0,0.0,20.2303737598903,0.0,0.0,50.847404240299625
5.4999999999999964,0.0,0.0,8.848321790257126,0.0,0.0,25.332387915846084,0.0,0.0,51.02014155955786
5.599999999999996,0.0,0.0,12.14937726364266,0.0,0.0,30.451165794518914,0.0,0.0,51.187778786728316
5.699999999999996,0.0,0.0,15.964747096490868,0.0,0.0,35.5861874838277,0.0,0.0,51.35021689308782
5.799999999999995,0.0,0.0,20.295976243726635,0.0,0.0,40.736923476181005,0.0,0.0,51.50735992353303
5.899999999999995,0.0,0.0,25.144555318667376,0.0,0.0,45.902834991665266,0.0,0.0,51.659115154842624
5.999999999999995,0.0,0.0,30.51191971660618,0.0,0.0,51.08337431681378,0.0,0.0,51.80539325148517
6.099999999999994,0.0,0.0,36.39944877456647,0.0,0.0,56.2779851586732,0.0,0.0,51.946108418594164
6.199999999999994,0.0,0.0,42.80846496870978,0.0,0.0,61.486103013846424,0.0,0.0,52.081178551732265
6.299999999999994,0.0,0.0,49.74023315084043,0.0,0.0,66.70715555215317,0.0,0.0,52.21052538306748
6.399999999999993,0.0,0.0,57.19595982540957,0.0,0.0,71.94056301451197,0.0,0.0,52.33407462358794
6.499999999999993,0.0,0.0,65.17679246837555,0.0,0.0,77.18573862461054,0.0,0.0,52.45175610098566
6.5999999999999925,0.0,0.0,73.68381888922929,0.0,0.0,82.44208901389507,0.0,0.0,52.56350389284529
6.699999999999992,0.0,0.0,82.71806663744051,0.0,0.0,87.70901465937321,0.0,0.0,52.66925645478143
6.799999999999992,0.0,0.0,92.28050245452548,0.0,0.0,92.98591033369085,0.0,0.0,52.768956743176375
6.8999999999999915,0.0,0.0,102.37203177287725,0.0,0.0,98.27216556690882,0.0,0.0,52.86255233217969
6.999999999999991,0.0,0.0,112.99349826243778,0.0,0.0,103.56716511937314,0.0,0.0,52.94999552464313
7.099999999999991,0.0,0.0,124.14568342622525,0.0,0.0,108.87028946504077,0.0,0.0,53.031243456676194
7.19999999999999,0.0,0.0,135.82930624566217,0.0,0.0,114.18091528459298,0.0,0.0,53.10625819552219
7.29999999999999,0.0,0.0,148.0450228765785,0.0,0.0,119.49841596763993,0.0,0.0,53.17500683046946
7.39999999999999,0.0,0.0,160.79342639669045,0.0,0.0,124.82216212329287,0.0,0.0,53.237461556529425
7.499999999999989,0.0,0.0,174.0750466052792,0.0,0.0,130.15152209835588,0.0,0.0,53.29359975063025
7.599999999999989,0.0,0.0,187.8903498757162,0.0,0.0,135.48586250236528,0.0,0.0,53.34340404009393
7.699999999999989,0.0,0.0,202.23973906140048,0.0,0.0,140.82454873868375,0.0,0.0,53.386862363184676
7.799999999999988,0.0,0.0,217.12355345559192,0.0,0.0,146.16694554083745,0.0,0.0,53.423968021536965
7.899999999999988,0.0,0.0,232.54206880554005,0.0,0.0,151.51241751326677,0.0,0.0,53.4547197242933
7.999999999999988,0.0,0.0,248.4954973812238,0.0,0.0,156.86032967564725,0.0,0.0,53.47912162380476
8.099999999999987,0.0,0.0,264.98398809893007,0.0,0.0,162.21004800992426,0.0,0.0,53.49718334277013
8.199999999999987,0.0,0.0,282.0076266998132,0.0,0.0,167.56094000919563,0.0,0.0,53.50891999271357
8.299999999999986,0.0,0.0,299.56643598348865,0.0,0.0,172.91237522756816,0.0,0.0,53.51435218372521
8.399999999999986,0.0,0.0,317.6603760966267,0.0,0.0,178.26372583010954,0.0,0.0,53.51350602541366
8.499999999999986,0.0,0.0,336.28934487642334,0.0,0.0,183.61436714201403,0.0,0.0,53.50641311904505
8.599999999999985,0.0,0.0,355.45317824873774,0.0,0.0,188.96367819610083,0.0,0.0,53.493110540867974
8.699999999999985,0.0,0.0,375.1516506805976,0.0,0.0,194.3110422777658,0.0,0.0,53.47364081664966
8.799999999999985,0.0,0.0,395.3844756866863,0.0,0.0,199.6558474665132,0.0,0.0,53.448051887473866
8.899999999999984,0.0,0.0,416.1513063893408,0.0,0.0,204.99748717320085,0.0,0.0,53.41639706687653
8.999999999999984,0.0,0.0,437.4517361315022,0.0,0.0,210.33536067214283,0.0,0.0,53.37873498941981
9.099999999999984,0.0,0.0,459.2852991419789,0.0,0.0,215.6688736272259,0.0,0.0,53.335129550830715
9.199999999999983,0.0,0.0,481.6514712522993,0.0,0.0,220.99743861121127,0.0,0.0,53.28564983985369
9.299999999999983,0.0,0.0,504.5496706643503,0.0,0.0,226.3204756174104,0.0,0.0,53.23037006199138
9.399999999999983,0.0,0.0,527.9792587679212,0.0,0.0,231.63741256294338,0.0,0.0,53.1693694553297
9.499999999999982,0.0,0.0,551.9395410071955,0.0,0.0,236.94768578281003,0.0,0.0,53.102732198666544
9.599999999999982,0.0,0.0,576.4297677951594,0.0,0.0,242.25074051402845,0.0,0.0,53.03054731218438
9.699999999999982,0.0,0.0,601.4491354748261,0.0,0.0,247.54603136912118,0.0,0.0,52.952908550927276
9.799999999999981,0.0,0.0,626.9967873261087,0.0,0.0,252.83302279825747,0.0,0.0,52.869914291362846
9.89999999999998,0.0,0.0,653.0718146171043,0.0,0.0,258.11118953939024,0.0,0.0,52.78166741132746
9.99999999999998,0.0,0.0,679.6732576984984,0.0,0.0,263.38001705575726,0.0,0.0,52.68827516367023
10.09999999999998,0.0,0.0,706.8001071397331,0.0,0.0,268.63900196015,0.0,0.0,52.58984904392733
10.19999999999998,0.0,0.0,734.4513049055337,0.0,0.0,273.8876524253873,0.0,0.0,52.48650465237266
10.29999999999998,0.0,0.0,762.6257455713345,0.0,0.0,279.1254885804677,0.0,0.0,52.3783615508038
10.399999999999979,0.0,0.0,791.3222775760978,0.0,0.0,284.35204289191114,0.0,0.0,52.265543114434564
10.499999999999979,0.0,0.0,820.539704510978,0.0,0.0,289.56686052983866,0.0,0.0,52.14817637927517
10.599999999999978,0.0,0.0,850.2767864422427,0.0,0.0,294.7694997183777,0.0,0.0,52.02639188539038
10.699999999999978,0.0,0.0,880.532241266827,0.0,0.0,299.959532070021,0.0,0.0,51.900323516433176
10.799999999999978,0.0,0.0,911.304746098867,0.0,0.0,305.13654290360677,0.0,0.0,51.7701083358576
10.899999999999977,0.0,0.0,942.592938685531,0.0,0.0,310.30013154562863,0.0,0.0,51.635886420218455
10.999999999999977,0.0,0.0,974.3954188504433,0.0,0.0,315.44991161462553,0.0,0.0,51.4978006899691
11.099999999999977,0.0,0.0,1006.7107499629784,0.0,0.0,320.5855112884425,0.0,0.0,51.35599673816952
11.199999999999976,0.0,0.0,1039.5374604316853,0.0,0.0,325.70657355419416,0.0,0.0,51.21062265751692
11.299999999999976,0.0,0.0,1072.8740452200964,0.0,0.0,330.8127564408052,0.0,0.0,51.06182886610999
11.399999999999975,0.0,0.0,1106.7189673831622,0.0,0.0,335.90373323404066,0.0,0.0,50.909767932354825
11.499999999999975,0.0,0.0,1141.0706596225575,0.0,0.0,340.9791926739823,0.0,0.0,50.7545943994167
11.599999999999975,0.0,0.0,1175.9275258591,0.0,0.0,346.0388391349439,0.0,0.0,50.596464609615765
11.699999999999974,0.0,0.0,1211.2879428205317,0.0,0.0,351.08239278785976,0.0,0.0,50.43553652915874
11.799999999999974,0.0,0.0,1247.1502616429216,0.0,0.0,356.10958974521884,0.0,0.0,50.271969573590695
11.899999999999974,0.0,0.0,1283.5128094839586,0.0,0.0,361.12018218865296,0.0,0.0,50.10592443434098
11.999999999999973,0.0,0.0,1320.3738911464247,0.0,0.0,366.11393847932584,0.0,0.0,49.93756290672877
12.099999999999973,0.0,0.0,1357.731790710154,0.0,0.0,371.090643251304,0.0,0.0,49.7670477197815
12.199999999999973,0.0,0.0,1395.5847731708075,0.0,0.0,376.0500974881248,0.0,0.0,49.59454236820751
12.299999999999972,0.0,0.0,1433.9310860838227,0.0,0.0,380.99211858281,0.0,0.0,49.42021094685202
12.399999999999972,0.0,0.0,1472.768961211923,0.0,0.0,385.9165403816051,0.0,0.0,49.24421798795106
12.499999999999972,0.0,0.0,1512.0966161746057,0.0,0.0,390.8232132117535,0.0,0.0,49.06672830148436
12.599999999999971,0.0,0.0,1551.9122560980647,0.0,0.0,395.71200389364475,0.0,0.0,48.88790681891261
12.69999999999997,0.0,0.0,1592.2140752640378,0.0,0.0,400.5827957377017,0.0,0.0,48.707918440569756
12.79999999999997,0.0,0.0,1633.0002587561123,0.0,0.0,405.4354885263981,0.0,0.0,48.526927886964174
12.89999999999997,0.0,0.0,1674.2689841020656,0.0,0.0,410.26999848182083,0.0,0.0,48.34509955422729
12.99999999999997,0.0,0.0,1716.0184229108565,0.0,0.0,415.0862582192139,0.0,0.0,48.16259737393071
13.09999999999997,0.0,0.0,1758.2467425029402,0.0,0.0,419.88421668696157,0.0,0.0,47.97958467747678
13.199999999999969,0.0,0.0,1800.9521075326152,0.0,0.0,424.6638390934866,0.0,0.0,47.79622406525037
13.299999999999969,0.0,0.0,1844.1326816011745,0.0,0.0,429.4251068215569,0.0,0.0,47.612677280702556
13.399999999999968,0.0,0.0,1887.7866288596729,0.0,0.0,434.1680173305089,0.0,0.0,47.42910508952009
13.499999999999968,0.0,0.0,1931.912115600184,0.0,0.0,438.8925840469107,0.0,0.0,47.24566716401772
13.599999999999968,0.0,0.0,1976.5073118344683,0.0,0.0,443.5988362441981,0.0,0.0,47.06252197287358
13.699999999999967,0.0,0.0,2021.5703928590328,0.0,0.0,448.28681891182924,0.0,0.0,46.87982667631138
13.799999999999967,0.0,0.0,2067.099540805618,0.0,0.0,452.9565926145109,0.0,0.0,46.69773702681668
13.899999999999967,0.0,0.0,2113.0929461762007,0.0,0.0,457.60823334205685,0.0,0.0,46.5164072754594
13.999999999999966,0.0,0.0,2159.5488093616646,0.0,0.0,462.2418323504446,0.0,0.0,46.33599008387789
14.099999999999966,0.0,0.0,2206.4653421433386,0.0,0.0,466.8574959946412,0.0,0.0,46.15663644196627
14.199999999999966,0.0,0.0,2253.840769176672,0.0,0.0,471.4553455537703,0.0,0.0,45.978495591290724
14.299999999999965,0.0,0.0,2301.673329456363,0.0,0.0,476.03551704919505,0.0,0.0,45.80171495424729
14.399999999999965,0.0,0.0,2349.9612777623165,0.0,0.0,480.59816105609104,0.0,0.0,45.62644006895975
14.499999999999964,0.0,0.0,2398.702886085874,0.0,0.0,485.14344250908135,0.0,0.0,45.45281452990318
14.599999999999964,0.0,0.0,2447.8964450357958,0.0,0.0,489.671540502504,0.0,0.0,45.280979934226565
14.699999999999964,0.0,0.0,2496.2487487010826,0.0,0.0,485.57253793608015,-0.0,0.0,-40.99002566423866
14.799999999999963,0.0,0.0,2544.2012556853174,0.0,0.0,481.5408925402596,-0.0,0.0,-40.3164539582051
14.899999999999963,0.0,0.0,2591.7604060341746,0.0,0.0,477.57463317246714,-0.0,0.0,-39.66259367792499
14.999999999999963,0.0,0.0,2638.932454188466,0.0,0.0,473.6718654194342,-0.0,0.0,-39.02767753032933
15.099999999999962,0.0,0.0,2685.723476096505,0.0,0.0,469.83076786006825,-0.0,0.0,-38.41097559365929
15.199999999999962,0.0,0.0,2732.1393759854277,0.0,0.0,466.0495885461768,-0.0,0.0,-37.81179313891454
15.299999999999962,0.0,0.0,2778.1858928110637,0.0,0.0,462.32664168629856,-0.0,0.0,-37.2294685987823
15.399999999999961,0.0,0.0,2823.868606404603,0.0,0.0,458.6603045190282,-0.0,0.0,-36.66337167270336
15.499999999999961,0.0,0.0,2869.19294333314,0.0,0.0,455.0490143632575,-0.0,0.0,-36.11290155770715
15.59999999999996,0.0,0.0,2914.164182490033,0.0,0.0,451.4912658337046,-0.0,0.0,-35.57748529552933
15.69999999999996,0.0,0.0,2958.7874604299936,0.0,0.0,447.9856082109719,-0.0,0.0,-35.05657622732649
15.79999999999996,0.0,0.0,3003.0677764628704,0.0,0.0,444.5306429561693,-0.0,0.0,-34.5496525480264
15.89999999999996,0.0,0.0,3047.009997519192,0.0,0.0,441.12502136086806,-0.0,0.0,-34.056215953012085
15.99999999999996,0.0,0.0,3090.618862799722,0.0,0.0,437.7674423238245,-0.0,0.0,-33.57579037043517
16.09999999999996,0.0,0.0,3133.8989882205096,0.0,0.0,434.4566502465246,-0.0,0.0,-33.107920772999265
16.19999999999996,0.0,0.0,3176.8548706642086,0.0,0.0,431.1914330401697,-0.0,0.0,-32.65217206354872
16.29999999999996,0.0,0.0,3219.490892047787,0.0,0.0,427.9706202372447,-0.0,0.0,-32.2081280292504
16.399999999999963,0.0,0.0,3261.8113232161177,0.0,0.0,424.793081201288,-0.0,0.0,-31.7753903595671
16.499999999999964,0.0,0.0,3303.8203276703925,0.0,0.0,421.6577234289282,-0.0,0.0,-31.35357772359773
16.599999999999966,0.0,0.0,3345.5219651397447,0.0,0.0,418.56349093865794,-0.0,0.0,-30.942324902702495
16.699999999999967,0.0,0.0,3386.920195003991,0.0,0.0,415.50936274119346,-0.0,0.0,-30.541281974645006
16.79999999999997,0.0,0.0,3428.0188795749236,0.0,0.0,412.49435138661636,-0.0,0.0,-30.150113545771173
16.89999999999997,0.0,0.0,3468.821787243165,0.0,0.0,409.51750158381566,-0.0,0.0,-29.768498028006984
16.99999999999997,0.0,0.0,3509.332595497181,0.0,0.0,406.5778888880457,-0.0,0.0,-29.396126957699245
17.099999999999973,0.0,0.0,3549.5548938206825,0.0,0.0,403.67461845269133,-0.0,0.0,-29.03270435354393
17.199999999999974,0.0,0.0,3589.492186474286,0.0,0.0,400.8068238415863,-0.0,0.0,-28.677946111049987
17.299999999999976,0.0,0.0,3629.147895166977,0.0,0.0,397.973665898469,-0.0,0.0,-28.331579431173115
17.399999999999977,0.0,0.0,3668.52536162261,0.0,0.0,395.1743316703765,-0.0,0.0,-27.99334228092505
17.49999999999998,0.0,0.0,3707.6278500463886,0.0,0.0,392.4080333819843,-0.0,0.0,-27.662982883922155
17.59999999999998,0.0,0.0,3746.4585494960024,0.0,0.0,389.6740074580861,-0.0,0.0,-27.340259238981766
17.69999999999998,0.0,0.0,3785.020576161836,0.0,0.0,386.9715135915852,-0.0,0.0,-27.02493866500882
17.799999999999983,0.0,0.0,3823.3169755604363,0.0,0.0,384.29983385453136,-0.0,0.0,-26.71679737053853
17.899999999999984,0.0,0.0,3861.350724645193,0.0,0.0,381.6582718498899,-0.0,0.0,-26.415620046414464
17.999999999999986,0.0,0.0,3899.1247338379794,0.0,0.0,379.0461519018712,-0.0,0.0,-26.121199480186636
18.099999999999987,0.0,0.0,3936.6418489853027,0.0,0.0,376.4628182827801,-0.0,0.0,-25.83333619091092
18.19999999999999,0.0,0.0,3973.904853242334,0.0,0.0,373.907634474468,-0.0,0.0,-25.551838083120906
18.29999999999999,0.0,0.0,4010.9164688879982,0.0,0.0,371.3799824625854,-0.0,0.0,-25.276520118826184
18.39999999999999,0.0,0.0,4047.67935907416,0.0,0.0,368.8792620619386,-0.0,0.0,-25.007204006467763
18.499999999999993,0.0,0.0,4084.1961295117662,0.0,0.0,366.4048902713554,-0.0,0.0,-24.743717905832238
18.599999999999994,0.0,0.0,4120.469330096682,0.0,0.0,363.95630065655615,-0.0,0.0,-24.485896147992477
18.699999999999996,0.0,0.0,4156.501456477797,0.0,0.0,361.5329427596158,-0.0,0.0,-24.233578969403133
18.799999999999997,0.0,0.0,4192.294951569868,0.0,0.0,359.13428153368216,-0.0,0.0,-23.98661225933639
18.9,0.0,0.0,4227.852207013438,0.0,0.0,356.7597968016926,-0.0,0.0,-23.744847319895626
19.0,0.0,0.0,4263.1755645840385,0.0,0.0,354.4089827379032,-0.0,0.0,-23.50814063789334
19.1,0.0,0.0,4298.26731755281,0.0,0.0,352.08134737111067,-0.0,0.0,-23.27635366792554
19.200000000000003,0.0,0.0,4333.129712000531,0.0,0.0,349.776412108509,-0.0,0.0,-23.049352626016233
19.300000000000004,0.0,0.0,4367.764948086983,0.0,0.0,347.4937112791845,-0.0,0.0,-22.827008293245605
19.400000000000006,0.0,0.0,4402.175181277469,0.0,0.0,345.23279169630337,-0.0,0.0,-22.609195828811316
19.500000000000007,0.0,0.0,4436.36252352822,0.0,0.0,342.9932122371027,-0.0,0.0,-22.395794592006954
19.60000000000001,0.0,0.0,4470.32904443234,0.0,0.0,340.7745434398394,-0.0,0.0,-22.186687972632633
19.70000000000001,0.0,0.0,4504.076772327883,0.0,0.0,338.5763671169011,-0.0,0.0,-21.98176322938305
19.80000000000001,0.0,0.0,4537.6076953695365,0.0,0.0,336.3982759833226,-0.0,0.0,-21.780911335785074
19.900000000000013,0.0,0.0,4570.9237625653695,0.0,0.0,334.23987329999426,-0.0,0.0,-21.584026833283232
20.000000000000014,0.0,0.0,4604.026884780003,0.0,0.0,332.10077253088474,-0.0,0.0,-21.39100769109504
20.100000000000016,0.0,0.0,4636.918935705504,0.0,0.0,329.98059701363667,-0.0,0.0,-21.201755172480677
20.200000000000017,0.0,0.0,4669.601752801261,0.0,0.0,327.8789796429274,-0.0,0.0,-21.016173707092516
20.30000000000002,0.0,0.0,4702.0771382040175,0.0,0.0,325.7955625660185,-0.0,0.0,-20.834170769089344
20.40000000000002,0.0,0.0,4734.346859609209,0.0,0.0,323.7299968899466,-0.0,0.0,-20.655656760718664
20.50000000000002,0.0,0.0,4766.412651124687,0.0,0.0,321.6819423998379,-0.0,0.0,-20.48054490108735
20.600000000000023,0.0,0.0,4798.276214097873,0.0,0.0,319.6510672878522,-0.0,0.0,-20.3087511198573
20.700000000000024,0.0,0.0,4829.939217917324,0.0,0.0,317.63704789229047,-0.0,0.0,-20.14019395561724
20.800000000000026,0.0,0.0,4861.403300789672,0.0,0.0,315.6395684464208,-0.0,0.0,-19.974794458696433
20.900000000000027,0.0,0.0,4892.670070492842,0.0,0.0,313.6583208366009,-0.0,0.0,-19.812476098198793
21.00000000000003,0.0,0.0,4923.741105106406,0.0,0.0,311.69300436929603,-0.0,0.0,-19.653164673048607
21.10000000000003,0.0,0.0,4954.617953719933,0.0,0.0,309.743325546611,-0.0,0.0,-19.49678822685043
21.20000000000003,0.0,0.0,4985.302137120098,0.0,0.0,307.8089978499733,-0.0,0.0,-19.343276966376713
21.300000000000033,0.0,0.0,5015.795148457343,0.0,0.0,305.88974153162263,-0.0,0.0,-19.1925631835069
21.400000000000034,0.0,0.0,5046.098453892799,0.0,0.0,303.98528341357746,-0.0,0.0,-19.044581180451445
21.500000000000036,0.0,0.0,5076.213493226185,0.0,0.0,302.09535669376714,-0.0,0.0,-18.89926719810303
21.600000000000037,0.0,0.0,5106.141680505351,0.0,0.0,300.21970075903056,-0.0,0.0,-18.756559347365926
21.70000000000004,0.0,0.0,5135.884404618105,0.0,0.0,298.35806100469836,-0.0,0.0,-18.616397543322307
21.80000000000004,0.0,0.0,5165.443029866943,0.0,0.0,296.51018866048815,-0.0,0.0,-18.478723442101874
21.90000000000004,0.0,0.0,5194.818896527287,0.0,0.0,294.6758406224553,-0.0,0.0,-18.3434803803282
22.000000000000043,0.0,0.0,5224.013321389777,0.0,0.0,292.85477929075313,-0.0,0.0,-18.21061331702189
22.100000000000044,0.0,0.0,5253.027598287184,0.0,0.0,291.04677241296844,-0.0,0.0,-18.080068777846797
22.200000000000045,0.0,0.0,5281.862998606457,0.0,0.0,289.2515929328093,-0.0,0.0,-17.951794801591653
22.300000000000047,0.0,0.0,5310.520771786406,0.0,0.0,287.4690188439308,-0.0,0.0,-17.825740888784743
22.40000000000005,0.0,0.0,5339.0021458015135,0.0,0.0,285.6988330486964,-0.0,0.0,-17.701857952344767
22.50000000000005,0.0,0.0,5367.3083276323305,0.0,0.0,283.9408232216788,-0.0,0.0,-17.580098270175824
22.60000000000005,0.0,0.0,5395.440503722904,0.0,0.0,282.1947816777169,-0.0,0.0,-17.460415439619183
22.700000000000053,0.0,0.0,5423.399840425671,0.0,0.0,280.460505244349,-0.0,0.0,-17.34276433367885
22.800000000000054,0.0,0.0,5451.187484434222,0.0,0.0,278.73779513845477,-0.0,0.0,-17.22710105894214
22.900000000000055,0.0,0.0,5478.80456320434,0.0,0.0,277.0264568469427,-0.0,0.0,-17.113382915120447
23.000000000000057,0.0,0.0,5506.252185363693,0.0,0.0,275.32630001132884,-0.0,0.0,-17.001568356138975
23.10000000000006,0.0,0.0,5533.531441110535,0.0,0.0,273.63713831605804,-0.0,0.0,-16.891616952707803
23.20000000000006,0.0,0.0,5560.643402601796,0.0,0.0,271.95878938042705,-0.0,0.0,-16.783489356310017
23.30000000000006,0.0,0.0,5587.589124330871,0.0,0.0,270.2910746539725,-0.0,0.0,-16.677147264545603
23.400000000000063,0.0,0.0,5614.369643495451,0.0,0.0,268.6338193151952,-0.0,0.0,-16.57255338777294
23.500000000000064,0.0,0.0,5640.985980355716,0.0,0.0,266.98685217349595,-0.0,0.0,-16.469671416992423
23.600000000000065,0.0,0.0,5667.439138583171,0.0,0.0,265.350005574204,-0.0,0.0,-16.368465992919536
23.700000000000067,0.0,0.0,5693.730105600449,0.0,0.0,263.7231153065843,-0.0,0.0,-16.268902676197
23.800000000000068,0.0,0.0,5719.8598529123265,0.0,0.0,262.1060205147145,-0.0,0.0,-16.17094791869821
23.90000000000007,0.0,0.0,5745.82933642826,0.0,0.0,260.4985636111269,-0.0,0.0,-16.074569035876298
24.00000000000007,0.0,0.0,5771.639496776671,0.0,0.0,258.90059019311536,-0.0,0.0,-15.97973418011544
24.100000000000072,0.0,0.0,5797.2912596112565,0.0,0.0,257.31194896161105,-0.0,0.0,-15.886412315042854
24.200000000000074,0.0,0.0,5822.7855359095565,0.0,0.0,255.73249164253485,-0.0,0.0,-15.79457319076203
24.300000000000075,0.0,0.0,5848.12322226401,0.0,0.0,254.16207291053792,-0.0,0.0,-15.704187319969488
24.400000000000077,0.0,0.0,5873.30520116574,0.0,0.0,252.600550315046,-0.0,0.0,-15.615225954919133
24.500000000000078,0.0,0.0,5898.332341281267,0.0,0.0,251.04778420852602,-0.0,0.0,-15.52766106519979
24.60000000000008,0.0,0.0,5923.205497722375,0.0,0.0,249.5036376768967,-0.0,0.0,-15.441465316293321
24.70000000000008,0.0,0.0,5947.925512309332,0.0,0.0,247.9679764720085,-0.0,0.0,-15.356612048881853
24.800000000000082,0.0,0.0,5972.493213827649,0.0,0.0,246.44066894612106,-0.0,0.0,-15.273075258874425
24.900000000000084,0.0,0.0,5996.909418278589,0.0,0.0,244.92158598830864,-0.0,0.0,-15.190829578124415
25.000000000000085,0.0,0.0,6021.174929123583,0.0,0.0,243.41060096272759,-0.0,0.0,-15.10985025581051
25.100000000000087,0.0,0.0,6045.290537522749,0.0,0.0,241.90758964868206,-0.0,0.0,-15.030113140455168
25.200000000000088,0.0,0.0,6069.257022567679,0.0,0.0,240.4124301824265,-0.0,0.0,-14.951594662555701
25.30000000000009,0.0,0.0,6093.075151508655,0.0,0.0,238.9250030006461,-0.0,0.0,-14.874271817804072
25.40000000000009,0.0,0.0,6116.745679976457,0.0,0.0,237.44519078555882,-0.0,0.0,-14.798122150872775
25.500000000000092,0.0,0.0,6140.269352198917,0.0,0.0,235.97287841158433,-0.0,0.0,-14.72312373974486
25.600000000000094,0.0,0.0,6163.646901212367,0.0,0.0,234.5079528935276,-0.0,0.0,-14.649255180567382
25.700000000000095,0.0,0.0,6186.879049068125,0.0,0.0,233.05030333622676,-0.0,0.0,-14.576495573008275
25.800000000000097,0.0,0.0,6209.966507034156,0.0,0.0,231.599820885617,-0.0,0.0,-14.504824506097554
25.900000000000098,0.0,0.0,6232.909975792049,0.0,0.0,230.15639868116352,-0.0,0.0,-14.434222044534586
26.0000000000001,0.0,0.0,6255.710145629434,0.0,0.0,228.71993180961914,-0.0,0.0,-14.364668715443928
26.1000000000001,0.0,0.0,6278.367696627963,0.0,0.0,227.29031726006284,-0.0,0.0,-14.296145495562941
26.200000000000102,0.0,0.0,6300.883298846987,0.0,0.0,225.86745388017832,-0.0,0.0,-14.228633798845157
26.300000000000104,0.0,0.0,6323.257612503037,0.0,0.0,224.45124233373193,-0.0,0.0,-14.162115464463973
26.400000000000105,0.0,0.0,6345.491288145233,0.0,0.0,223.04158505921174,-0.0,0.0,-14.096572745201936
26.500000000000107,0.0,0.0,6367.584966826711,0.0,0.0,221.6383862295906,-0.0,0.0,-14.031988296211495
26.600000000000108,0.0,0.0,6389.539280272208,0.0,0.0,220.24155171317724,-0.0,0.0,-13.968345164133634
26.70000000000011,0.0,0.0,6411.354851041878,0.0,0.0,218.8509890355211,-0.0,0.0,-13.905626776561414
26.80000000000011,0.0,0.0,6433.032292691452,0.0,0.0,217.4666073423375,-0.0,0.0,-13.84381693183591
26.900000000000112,0.0,0.0,6454.572209928849,0.0,0.0,216.08831736342125,-0.0,0.0,-13.78289978916266
27.000000000000114,0.0,0.0,6475.975198767305,0.0,0.0,214.71603137751754,-0.0,0.0,-13.722859859037035
27.100000000000115,0.0,0.0,6497.241846675148,0.0,0.0,213.34966317812078,-0.0,0.0,-13.66368199396762
27.200000000000117,0.0,0.0,6518.372732722268,0.0,0.0,211.9891280401721,-0.0,0.0,-13.605351379486953
27.300000000000118,0.0,0.0,6539.368427723403,0.0,0.0,210.63434268762813,-0.0,0.0,-13.547853525439523
27.40000000000012,0.0,0.0,6560.229494378303,0.0,0.0,209.28522526187442,-0.0,0.0,-13.491174257537207
27.50000000000012,0.0,0.0,6580.956487408853,0.0,0.0,207.94169529095714,-0.0,0.0,-13.435299709172863
27.600000000000122,0.0,0.0,6601.549953693247,0.0,0.0,206.60367365960883,-0.0,0.0,-13.380216313483054
27.700000000000124,0.0,0.0,6622.010432397273,0.0,0.0,205.27108258004372,-0.0,0.0,-13.325910795651172
27.800000000000125,0.0,0.0,6642.338455102796,0.0,0.0,203.94384556349945,-0.0,0.0,-13.272370165442817
27.900000000000126,0.0,0.0,6662.534545933496,0.0,0.0,202.6218873925029,-0.0,0.0,-13.219581709965318
28.000000000000128,0.0,0.0,6682.599221677947,0.0,0.0,201.30513409383855,-0.0,0.0,-13.167532986643755
28.10000000000013,0.0,0.0,6702.532991910085,0.0,0.0,199.99351291219793,-0.0,0.0,-13.116211816406118
28.20000000000013,0.0,0.0,6722.336359107148,0.0,0.0,198.68695228449087,-0.0,0.0,-13.065606277070506
28.300000000000132,0.0,0.0,6742.009818765144,0.0,0.0,197.3853818147981,-0.0,0.0,-13.015704696927518
28.400000000000134,0.0,0.0,6761.553859511896,0.0,0.0,196.088732249947,-0.0,0.0,-12.96649564851127
28.500000000000135,0.0,0.0,6780.968963217752,0.0,0.0,194.7969354556917,-0.0,0.0,-12.91796794255275
28.600000000000136,0.0,0.0,6800.25560510399,0.0,0.0,193.50992439348076,-0.0,0.0,-12.8701106221094
28.700000000000138,0.0,0.0,6819.414253848985,0.0,0.0,192.22763309779424,-0.0,0.0,-12.82291295686508
28.80000000000014,0.0,0.0,6838.445371692201,0.0,0.0,190.94999665403475,-0.0,0.0,-12.776364437594788
28.90000000000014,0.0,0.0,6857.349414536043,0.0,0.0,189.67695117695587,-0.0,0.0,-12.73045477078869
29.000000000000142,0.0,0.0,6876.126832045637,0.0,0.0,188.40843378961284,-0.0,0.0,-12.685173873430278
29.100000000000144,0.0,0.0,6894.778067746579,0.0,0.0,187.14438260282049,-0.0,0.0,-12.640511867923587
29.200000000000145,0.0,0.0,6913.3035591207035,0.0,0.0,185.884736695104,-0.0,0.0,-12.596459077164624
29.300000000000146,0.0,0.0,6931.703737699918,0.0,0.0,184.62943609312876,-0.0,0.0,-12.553006019752385
29.400000000000148,0.0,0.0,6949.97902915815,0.0,0.0,183.37842175259527,-0.0,0.0,-12.510143405334894
29.50000000000015,0.0,0.0,6968.129853401459,0.0,0.0,182.13163553958668,-0.0,0.0,-12.46786213008601
29.60000000000015,0.0,0.0,6986.1566246563325,0.0,0.0,180.8890202123558,-0.0,0.0,-12.426153272308726
29.700000000000152,0.0,0.0,7004.059751556246,0.0,0.0,179.6505194035397,-0.0,0.0,-12.385008088161033
29.800000000000153,0.0,0.0,7021.839637226487,0.0,0.0,178.41607760278967,-0.0,0.0,-12.344418007500382
29.900000000000155,0.0,0.0,7039.496679367318,0.0,0.0,177.18564013980537,-0.0,0.0,-12.304374629843055
30.000000000000156,0.0,0.0,7057.031270335492,0.0,0.0,175.95915316776188,-0.0,0.0,-12.264869720434799
30.100000000000158,0.0,0.0,7074.443797224172,0.0,0.0,174.73656364711897,-0.0,0.0,-12.225895206429254
30.20000000000016,0.0,0.0,7091.734641941286,0.0,0.0,173.51781932980188,-0.0,0.0,-12.187443173170804
30.30000000000016,0.0,0.0,7108.904181286358,0.0,0.0,172.30286874374403,-0.0,0.0,-12.149505860578643
30.400000000000162,0.0,0.0,7125.952787025838,0.0,0.0,171.09166117778113,-0.0,0.0,-12.112075659628845
30.500000000000163,0.0,0.0,7142.880825966982,0.0,0.0,169.88414666688797,-0.0,0.0,-12.075145108931524
30.600000000000165,0.0,0.0,7159.6886600303,0.0,0.0,168.68027597774795,-0.0,0.0,-12.038706891400079
30.700000000000166,0.0,0.0,7176.376646320609,0.0,0.0,167.48000059464698,-0.0,0.0,-12.002753831009759
30.800000000000168,0.0,0.0,7192.94513719673,0.0,0.0,166.2832727056827,-0.0,0.0,-11.96727888964281
30.90000000000017,0.0,0.0,7209.394480339838,0.0,0.0,165.09004518928094,-0.0,0.0,-11.932275164017579
31.00000000000017,0.0,0.0,7225.725018820525,0.0,0.0,163.90027160101104,-0.0,0.0,-11.897735882699068
31.100000000000172,0.0,0.0,7241.937091164578,0.0,0.0,162.7139061606922,-0.0,0.0,-11.863654403188434
31.200000000000173,0.0,0.0,7258.031031417511,0.0,0.0,161.5309037397833,-0.0,0.0,-11.83002420908913
31.300000000000175,0.0,0.0,7274.007169207879,0.0,0.0,160.35121984904856,-0.0,0.0,-11.796838907347354
31.400000000000176,0.0,0.0,7289.865829809401,0.0,0.0,159.1748106264921,-0.0,0.0,-11.764092225564626
31.500000000000178,0.0,0.0,7305.607334201909,0.0,0.0,158.00163282555405,-0.0,0.0,-11.73177800938036
31.60000000000018,0.0,0.0,7321.231999131165,0.0,0.0,156.83164380356183,-0.0,0.0,-11.69989021992232
31.70000000000018,0.0,0.0,7336.740137167551,0.0,0.0,155.66480151042953,-0.0,0.0,-11.668422931323065
31.800000000000182,0.0,0.0,7352.13205676367,0.0,0.0,154.5010644775995,-0.0,0.0,-11.637370328300312
31.900000000000183,0.0,0.0,7367.408062310873,0.0,0.0,153.34039180721956,-0.0,0.0,-11.606726703799506
32.000000000000185,0.0,0.0,7382.568454194745,0.0,0.0,152.1827431615499,-0.0,0.0,-11.576486456696674
32.100000000000186,0.0,0.0,7397.613528849556,0.0,0.0,151.0280787525939,-0.0,0.0,-11.546644089559887
32.20000000000019,0.0,0.0,7412.543578811718,0.0,0.0,149.87635933194713,-0.0,0.0,-11.51719420646761
32.30000000000019,0.0,0.0,7427.358892772249,0.0,0.0,148.7275461808589,-0.0,0.0,-11.488131510882319
32.40000000000019,0.0,0.0,7442.059755628282,0.0,0.0,147.5816011005011,-0.0,0.0,-11.45945080357782
32.50000000000019,0.0,0.0,7456.646448533623,0.0,0.0,146.43848640243922,-0.0,0.0,-11.431146980618703
32.60000000000019,0.0,0.0,7471.119248948396,0.0,0.0,145.29816489930016,-0.0,0.0,-11.403215031390502
32.700000000000195,0.0,0.0,7485.4784306877755,0.0,0.0,144.16059989563226,-0.0,0.0,-11.375650036679083
32.800000000000196,0.0,0.0,7499.724263969837,0.0,0.0,143.02575517895247,-0.0,0.0,-11.34844716679791
32.9000000000002,0.0,0.0,7513.857015462536,0.0,0.0,141.89359501097627,-0.0,0.0,-11.321601679761837
33.0000000000002,0.0,0.0,7527.876948329841,0.0,0.0,140.76408411902565,-0.0,0.0,-11.29510891950609
33.1000000000002,0.0,0.0,7541.784322277032,0.0,0.0,139.63718768761072,-0.0,0.0,-11.268964314149269
33.2000000000002,0.0,0.0,7555.579393595178,0.0,0.0,138.5128713501808,-0.0,0.0,-11.24316337429905
33.3000000000002,0.0,0.0,7569.262415204825,0.0,0.0,137.39110118104085,-0.0,0.0,-11.217701691399485
33.400000000000205,0.0,0.0,7582.833636698887,0.0,0.0,136.27184368742897,-0.0,0.0,-11.19257493611871
33.500000000000206,0.0,0.0,7596.293304384778,0.0,0.0,135.15506580175136,-0.0,0.0,-11.167778856775982
33.60000000000021,0.0,0.0,7609.641661325786,0.0,0.0,134.04073487397068,-0.0,0.0,-11.143309277806962
33.70000000000021,0.0,0.0,7622.87894738171,0.0,0.0,132.92881866414405,-0.0,0.0,-11.119162098266196
33.80000000000021,0.0,0.0,7636.005399248768,0.0,0.0,131.81928533510745,-0.0,0.0,-11.095333290365812
33.90000000000021,0.0,0.0,7649.0212504988085,0.0,0.0,130.71210344530252,-0.0,0.0,-11.071818898049415
34.00000000000021,0.0,0.0,7661.926731617805,0.0,0.0,129.6072419417425,-0.0,0.0,-11.0486150356003
34.100000000000215,0.0,0.0,7674.722070043685,0.0,0.0,128.5046701531142,-0.0,0.0,-11.025717886282973
34.200000000000216,0.0,0.0,7687.407490203481,0.0,0.0,127.40435778301249,-0.0,0.0,-11.003123701017198
34.30000000000022,0.0,0.0,7699.983213549825,0.0,0.0,126.30627490330413,-0.0,0.0,-10.980828797083616
34.40000000000022,0.0,0.0,7712.449458596803,0.0,0.0,125.21039194761812,-0.0,0.0,-10.958829556860149
34.50000000000022,0.0,0.0,7724.806440955166,0.0,0.0,124.11667970495928,-0.0,0.0,-10.93712242658837
34.60000000000022,0.0,0.0,7737.054373366935,0.0,0.0,123.02510931344237,-0.0,0.0,-10.915703915169054
34.70000000000022,0.0,0.0,7749.193465739384,0.0,0.0,121.93565225414376,-0.0,0.0,-10.894570592986128
34.800000000000225,0.0,0.0,7761.223925178437,0.0,0.0,120.84828034506793,-0.0,0.0,-10.873719090758314
34.900000000000226,0.0,0.0,7773.145956021467,0.0,0.0,119.76296573522616,-0.0,0.0,-10.853146098417708
35.00000000000023,0.0,0.0,7784.959759869529,0.0,0.0,118.6796808988247,-0.0,0.0,-10.832848364014655
35.10000000000023,0.0,0.0,7796.665535619022,0.0,0.0,117.59839862955988,-0.0,0.0,-10.812822692648158
35.20000000000023,0.0,0.0,7808.263479492797,0.0,0.0,116.51909203501775,-0.0,0.0,-10.79306594542127
35.30000000000023,0.0,0.0,7819.753785070722,0.0,0.0,115.44173453117567,-0.0,0.0,-10.773575038420743
35.40000000000023,0.0,0.0,7831.136643319714,0.0,0.0,114.36629983700364,-0.0,0.0,-10.754346941720362
35.500000000000234,0.0,0.0,7842.412242623238,0.0,0.0,113.2927619691629,-0.0,0.0,-10.735378678407368
35.600000000000236,0.0,0.0,7853.5807688103,0.0,0.0,112.22109523679975,-0.0,0.0,-10.716667323631365
35.70000000000024,0.0,0.0,7864.642405183924,0.0,0.0,111.15127423643224,-0.0,0.0,-10.698210003675145
35.80000000000024,0.0,0.0,7875.597332549141,0.0,0.0,110.08327384692755,-0.0,0.0,-10.680003895046926
35.90000000000024,0.0,0.0,7886.44572924048,0.0,0.0,109.01706922456822,-0.0,0.0,-10.662046223593412
36.00000000000024,0.0,0.0,7897.187771148982,0.0,0.0,107.9526357982049,-0.0,0.0,-10.644334263633189
36.10000000000024,0.0,0.0,7907.823631748746,0.0,0.0,106.8899492644939,-0.0,0.0,-10.62686533710996
36.200000000000244,0.0,0.0,7918.353482123004,0.0,0.0,105.82898558321737,-0.0,0.0,-10.609636812765121
36.300000000000246,0.0,0.0,7928.777490989746,0.0,0.0,104.76972097268445,-0.0,0.0,-10.59264610532919
36.40000000000025,0.0,0.0,7939.095824726894,0.0,0.0,103.7121319052113,-0.0,0.0,-10.575890674731664
36.50000000000025,0.0,0.0,7949.308647397035,0.0,0.0,102.65619510267841,-0.0,0.0,-10.559368025328824
36.60000000000025,0.0,0.0,7959.416120771726,0.0,0.0,101.6018875321635,-0.0,0.0,-10.543075705149072
36.70000000000025,0.0,0.0,7969.418404355365,0.0,0.0,100.54918640164796,-0.0,0.0,-10.527011305155371
36.80000000000025,0.0,0.0,7979.315655408652,0.0,0.0,99.49806915579552,-0.0,0.0,-10.511172458524376
36.900000000000254,0.0,0.0,7989.108028971632,0.0,0.0,98.44851347180133,-0.0,0.0,-10.495556839941873
37.000000000000256,0.0,0.0,7998.795677886338,0.0,0.0,97.40049725530993,-0.0,0.0,-10.480162164914113
37.10000000000026,0.0,0.0,8008.378752819032,0.0,0.0,96.35399863640046,-0.0,0.0,-10.46498618909469
37.20000000000026,0.0,0.0,8017.857402282058,0.0,0.0,95.3089959656378,-0.0,0.0,-10.450026707626577
37.30000000000026,0.0,0.0,8027.231772655304,0.0,0.0,94.26546781018791,-0.0,0.0,-10.435281554498985
37.40000000000026,0.0,0.0,8036.502008207293,0.0,0.0,93.22339294999604,-0.0,0.0,-10.42074860191868
37.50000000000026,0.0,0.0,8045.668251115898,0.0,0.0,92.1827503740265,-0.0,0.0,-10.40642575969543
37.600000000000264,0.0,0.0,8054.730641488681,0.0,0.0,91.14351927656237,-0.0,0.0,-10.39231097464127
37.700000000000266,0.0,0.0,8063.689317382888,0.0,0.0,90.10567905356405,-0.0,0.0,-10.378402229983227
37.80000000000027,0.0,0.0,8072.544414825072,0.0,0.0,89.06920929908512,-0.0,0.0,-10.364697544789257
37.90000000000027,0.0,0.0,8081.296067830379,0.0,0.0,88.03408980174441,-0.0,0.0,-10.351194973407036
38.00000000000027,0.0,0.0,8089.944408421479,0.0,0.0,87.00030054125288,-0.0,0.0,-10.337892604915346
38.10000000000027,0.0,0.0,8098.489566647166,0.0,0.0,85.9678216849941,-0.0,0.0,-10.32478856258776
38.20000000000027,0.0,0.0,8106.931670600615,0.0,0.0,84.93663358465727,-0.0,0.0,-10.311881003368363
38.300000000000274,0.0,0.0,8115.27084643732,0.0,0.0,83.90671677292136,-0.0,0.0,-10.299168117359228
38.400000000000276,0.0,0.0,8123.507218392702,0.0,0.0,82.87805196018942,-0.0,0.0,-10.286648127319387
38.50000000000028,0.0,0.0,8131.640908799399,0.0,0.0,81.85062003137192,-0.0,0.0,-10.274319288175047
38.60000000000028,0.0,0.0,8139.672038104238,0.0,0.0,80.82440204271784,-0.0,0.0,-10.26217988654081
38.70000000000028,0.0,0.0,8147.6007248849055,0.0,0.0,79.79937921869266,-0.0,0.0,-10.25022824025165
38.80000000000028,0.0,0.0,8155.427085866306,0.0,0.0,78.77553294890212,-0.0,0.0,-10.238462697905401
38.90000000000028,0.0,0.0,8163.15123593662,0.0,0.0,77.75284478506057,-0.0,0.0,-10.22688163841557
39.000000000000284,0.0,0.0,8170.773288163067,0.0,0.0,76.73129643800316,-0.0,0.0,-10.2154834705742
39.100000000000286,0.0,0.0,8178.2933538073785,0.0,0.0,75.7108697747407,-0.0,0.0,-10.204266632624613
39.20000000000029,0.0,0.0,8185.711542340975,0.0,0.0,74.69154681555632,-0.0,0.0,-10.193229591843792
39.30000000000029,0.0,0.0,8193.02796145987,0.0,0.0,73.6733097311429,-0.0,0.0,-10.182370844134233
39.40000000000029,0.0,0.0,8200.24271709928,0.0,0.0,72.65614083978039,-0.0,0.0,-10.17168891362503
39.50000000000029,0.0,0.0,8207.355913447973,0.0,0.0,71.64002260455219,-0.0,0.0,-10.161182352282035
39.60000000000029,0.0,0.0,8214.367652962335,0.0,0.0,70.6249376305995,-0.0,0.0,-10.150849739526882
39.700000000000294,0.0,0.0,8221.278036380167,0.0,0.0,69.61086866241304,-0.0,0.0,-10.140689681864705
39.800000000000296,0.0,0.0,8228.08716273422,0.0,0.0,68.597798581161,-0.0,0.0,-10.130700812520379
39.9000000000003,0.0,0.0,8234.79512936547,0.0,0.0,67.5857104020527,-0.0,0.0,-10.120881791083097
40.0000000000003,0.0,0.0,8241.402031936128,0.0,0.0,66.57458727173679,-0.0,0.0,-10.11123130315911
40.1000000000003,0.0,0.0,8247.907964442402,0.0,0.0,65.56441246573354,-0.0,0.0,-10.101748060032515
40.2000000000003,0.0,0.0,8254.313019227,0.0,0.0,64.55516938590016,-0.0,0.0,-10.092430798333853
40.3000000000003,0.0,0.0,8260.617286991393,0.0,0.0,63.54684155792851,-0.0,0.0,-10.083278279716447
40.400000000000304,0.0,0.0,8266.820856807828,0.0,0.0,62.53941262887448,-0.0,0.0,-10.07428929054026
40.500000000000306,0.0,0.0,8272.923816131091,0.0,0.0,61.53286636471816,-0.0,0.0,-10.065462641563181
40.60000000000031,0.0,0.0,8278.92625081005,0.0,0.0,60.5271866479542,-0.0,0.0,-10.05679716763956
40.70000000000031,0.0,0.0,8284.828245098934,0.0,0.0,59.522357475211614,-0.0,0.0,-10.048291727425875
40.80000000000031,0.0,0.0,8290.629881668408,0.0,0.0,58.51836295490227,-0.0,0.0,-10.039945203093383
40.90000000000031,0.0,0.0,8296.331241616397,0.0,0.0,57.51518730489751,-0.0,0.0,-10.031756500047651
41.00000000000031,0.0,0.0,8301.932404478686,0.0,0.0,56.512814850232026,-0.0,0.0,-10.0237245466548
41.100000000000314,0.0,0.0,8307.4334482393,0.0,0.0,55.51123002083459,-0.0,0.0,-10.01584829397437
41.200000000000315,0.0,0.0,8312.834449340651,0.0,0.0,54.51041734928472,-0.0,0.0,-10.008126715498685
41.30000000000032,0.0,0.0,8318.135482693477,0.0,0.0,53.510361468594866,-0.0,0.0,-10.000558806898582
41.40000000000032,0.0,0.0,8323.336621686549,0.0,0.0,52.51104711001732,-0.0,0.0,-9.993143585775405
41.50000000000032,0.0,0.0,8328.437938196179,0.0,0.0,51.512459100875404,-0.0,0.0,-9.985880091419164
41.60000000000032,0.0,0.0,8333.439502595498,0.0,0.0,50.51458236241813,-0.0,0.0,-9.97876738457272
41.70000000000032,0.0,0.0,8338.341383763533,0.0,0.0,49.51740190769794,-0.0,0.0,-9.971804547201938
41.800000000000324,0.0,0.0,8343.143649094069,0.0,0.0,48.52090283947077,-0.0,0.0,-9.964990682271653
41.900000000000325,0.0,0.0,8347.846364504312,0.0,0.0,47.52507034811803,-0.0,0.0,-9.95832491352741
42.00000000000033,0.0,0.0,8352.449594443344,0.0,0.0,46.529889709589746,-0.0,0.0,-9.951806385282834
42.10000000000033,0.0,0.0,8356.95340190037,0.0,0.0,45.53534628336849,-0.0,0.0,-9.945434262212563
42.20000000000033,0.0,0.0,8361.357848412768,0.0,0.0,44.54142551045342,-0.0,0.0,-9.939207729150647
42.30000000000033,0.0,0.0,8365.66299407395,0.0,0.0,43.54811291136399,-0.0,0.0,-9.933125990894336
42.40000000000033,0.0,0.0,8369.868897541006,0.0,0.0,42.55539408416267,-0.0,0.0,-9.927188272013156
42.500000000000334,0.0,0.0,8373.975616042173,0.0,0.0,41.56325470249635,-0.0,0.0,-9.921393816663203
42.600000000000335,0.0,0.0,8377.983205384096,0.0,0.0,40.57168051365569,-0.0,0.0,-9.915741888406572
42.70000000000034,0.0,0.0,8381.891719958912,0.0,0.0,39.58065733665211,-0.0,0.0,-9.910231770035853
42.80000000000034,0.0,0.0,8385.701212751126,0.0,0.0,38.59017106031175,-0.0,0.0,-9.9048627634036
42.90000000000034,0.0,0.0,8389.411735344318,0.0,0.0,37.60020764138608,-0.0,0.0,-9.899634189256716
43.00000000000034,0.0,0.0,8393.02333792765,0.0,0.0,36.61075310267851,-0.0,0.0,-9.894545387075695
43.10000000000034,0.0,0.0,8396.536069302194,0.0,0.0,35.62179353118665,-0.0,0.0,-9.889595714918615
43.200000000000344,0.0,0.0,8399.949976887074,0.0,0.0,34.63331507625966,-0.0,0.0,-9.884784549269865
43.300000000000345,0.0,0.0,8403.265106725426,0.0,0.0,33.645303947770316,-0.0,0.0,-9.880111284893495
43.40000000000035,0.0,0.0,8406.481503490184,0.0,0.0,32.6577464143012,-0.0,0.0,-9.87557533469118
43.50000000000035,0.0,0.0,8409.59921048967,0.0,0.0,31.670628801344733,-0.0,0.0,-9.87117612956468
43.60000000000035,0.0,0.0,8412.61826967303,0.0,0.0,30.683937489516453,-0.0,0.0,-9.866913118282792
43.70000000000035,0.0,0.0,8415.538721635472,0.0,0.0,29.69765891278118,-0.0,0.0,-9.862785767352715
43.80000000000035,0.0,0.0,8418.360605623337,0.0,0.0,28.711779556691603,-0.0,0.0,-9.858793560895755
43.900000000000354,0.0,0.0,8421.083959538997,0.0,0.0,27.726285956638865,-0.0,0.0,-9.854936000527367
44.000000000000355,0.0,0.0,8423.708819945583,0.0,0.0,26.74116469611472,-0.0,0.0,-9.851212605241441
44.10000000000036,0.0,0.0,8426.235222071526,0.0,0.0,25.756402404984836,-0.0,0.0,-9.847622911298814
44.20000000000036,0.0,0.0,8428.663199814942,0.0,0.0,24.771985757772843,-0.0,0.0,-9.844166472119927
44.30000000000036,0.0,0.0,8430.992785747847,0.0,0.0,23.78790147195468,-0.0,0.0,-9.840842858181635
44.40000000000036,0.0,0.0,8433.224011120188,0.0,0.0,22.804136306262873,-0.0,0.0,-9.83765165691808
44.50000000000036,0.0,0.0,8435.356905863726,0.0,0.0,21.82067705900031,-0.0,0.0,-9.83459247262561
44.600000000000364,0.0,0.0,8437.39149859573,0.0,0.0,20.83751056636314,-0.0,0.0,-9.831664926371696
44.700000000000365,0.0,0.0,8439.327816622528,0.0,0.0,19.854623700772358,-0.0,0.0,-9.82886865590783
44.80000000000037,0.0,0.0,8441.165885942872,0.0,0.0,18.872003369213726,-0.0,0.0,-9.826203315586328
44.90000000000037,0.0,0.0,8442.905731251149,0.0,0.0,17.889636511585618,-0.0,0.0,-9.823668576281063
45.00000000000037,0.0,0.0,8444.547375940427,0.0,0.0,16.907510099054413,-0.0,0.0,-9.82126412531203
45.10000000000037,0.0,0.0,8446.090842105337,0.0,0.0,15.925611132417036,-0.0,0.0,-9.818989666373765
45.20000000000037,0.0,0.0,8447.536150544787,0.0,0.0,14.943926640470279,-0.0,0.0,-9.816844919467567
45.300000000000374,0.0,0.0,8448.883320764522,0.0,0.0,13.96244367838653,-0.0,0.0,-9.814829620837493
45.400000000000375,0.0,0.0,8450.132370979518,0.0,0.0,12.981149326095519,-0.0,0.0,-9.812943522910109
45.50000000000038,0.0,0.0,8451.283318116213,0.0,0.0,12.000030686671721,-0.0,0.0,-9.811186394237971
45.60000000000038,0.0,0.0,8452.336177814588,0.0,0.0,11.01907488472704,-0.0,0.0,-9.80955801944681
45.70000000000038,0.0,0.0,8453.290964430073,0.0,0.0,10.0382690648084,-0.0,0.0,-9.808058199186394
45.80000000000038,0.0,0.0,8454.147691035301,0.0,0.0,9.057600389799893,-0.0,0.0,-9.806686750085072
45.90000000000038,0.0,0.0,8454.906369421711,0.0,0.0,8.077056039329097,-0.0,0.0,-9.80544350470795
46.000000000000384,0.0,0.0,8455.567010100971,0.0,0.0,7.096623208177227,-0.0,0.0,-9.804328311518704
46.100000000000385,0.0,0.0,8456.129622306265,0.0,0.0,6.116289104692727,-0.0,0.0,-9.803341034845
46.20000000000039,0.0,0.0,8456.594213993412,0.0,0.0,5.136040949207974,-0.0,0.0,-9.802481554847526
46.30000000000039,0.0,0.0,8456.96079184182,0.0,0.0,4.155865972458713,-0.0,0.0,-9.801749767492609
46.40000000000039,0.0,0.0,8457.229361255298,0.0,0.0,3.1757514140058736,-0.0,0.0,-9.801145584528395
46.50000000000039,0.0,0.0,8457.399926362697,0.0,0.0,2.195684520659411,-0.0,0.0,-9.800668933464625
46.60000000000039,0.0,0.0,8457.4724900184,0.0,0.0,1.2156525449038171,-0.0,0.0,-9.80031975755594
46.700000000000394,0.0,0.0,8457.447053802653,0.0,0.0,0.23564274332494062,-0.0,0.0,-9.800098015788764
46.800000000000395,0.0,0.0,8457.323618021743,0.0,0.0,-0.7443576249622318,-0.0,0.0,-9.800003682871724
46.9000000000004,0.0,0.0,8457.102198237497,0.0,0.0,-1.7242511032929047,0.0,0.0,-9.798934783306727
47.0000000000004,0.0,0.0,8456.78285886621,0.0,0.0,-2.703679509672998,0.0,0.0,-9.794284063800935
47.1000000000004,0.0,0.0,8456.365701731866,0.0,0.0,-3.6822740655207715,0.0,0.0,-9.785945558477733
47.2000000000004,0.0,0.0,8455.850865390028,0.0,0.0,-4.659666967429372,0.0,0.0,-9.773929019086
47.3000000000004,0.0,0.0,8455.238524951297,0.0,0.0,-5.635491914017164,0.0,0.0,-9.758249465877928
47.400000000000404,0.0,0.0,8454.528891852682,0.0,0.0,-6.609384628772946,0.0,0.0,-9.738927147557819
47.500000000000405,0.0,0.0,8453.722213577521,0.0,0.0,-7.580983377327579,0.0,0.0,-9.71598748554633
47.600000000000406,0.0,0.0,8452.818773324745,0.0,0.0,-8.549929477610052,0.0,0.0,-9.68946100282473
47.70000000000041,0.0,0.0,8451.81888962842,0.0,0.0,-9.515867801380258,0.0,0.0,-9.65938323770206
47.80000000000041,0.0,0.0,8450.722915928638,0.0,0.0,-10.478447265672642,0.0,0.0,-9.625794642923848
47.90000000000041,0.0,0.0,8449.531240095012,0.0,0.0,-11.437321312734017,0.0,0.0,-9.588740470613748
48.00000000000041,0.0,0.0,8448.244283904083,0.0,0.0,-12.392148377094864,0.0,0.0,-9.548270643608472
48.10000000000041,0.0,0.0,8446.862502472166,0.0,0.0,-13.342592338475988,0.0,0.0,-9.504439613811238
48.200000000000415,0.0,0.0,8445.386383645195,0.0,0.0,-14.288322959300912,0.0,0.0,-9.45730620824924
48.300000000000416,0.0,0.0,8443.816447347312,0.0,0.0,-15.22901630565849,0.0,0.0,-9.406933463575777
48.40000000000042,0.0,0.0,8442.153244889998,0.0,0.0,-16.164355150639242,0.0,0.0,-9.35338844980753
48.50000000000042,0.0,0.0,8440.397358243672,0.0,0.0,-17.094029359052392,0.0,0.0,-9.296742084131516
48.60000000000042,0.0,0.0,8438.549399273732,0.0,0.0,-18.017736252617834,0.0,0.0,-9.237068935654417
48.70000000000042,0.0,0.0,8436.61000894314,0.0,0.0,-18.935180954817724,0.0,0.0,-9.174447021998915
48.80000000000042,0.0,0.0,8434.579856483679,0.0,0.0,-19.846076714685463,0.0,0.0,-9.10895759867739
48.900000000000425,0.0,0.0,8432.459638538077,0.0,0.0,-20.750145208904733,0.0,0.0,-9.040684942192698
49.000000000000426,0.0,0.0,8430.250078275269,0.0,0.0,-21.6471168216876,0.0,0.0,-8.969716127828676
49.10000000000043,0.0,0.0,8427.951924481053,0.0,0.0,-22.536730901997583,0.0,0.0,-8.896140803099831
49.20000000000043,0.0,0.0,8425.565950626486,0.0,0.0,-23.418735997780587,0.0,0.0,-8.82005095783003
49.30000000000043,0.0,0.0,8423.09295391633,0.0,0.0,-24.29289006696304,0.0,0.0,-8.741540691824511
49.40000000000043,0.0,0.0,8420.533754319917,0.0,0.0,-25.15896066507186,0.0,0.0,-8.660705981088194
49.50000000000043,0.0,0.0,8417.889193586756,0.0,0.0,-26.016725109424478,0.0,0.0,-8.577644443526188
49.600000000000435,0.0,0.0,8415.160134249238,0.0,0.0,-26.865970619928504,0.0,0.0,-8.492455105040273
49.700000000000436,0.0,0.0,8412.34745861474,0.0,0.0,-27.706494436619288,0.0,0.0,-8.405238166907848
49.80000000000044,0.0,0.0,8409.45206774945,0.0,0.0,-28.5381039141491,0.0,0.0,-8.31609477529813
49.90000000000044,0.0,0.0,8406.474880456128,0.0,0.0,-29.360616593523538,0.0,0.0,-8.225126793744385
50.00000000000044,0.0,0.0,8403.416832248085,0.0,0.0,-30.17386025145867,0.0,0.0,-8.13243657935133
50.10000000000044,0.0,0.0,8400.278874321488,0.0,0.0,-30.97767292780604,0.0,0.0,-8.038126763473691
50.20000000000044,0.0,0.0,8397.061972528143,0.0,0.0,-31.771902931561648,0.0,0.0,-7.942300037556086
50.300000000000445,0.0,0.0,8393.767106350815,0.0,0.0,-32.55640882603924,0.0,0.0,-7.8450589447758885
50.400000000000446,0.0,0.0,8390.39526788304,0.0,0.0,-33.33105939384729,0.0,0.0,-7.746505678080527
50.50000000000045,0.0,0.0,8386.947460815378,0.0,0.0,-34.09573358236315,0.0,0.0,-7.646741885158631
50.60000000000045,0.0,0.0,8383.424699429928,0.0,0.0,-34.85032043044631,0.0,0.0,-7.545868480831576
50.70000000000045,0.0,0.0,8379.828007604874,0.0,0.0,-35.594718977176136,0.0,0.0,-7.443985467298237
50.80000000000045,0.0,0.0,8376.158417830717,0.0,0.0,-36.32883815343733,0.0,0.0,-7.341191762611986
50.90000000000045,0.0,0.0,8372.416970239807,0.0,0.0,-37.05259665720884,0.0,0.0,-7.237585037715075
51.000000000000455,0.0,0.0,8368.60471165065,0.0,0.0,-37.76592281343908,0.0,0.0,-7.133261562302473
51.100000000000456,0.0,0.0,8364.72269462841,0.0,0.0,-38.46875441941256,0.0,0.0,-7.028316059734816
51.20000000000046,0.0,0.0,8360.7719765629,0.0,0.0,-39.16103857652946,0.0,0.0,-6.922841571168945
51.30000000000046,0.0,0.0,8356.753618765313,0.0,0.0,-39.84273150943195,0.0,0.0,-6.8169293290249335
51.40000000000046,0.0,0.0,8352.668685584773,0.0,0.0,-40.513798373418005,0.0,0.0,-6.710668639860539
51.50000000000046,0.0,0.0,8348.518243545781,0.0,0.0,-41.174213051085815,0.0,0.0,-6.60414677667811
51.60000000000046,0.0,0.0,8344.303360507463,0.0,0.0,-41.82395793915035,0.0,0.0,-6.497448880645315
51.700000000000465,0.0,0.0,8340.025104845467,0.0,0.0,-42.46302372636732,0.0,0.0,-6.390657872169687
51.800000000000466,0.0,0.0,8335.68454465726,0.0,0.0,-43.091409163490134,0.0,0.0,-6.283854371228127
51.90000000000047,0.0,0.0,8331.28274699151,0.0,0.0,-43.70912082617178,0.0,0.0,-6.177116626816446
52.00000000000047,0.0,0.0,8326.820777102062,0.0,0.0,-44.31617287170682,0.0,0.0,-6.0705204553503895
52.10000000000047,0.0,0.0,8322.299697727074,0.0,0.0,-44.912586790488724,0.0,0.0,-5.964139187819075
52.20000000000047,0.0,0.0,8317.720568393643,0.0,0.0,-45.4983911530351,0.0,0.0,-5.858043625463763
52.30000000000047,0.0,0.0,8313.084444748283,0.0,0.0,-46.0736213534081,0.0,0.0,-5.752302003729973
52.400000000000475,0.0,0.0,8308.392377913478,0.0,0.0,-46.638319349829956,0.0,0.0,-5.646979964218555
52.500000000000476,0.0,0.0,8303.64541387048,0.0,0.0,-47.192533403264164,0.0,0.0,-5.542140534342051
52.60000000000048,0.0,0.0,8298.844592868438,0.0,0.0,-47.73631781470174,0.0,0.0,-5.4378441143757685
52.70000000000048,0.0,0.0,8293.990948859893,0.0,0.0,-48.26973266185964,0.0,0.0,-5.334148471578991
52.80000000000048,0.0,0.0,8289.085508962591,0.0,0.0,-48.792843535964664,0.0,0.0,-5.231108741050197
52.90000000000048,0.0,0.0,8284.1292929475,0.0,0.0,-49.305721279261775,0.0,0.0,-5.128777432971095
53.00000000000048,0.0,0.0,8279.123312752887,0.0,0.0,-49.80844172385053,0.0,0.0,-5.027204445887529
53.100000000000485,0.0,0.0,8274.068572024216,0.0,0.0,-50.301085432417615,0.0,0.0,-4.9264370856708695
53.200000000000486,0.0,0.0,8268.966065679628,0.0,0.0,-50.783737441397726,0.0,0.0,-4.826520089801096
53.30000000000049,0.0,0.0,8263.81677950064,0.0,0.0,-51.256487007058965,0.0,0.0,-4.727495656612423
53.40000000000049,0.0,0.0,8258.621689747746,0.0,0.0,-51.71942735497333,0.0,0.0,-4.6294034791435985
53.50000000000049,0.0,0.0,8253.3817628005,0.0,0.0,-52.17265543329716,0.0,0.0,-4.532280783238303
53.60000000000049,0.0,0.0,8248.097954821627,0.0,0.0,-52.61627167025173,0.0,0.0,-4.436162369545652
53.70000000000049,0.0,0.0,8242.771211444717,0.0,0.0,-53.05037973615941,0.0,0.0,-4.341080659076806
53.800000000000495,0.0,0.0,8237.402467484972,0.0,0.0,-53.475086310357526,0.0,0.0,-4.24706574198118
53.900000000000496,0.0,0.0,8231.992646672497,0.0,0.0,-53.89050085327894,0.0,0.0,-4.1541454292140845
54.0000000000005,0.0,0.0,8226.542661407568,0.0,0.0,-54.29673538395666,0.0,0.0,-4.062345306777202
54.1000000000005,0.0,0.0,8221.053412537289,0.0,0.0,-54.69390426317901,0.0,0.0,-3.971688792223521
54.2000000000005,0.0,0.0,8215.525789153075,0.0,0.0,-55.08212398249196,0.0,0.0,-3.882197193129474
54.3000000000005,0.0,0.0,8209.960668408317,0.0,0.0,-55.46151295921683,0.0,0.0,-3.793889767248791
54.4000000000005,0.0,0.0,8204.358915355635,0.0,0.0,-55.83219133762429,0.0,0.0,-3.7067837840745232
54.500000000000504,0.0,0.0,8198.72138280306,0.0,0.0,-56.19428079637915,0.0,0.0,-3.620894587548592
54.600000000000506,0.0,0.0,8193.048911188527,0.0,0.0,-56.54790436234623,0.0,0.0,-3.536235659670816
54.70000000000051,0.0,0.0,8187.342328472021,0.0,0.0,-56.89318623082349,0.0,0.0,-3.4528186847725824
54.80000000000051,0.0,0.0,8181.602450044726,0.0,0.0,-57.23025159224684,0.0,0.0,-3.3706536142335146
54.90000000000051,0.0,0.0,8175.83007865453,0.0,0.0,-57.5592264653901,0.0,0.0,-3.2897487314325797
55.00000000000051,0.0,0.0,8170.02600434724,0.0,0.0,-57.880237537063934,0.0,0.0,-3.210110716738404
55.10000000000051,0.0,0.0,8164.191004422848,0.0,0.0,-58.19341200829958,0.0,0.0,-3.131744712356487
55.200000000000514,0.0,0.0,8158.325843406215,0.0,0.0,-58.49887744698597,0.0,0.0,-3.0546543868638762
55.300000000000516,0.0,0.0,8152.431273031528,0.0,0.0,-58.79676164691344,0.0,0.0,-2.978841999274664
55.40000000000052,0.0,0.0,8146.508032239899,0.0,0.0,-59.08719249316262,0.0,0.0,-2.9043084624918283
55.50000000000052,0.0,0.0,8140.556847189492,0.0,0.0,-59.37029783376393,0.0,0.0,-2.831053406013109
55.60000000000052,0.0,0.0,8134.5784312775495,0.0,0.0,-59.646205357540964,0.0,0.0,-2.7590752377703414
55.70000000000052,0.0,0.0,8128.573485173721,0.0,0.0,-59.91504247804025,0.0,0.0,-2.6883712049928263
55.80000000000052,0.0,0.0,8122.542696864107,0.0,0.0,-60.17693622343989,0.0,0.0,-2.6189374539964234
55.900000000000524,0.0,0.0,8116.486741705431,0.0,0.0,-60.43201313232092,0.0,0.0,-2.5507690888102665
56.000000000000526,0.0,0.0,8110.406282488771,0.0,0.0,-60.68039915517725,0.0,0.0,-2.483860228563324
56.10000000000053,0.0,0.0,8104.301969512299,0.0,0.0,-60.92221956153348,0.0,0.0,-2.4182040635623263
56.20000000000053,0.0,0.0,8098.174440662496,0.0,0.0,-61.15759885253365,0.0,0.0,-2.3537929100017454
56.30000000000053,0.0,0.0,8092.024321503293,0.0,0.0,-61.38666067885918,0.0,0.0,-2.2906182632552525
56.40000000000053,0.0,0.0,8085.852225372661,0.0,0.0,-61.60952776382979,0.0,0.0,-2.2286708497060594
56.50000000000053,0.0,0.0,8079.658753486122,0.0,0.0,-61.82632183153792,0.0,0.0,-2.167940677081307
56.600000000000534,0.0,0.0,8073.44449504672,0.0,0.0,-62.0371635398642,0.0,0.0,-2.108417083262859
56.700000000000536,0.0,0.0,8067.210027360979,0.0,0.0,-62.24217241821956,0.0,0.0,-2.050088783553573
56.80000000000054,0.0,0.0,8060.955915960411,0.0,0.0,-62.441466809858,0.0,0.0,-1.9929439163844265
56.90000000000054,0.0,0.0,8054.682714728114,0.0,0.0,-62.635163818603374,0.0,0.0,-1.9369700874537559
57.00000000000054,0.0,0.0,8048.390966030069,0.0,0.0,-62.82337925983289,0.0,0.0,-1.8821544122951428
57.10000000000054,0.0,0.0,8042.081200850726,0.0,0.0,-63.006227615560455,0.0,0.0,-1.8284835572756544
57.20000000000054,0.0,0.0,8035.753938932485,0.0,0.0,-63.18382199346352,0.0,0.0,-1.7759437790306052
57.300000000000544,0.0,0.0,8029.409688918703,0.0,0.0,-63.35627408969804,0.0,0.0,-1.7245209623452133
57.400000000000546,0.0,0.0,8023.048948499886,0.0,0.0,-63.523694155347776,0.0,0.0,-1.6742006564973657
57.50000000000055,0.0,0.0,8016.6722045627,0.0,0.0,-63.686190966355696,0.0,0.0,-1.6249681100792213
57.60000000000055,0.0,0.0,8010.2799333415,0.0,0.0,-63.843871796787525,0.0,0.0,-1.576808304318293
57.70000000000055,0.0,0.0,8003.872600572047,0.0,0.0,-63.99684239527971,0.0,0.0,-1.5297059849218062
57.80000000000055,0.0,0.0,7997.450661647133,0.0,0.0,-64.14520696452672,0.0,0.0,-1.4836456924701444
57.90000000000055,0.0,0.0,7991.014561773809,0.0,0.0,-64.2890681436655,0.0,0.0,-1.4386117913877925
58.000000000000554,0.0,0.0,7984.56473613198,0.0,0.0,-64.42852699341769,0.0,0.0,-1.3945884975219105
58.100000000000556,0.0,0.0,7978.101610034073,0.0,0.0,-64.56368298385371,0.0,0.0,-1.351559904360208
58.20000000000056,0.0,0.0,7971.625599085569,0.0,0.0,-64.69463398464586,0.0,0.0,-1.3095100079215722
58.30000000000056,0.0,0.0,7965.137109346149,0.0,0.0,-64.82147625768123,0.0,0.0,-1.2684227303535902
58.40000000000056,0.0,0.0,7958.6365374912475,0.0,0.0,-64.94430445190848,0.0,0.0,-1.228281942272515
58.50000000000056,0.0,0.0,7952.124270973798,0.0,0.0,-65.06321160029665,0.0,0.0,-1.1890714838817065
58.60000000000056,0.0,0.0,7945.600688185995,0.0,0.0,-65.17828911878719,0.0,0.0,-1.1507751849053562
58.700000000000564,0.0,0.0,7939.066158620865,0.0,0.0,-65.28962680712463,0.0,0.0,-1.1133768833744888
58.800000000000566,0.0,0.0,7932.521043033504,0.0,0.0,-65.39731285145493,0.0,0.0,-1.0768604433028646
58.90000000000057,0.0,0.0,7925.965693601789,0.0,0.0,-65.50143382858393,0.0,0.0,-1.0412097712900348
59.00000000000057,0.0,0.0,7919.400454086449,0.0,0.0,-65.60207471179287,0.0,0.0,-1.0064088320894058
59.10000000000057,0.0,0.0,7912.825659990322,0.0,0.0,-65.6993188781107,0.0,0.0,-0.9724416631782944
59.20000000000057,0.0,0.0,7906.241638716685,0.0,0.0,-65.79324811694745,0.0,0.0,-0.9392923883675408
59.30000000000057,0.0,0.0,7899.648709726533,0.0,0.0,-65.88394263999616,0.0,0.0,-0.9069452304871533
59.400000000000574,0.0,0.0,7893.047184694685,0.0,0.0,-65.97148109231463,0.0,0.0,-0.8753845231846249
59.500000000000576,0.0,0.0,7886.4373676646255,0.0,0.0,-66.0559405645018,0.0,0.0,-0.844594721871653
59.60000000000058,0.0,0.0,7879.819555201968,0.0,0.0,-66.13739660588728,0.0,0.0,-0.8145604138547586
59.70000000000058,0.0,0.0,7873.194036546464,0.0,0.0,-66.2159232386557,0.0,0.0,-0.7852663276843685
59.80000000000058,0.0,0.0,7866.561093762472,0.0,0.0,-66.29159297283135,0.0,0.0,-0.7566973417564249
59.90000000000058,0.0,0.0,7859.921001887807,0.0,0.0,-66.36447682205134,0.0,0.0,-0.7288384921999018
60.00000000000058,0.0,0.0,7853.274029080901,0.0,0.0,-66.43464432005962,0.0,0.0,-0.7016749800826982
60.100000000000584,0.0,0.0,7846.620436766225,0.0,0.0,-66.50216353785638,0.0,0.0,-0.6751921779675651
60.200000000000585,0.0,0.0,7839.960479777901,0.0,0.0,-66.5671011014413,0.0,0.0,-0.6493756358492213
60.30000000000059,0.0,0.0,7833.29440650146,0.0,0.0,-66.62952221009154,0.0,0.0,-0.6242110865023776
60.40000000000059,0.0,0.0,7826.622459013696,0.0,0.0,-66.68949065511856,0.0,0.0,-0.5996844502701926
60.50000000000059,0.0,0.0,7819.944873220595,0.0,0.0,-66.74706883905068,0.0,0.0,-0.575781839321289
60.60000000000059,0.0,0.0,7813.2618789932685,0.0,0.0,-66.80231779519097,0.0,0.0,-0.5524895614028562
60.70000000000059,0.0,0.0,7806.573700301903,0.0,0.0,-66.8552972075026,0.0,0.0,-0.529794123116309
60.800000000000594,0.0,0.0,7799.880555347661,0.0,0.0,-66.90606543077674,0.0,0.0,-0.5076822327412724
60.900000000000595,0.0,0.0,7793.182656692544,0.0,0.0,-66.95467951103998,0.0,0.0,-0.48614080263254067
61.0000000000006,0.0,0.0,7786.480211387172,0.0,0.0,-67.00119520616138,0.0,0.0,-0.46515695121400213
61.1000000000006,0.0,0.0,7779.773421096487,0.0,0.0,-67.04566700662063,0.0,0.0,-0.4447180045925041
61.2000000000006,0.0,0.0,7773.062482223358,0.0,0.0,-67.08814815640201,0.0,0.0,-0.42481149781373695
61.3000000000006,0.0,0.0,7766.3475860300805,0.0,0.0,-67.12869067398017,0.0,0.0,-0.40542517578154147
61.4000000000006,0.0,0.0,7759.628918757775,0.0,0.0,-67.16734537336627,0.0,0.0,-0.38654699386096425
61.500000000000604,0.0,0.0,7752.906661743666,0.0,0.0,-67.20416188518476,0.0,0.0,-0.3681651181848036
61.600000000000605,0.0,0.0,7746.180991536262,0.0,0.0,-67.23918867775299,0.0,0.0,-0.3502679256823207
61.70000000000061,0.0,0.0,7739.452080008429,0.0,0.0,-67.27247307813782,0.0,0.0,-0.3328440038482263
61.80000000000061,0.0,0.0,7732.720094468362,0.0,0.0,-67.30406129316474,0.0,0.0,-0.3158821502691058
61.90000000000061,0.0,0.0,7725.985197768467,0.0,0.0,-67.33399843035711,0.0,0.0,-0.29937137192381336
62.00000000000061,0.0,0.0,7719.247548412167,0.0,0.0,-67.36232851878447,0.0,0.0,-0.2833008842735172
62.10000000000061,0.0,0.0,7712.507300658636,0.0,0.0,-67.38909452980012,0.0,0.0,-0.26766011015647173
62.200000000000614,0.0,0.0,7705.764604625479,0.0,0.0,-67.4143383976503,0.0,0.0,-0.2524386785017736
62.300000000000615,0.0,0.0,7699.01960638937,0.0,0.0,-67.43810103993788,0.0,0.0,-0.23762642287579894
62.40000000000062,0.0,0.0,7692.272448084678,0.0,0.0,-67.4604223779253,0.0,0.0,-0.22321337987424705
62.50000000000062,0.0,0.0,7685.523268000075,0.0,0.0,-67.48134135666251,0.0,0.0,-0.20918978737219618
62.60000000000062,0.0,0.0,7678.772200673169,0.0,0.0,-67.5008959649269,0.0,0.0,-0.19554608264389195
62.70000000000062,0.0,0.0,7672.019376983171,0.0,0.0,-67.51912325496323,0.0,0.0,-0.18227290036339205
62.80000000000062,0.0,0.0,7665.264924241617,0.0,0.0,-67.53605936201289,0.0,0.0,-0.1693610704966364
62.900000000000624,0.0,0.0,7658.508966281174,0.0,0.0,-67.55173952362239,0.0,0.0,-0.156801616094997
63.000000000000625,0.0,0.0,7651.751623542547,0.0,0.0,-67.56619809872237,0.0,0.0,-0.14458575099972926
63.10000000000063,0.0,0.0,7644.993013159513,0.0,0.0,-67.579468586469,0.0,0.0,-0.1327048774663968
63.20000000000063,0.0,0.0,7638.23324904211,0.0,0.0,-67.59158364484077,0.0,0.0,-0.12115058371763965
63.30000000000063,0.0,0.0,7631.472441958005,0.0,0.0,-67.602575108984,0.0,0.0,-0.10991464143234353
63.40000000000063,0.0,0.0,7624.710699612059,0.0,0.0,-67.61247400930189,0.0,0.0,-0.09898900317888071
63.50000000000063,0.0,0.0,7617.948126724132,0.0,0.0,-67.62131058928182,0.0,0.0,-0.08836579979928771
63.600000000000634,0.0,0.0,7611.184825105137,0.0,0.0,-67.62911432305695,0.0,0.0,-0.07803733775136124
63.700000000000635,0.0,0.0,7604.420893731385,0.0,0.0,-67.63591393269844,0.0,0.0,-0.06799609641483428
63.80000000000064,0.0,0.0,7597.656428817235,0.0,0.0,-67.6417374052352,0.0,0.0,-0.058234725367601214
63.90000000000064,0.0,0.0,7590.891523886086,0.0,0.0,-67.64661200939895,0.0,0.0,-0.04874604163746632
64.00000000000064,0.0,0.0,7584.126269839742,0.0,0.0,-67.65056431209244,0.0,0.0,-0.03952302693488541
64.10000000000063,0.0,0.0,7577.3607550261595,0.0,0.0,-67.65362019457956,0.0,0.0,-0.030558824871198098
64.20000000000063,0.0,0.0,7570.595065305629,0.0,0.0,-67.6558048683963,0.0,0.0,-0.021846738167385027
64.30000000000062,0.0,0.0,7563.829284115402,0.0,0.0,-67.65714289098202,0.0,0.0,-0.01338022585713361
64.40000000000062,0.0,0.0,7557.063492532796,0.0,0.0,-67.65765818103088,0.0,0.0,-0.005152900488612389
64.50000000000061,0.0,0.0,7550.297769336813,0.0,0.0,-67.65737403356371,0.0,0.0,0.002841474671637201
64.6000000000006,0.0,0.0,7543.532191068283,0.0,0.0,-67.6563131347208,0.0,0.0,0.01060898842901814
64.7000000000006,0.0,0.0,7536.766832088578,0.0,0.0,-67.65449757627655,0.0,0.0,0.018155584442448358
64.8000000000006,0.0,0.0,7530.00176463691,0.0,0.0,-67.65194886987716,0.0,0.0,0.025487063993942627
64.90000000000059,0.0,0.0,7523.237058886253,0.0,0.0,-67.64868796100279,0.0,0.0,0.03260908874370294
65.00000000000058,0.0,0.0,7516.472782997905,0.0,0.0,-67.644735242656,0.0,0.0,0.03952718346801909
65.10000000000058,0.0,0.0,7509.709003174721,0.0,0.0,-67.64011056877823,0.0,0.0,0.04624673877775187
65.20000000000057,0.0,0.0,7502.94578371305,0.0,0.0,-67.6348332673967,0.0,0.0,0.0527730138151874
65.30000000000057,0.0,0.0,7496.183187053394,0.0,0.0,-67.62892215350396,0.0,0.0,0.059111138927349316
65.40000000000056,0.0,0.0,7489.421273829818,0.0,0.0,-67.62239554167256,0.0,0.0,0.06526611831398377
65.50000000000055,0.0,0.0,7482.660102918141,0.0,0.0,-67.61527125840772,0.0,0.0,0.07124283264842113
65.60000000000055,0.0,0.0,7475.899731482926,0.0,0.0,-67.6075666542407,0.0,0.0,0.07704604167015461
65.70000000000054,0.0,0.0,7469.1402150233025,0.0,0.0,-67.59929861556596,0.0,0.0,0.08268038674743217
65.80000000000054,0.0,0.0,7462.3816074176475,0.0,0.0,-67.59048357622507,0.0,0.0,0.0881503934089487
65.90000000000053,0.0,0.0,7455.623960967133,0.0,0.0,-67.58113752884073,0.0,0.0,0.09346047384335598
66.00000000000053,0.0,0.0,7448.86732643819,0.0,0.0,-67.57127603590415,0.0,0.0,0.09861492936580696
66.10000000000052,0.0,0.0,7442.111753103892,0.0,0.0,-67.5609142406191,0.0,0.0,0.10361795285046327
66.20000000000051,0.0,0.0,7435.3572887842965,0.0,0.0,-67.55006687750625,0.0,0.0,0.10847363112851838
66.30000000000051,0.0,0.0,7428.603979885756,0.0,0.0,-67.53874828277118,0.0,0.0,0.11318594735079124
66.4000000000005,0.0,0.0,7421.851871439229,0.0,0.0,-67.52697240443972,0.0,0.0,0.11775878331458145
66.5000000000005,0.0,0.0,7415.101007137611,0.0,0.0,-67.5147528122643,0.0,0.0,0.1221959217541233
66.60000000000049,0.0,0.0,7408.351429372114,0.0,0.0,-67.50210270740486,0.0,0.0,0.12650104859450373
66.70000000000049,0.0,0.0,7401.6031792677,0.0,0.0,-67.48903493188801,0.0,0.0,0.13067775516843838
66.80000000000048,0.0,0.0,7394.856296717618,0.0,0.0,-67.47556197784843,0.0,0.0,0.134729540395913
66.90000000000047,0.0,0.0,7388.110820417027,0.0,0.0,-67.46169599655579,0.0,0.0,0.13865981292642537
67.00000000000047,0.0,0.0,7381.36678789577,0.0,0.0,-67.44744880723141,0.0,0.0,0.1424718932437461
67.10000000000046,0.0,0.0,7374.624235550284,0.0,0.0,-67.4328319056581,0.0,0.0,0.14616901573304908
67.20000000000046,0.0,0.0,7367.883198674678,0.0,0.0,-67.41785647258703,0.0,0.0,0.14975433071066568
67.30000000000045,0.0,0.0,7361.143711491016,0.0,0.0,-67.40253338194542,0.0,0.0,0.15323090641618187
67.40000000000045,0.0,0.0,7354.405807178786,0.0,0.0,-67.38687320884868,0.0,0.0,0.1566017309672869
67.50000000000044,0.0,0.0,7347.669517903615,0.0,0.0,-67.37088623742096,0.0,0.0,0.1598697142772867
67.60000000000043,0.0,0.0,7340.934874845222,0.0,0.0,-67.3545824684274,0.0,0.0,0.16303768993564383
67.70000000000043,0.0,0.0,7334.201908224635,0.0,0.0,-67.33797162672224,0.0,0.0,0.1661084170516034
67.80000000000042,0.0,0.0,7327.470647330694,0.0,0.0,-67.3210631685161,0.0,0.0,0.16908458206131094
67.90000000000042,0.0,0.0,7320.74112054585,0.0,0.0,-67.30386628846625,0.0,0.0,0.1719688004985418
68.00000000000041,0.0,0.0,7314.013355371285,0.0,0.0,-67.2863899265933,0.0,0.0,0.1747636187295143
68.1000000000004,0.0,0.0,7307.28737845136,0.0,0.0,-67.2686427750281,0.0,0.0,0.1774715156519786
68.2000000000004,0.0,0.0,7300.563215597423,0.0,0.0,-67.2506332845922,0.0,0.0,0.1800949043590805
68.3000000000004,0.0,0.0,7293.84089181097,0.0,0.0,-67.23236967121538,0.0,0.0,0.18263613376822008
68.40000000000039,0.0,0.0,7287.120431306202,0.0,0.0,-67.21385992219383,0.0,0.0,0.1850974902154583
68.50000000000038,0.0,0.0,7280.401857531968,0.0,0.0,-67.19511180229226,0.0,0.0,0.18748119901578697
68.60000000000038,0.0,0.0,7273.685193193129,0.0,0.0,-67.17613285969328,0.0,0.0,0.1897894259897317
68.70000000000037,0.0,0.0,7266.970460271344,0.0,0.0,-67.1569304317976,0.0,0.0,0.19202427895671903
68.80000000000037,0.0,0.0,7260.257680045302,0.0,0.0,-67.13751165087804,0.0,0.0,0.19418780919565393
68.90000000000036,0.0,0.0,7253.5468731104065,0.0,0.0,-67.1178834495907,0.0,0.0,0.19628201287326696
69.00000000000036,0.0,0.0,7246.838059397934,0.0,0.0,-67.09805256634665,0.0,0.0,0.19830883244049247
69.10000000000035,0.0,0.0,7240.131258193669,0.0,0.0,-67.07802555054688,0.0,0.0,0.20027015799762538
69.20000000000034,0.0,0.0,7233.426488156044,0.0,0.0,-67.05780876768402,0.0,0.0,0.20216782862853577
69.30000000000034,0.0,0.0,7226.723767333781,0.0,0.0,-67.03740840431357,0.0,0.0,0.20400363370457697
69.40000000000033,0.0,0.0,7220.023113183062,0.0,0.0,-67.01683047289771,0.0,0.0,0.20577931415860284
69.50000000000033,0.0,0.0,7213.324542584229,0.0,0.0,-66.99608081652475,0.0,0.0,0.20749656372957404
69.60000000000032,0.0,0.0,7206.628071858029,0.0,0.0,-66.97516511350692,0.0,0.0,0.20915703017838894
69.70000000000032,0.0,0.0,7199.933716781426,0.0,0.0,-66.95408888185939,0.0,0.0,0.21076231647531252
69.80000000000031,0.0,0.0,7193.241492602969,0.0,0.0,-66.93285748366343,0.0,0.0,0.2123139819595874
69.9000000000003,0.0,0.0,7186.551414057754,0.0,0.0,-66.91147612931626,0.0,0.0,0.21381354347166415
70.0000000000003,0.0,0.0,7179.863495381969,0.0,0.0,-66.88994988167039,0.0,0.0,0.2152624764586477
70.10000000000029,0.0,0.0,7173.177750327043,0.0,0.0,-66.86828366006505,0.0,0.0,0.21666221605338443
70.20000000000029,0.0,0.0,7166.494192173409,0.0,0.0,-66.84648224425227,0.0,0.0,0.21801415812771374
70.30000000000028,0.0,0.0,7159.812833743888,0.0,0.0,-66.82455027822023,0.0,0.0,0.21931966032047612
70.40000000000028,0.0,0.0,7153.133687416712,0.0,0.0,-66.80249227391617,0.0,0.0,0.2205800430405791
70.50000000000027,0.0,0.0,7146.456765138177,0.0,0.0,-66.78031261487159,0.0,0.0,0.22179659044578237
70.60000000000026,0.0,0.0,7139.782078434961,0.0,0.0,-66.75801555973182,0.0,0.0,0.22297055139770094
70.70000000000026,0.0,0.0,7133.109638426094,0.0,0.0,-66.73560524569248,0.0,0.0,0.22410314039333024
70.80000000000025,0.0,0.0,7126.439455834601,0.0,0.0,-66.71308569184511,0.0,0.0,0.22519553847381069
70.90000000000025,0.0,0.0,7119.771540998829,0.0,0.0,-66.69046080243405,0.0,0.0,0.2262488941106966
71.00000000000024,0.0,0.0,7113.105903883446,0.0,0.0,-66.667734370027,0.0,0.0,0.22726432407037933
71.10000000000024,0.0,0.0,7106.4425540901575,0.0,0.0,-66.64491007860131,0.0,0.0,0.22824291425696508
71.20000000000023,0.0,0.0,7099.7815008681055,0.0,0.0,-66.62199150654789,0.0,0.0,0.22918572053424846
71.30000000000022,0.0,0.0,7093.122753123994,0.0,0.0,-66.59898212959519,0.0,0.0,0.23009376952704486
71.40000000000022,0.0,0.0,7086.4663194319255,0.0,0.0,-66.57588532365494,0.0,0.0,0.23096805940247478
71.50000000000021,0.0,0.0,7079.812208042969,0.0,0.0,-66.55270436759179,0.0,0.0,0.23180956063158398
71.60000000000021,0.0,0.0,7073.160426894461,0.0,0.0,-66.52944244591862,0.0,0.0,0.23261921673171493
71.7000000000002,0.0,0.0,7066.510983619044,0.0,0.0,-66.50610265141961,0.0,0.0,0.23339794499009514
71.8000000000002,0.0,0.0,7059.86388555346,0.0,0.0,-66.4826879877027,0.0,0.0,0.23414663716911832
71.90000000000019,0.0,0.0,7053.219139747092,0.0,0.0,-66.45920137168335,0.0,0.0,0.2348661601935529
72.00000000000018,0.0,0.0,7046.576752970276,0.0,0.0,-66.43564563600133,0.0,0.0,0.23555735682026757
72.10000000000018,0.0,0.0,7039.9367317223705,0.0,0.0,-66.41202353137224,0.0,0.0,0.23622104629086138
72.20000000000017,0.0,0.0,7033.299082239608,0.0,0.0,-66.3883377288755,0.0,0.0,0.23685802496744124
72.30000000000017,0.0,0.0,7026.663810502724,0.0,0.0,-66.36459082218029,0.0,0.0,0.23746906695210512
72.40000000000016,0.0,0.0,7020.030922244377,0.0,0.0,-66.34078532971124,0.0,0.0,0.23805492469046818
72.50000000000016,0.0,0.0,7013.400422956349,0.0,0.0,-66.31692369675528,0.0,0.0,0.23861632955950185
72.60000000000015,0.0,0.0,7006.77231789656,0.0,0.0,-66.29300829751126,0.0,0.0,0.2391539924402224
72.70000000000014,0.0,0.0,7000.146612095873,0.0,0.0,-66.26904143708371,0.0,0.0,0.23966860427544923
72.80000000000014,0.0,0.0,6993.523310364714,0.0,0.0,-66.2450253534224,0.0,0.0,0.24016083661311072
72.90000000000013,0.0,0.0,6986.902417299504,0.0,0.0,-66.22096221920889,0.0,0.0,0.2406313421352717
73.00000000000013,0.0,0.0,6980.283937288911,0.0,0.0,-66.19685414369154,0.0,0.0,0.24108075517344574
73.10000000000012,0.0,0.0,6973.667874519925,0.0,0.0,-66.17270317447051,0.0,0.0,0.2415096922103075
73.20000000000012,0.0,0.0,6967.0542329837635,0.0,0.0,-66.14851129923368,0.0,0.0,0.2419187523683508
73.30000000000011,0.0,0.0,6960.4430164816085,0.0,0.0,-66.12428044744512,0.0,0.0,0.24230851788557572
73.4000000000001,0.0,0.0,6953.834228630183,0.0,0.0,-66.10001249198724,0.0,0.0,0.24267955457871793
73.5000000000001,0.0,0.0,6947.227872867169,0.0,0.0,-66.07570925075782,0.0,0.0,0.24303241229424444
73.6000000000001,0.0,0.0,6940.6239524564735,0.0,0.0,-66.05137248822308,0.0,0.0,0.24336762534740508
73.70000000000009,0.0,0.0,6934.022470493345,0.0,0.0,-66.02700391692812,0.0,0.0,0.24368571294963104
73.80000000000008,0.0,0.0,6927.423429909347,0.0,0.0,-66.00260519896565,0.0,0.0,0.24398717962468375
73.90000000000008,0.0,0.0,6920.826833477185,0.0,0.0,-65.97817794740429,0.0,0.0,0.24427251561360563
74.00000000000007,0.0,0.0,6914.232683815403,0.0,0.0,-65.95372372767739,0.0,0.0,0.24454219726904292
74.10000000000007,0.0,0.0,6907.6409833929465,0.0,0.0,-65.92924405893349,0.0,0.0,0.24479668743890137
74.20000000000006,0.0,0.0,6901.051734533591,0.0,0.0,-65.90474041534951,0.0,0.0,0.24503643583988222
74.30000000000005,0.0,0.0,6894.464939420248,0.0,0.0,-65.88021422740741,0.0,0.0,0.245261879420962
74.40000000000005,0.0,0.0,6887.880600099148,0.0,0.0,-65.8556668831357,0.0,0.0,0.24547344271712923
74.50000000000004,0.0,0.0,6881.298718483908,0.0,0.0,-65.83109972931634,0.0,0.0,0.24567153819367782
74.60000000000004,0.0,0.0,6874.719296359474,0.0,0.0,-65.80651407265822,0.0,0.0,0.24585656658119248
74.70000000000003,0.0,0.0,6868.142335385966,0.0,0.0,-65.78191118093805,0.0,0.0,0.24602891720159015
74.80000000000003,0.0,0.0,6861.567837102397,0.0,0.0,-65.75729228410952,0.0,0.0,0.24618896828530445
74.90000000000002,0.0,0.0,6854.995802930295,0.0,0.0,-65.73265857538152,0.0,0.0,0.24633708727998105
75.00000000000001,0.0,0.0,6848.426234177225,0.0,0.0,-65.70801121226644,0.0,0.0,0.2464736311507636
75.10000000000001,0.0,0.0,6841.859132040198,0.0,0.0,-65.68335131759919,0.0,0.0,0.24659894667253646
75.2,0.0,0.0,6835.294497608999,0.0,0.0,-65.65867998052776,0.0,0.0,0.24671337071421284
75.3,0.0,0.0,6828.732331869404,0.0,0.0,-65.63399825747624,0.0,0.0,0.24681723051527094
75.39999999999999,0.0,0.0,6822.172635706316,0.0,0.0,-65.60930717308075,0.0,0.0,0.24691084395487728
75.49999999999999,0.0,0.0,6815.615409906805,0.0,0.0,-65.58460772109939,0.0,0.0,0.24699451981364717
75.59999999999998,0.0,0.0,6809.060655163066,0.0,0.0,-65.55990086529657,0.0,0.0,0.24706855802822503
75.69999999999997,0.0,0.0,6802.5083720752855,0.0,0.0,-65.53518754030266,0.0,0.0,0.2471332499390666
75.79999999999997,0.0,0.0,6795.9585611544335,0.0,0.0,-65.51046865244953,0.0,0.0,0.24718887853130234
75.89999999999996,0.0,0.0,6789.411222824969,0.0,0.0,-65.48574508058262,0.0,0.0,0.24723571866917027
75.99999999999996,0.0,0.0,6782.866357427471,0.0,0.0,-65.46101767685022,0.0,0.0,0.24727403732394393
76.09999999999995,0.0,0.0,6776.323965221192,0.0,0.0,-65.43628726747065,0.0,0.0,0.24730409379565188
76.19999999999995,0.0,0.0,6769.784046386544,0.0,0.0,-65.41155465347778,0.0,0.0,0.24732613992874342
76.29999999999994,0.0,0.0,6763.246601027501,0.0,0.0,-65.3868206114456,0.0,0.0,0.2473404203218461
76.39999999999993,0.0,0.0,6756.711629173945,0.0,0.0,-65.36208589419243,0.0,0.0,0.24734717253166316
76.49999999999993,0.0,0.0,6750.179130783935,0.0,0.0,-65.33735123146529,0.0,0.0,0.2473466272714706
76.59999999999992,0.0,0.0,6743.649105745917,0.0,0.0,-65.3126173306049,0.0,0.0,0.24733900860394442
76.69999999999992,0.0,0.0,6737.121553880868,0.0,0.0,-65.28788487719201,0.0,0.0,0.24732453412879352
76.79999999999991,0.0,0.0,6730.5964749443765,0.0,0.0,-65.26315453567548,0.0,0.0,0.24730341516524668
76.8999999999999,0.0,0.0,6724.073868628663,0.0,0.0,-65.23842694998254,0.0,0.0,0.24727585692941645
76.9999999999999,0.0,0.0,6717.553734564545,0.0,0.0,-65.21370274411186,0.0,0.0,0.24724205870680294
77.0999999999999,0.0,0.0,6711.036072323344,0.0,0.0,-65.18898252270985,0.0,0.0,0.24720221402008846
77.19999999999989,0.0,0.0,6704.520881418735,0.0,0.0,-65.16426687163063,0.0,0.0,0.24715651079223022
77.29999999999988,0.0,0.0,6698.008161308545,0.0,0.0,-65.13955635848014,0.0,0.0,0.24710513150502145
77.39999999999988,0.0,0.0,6691.497911396497,0.0,0.0,-65.1148515331448,0.0,0.0,0.2470482533533307
77.49999999999987,0.0,0.0,6684.990131033909,0.0,0.0,-65.0901529283053,0.0,0.0,0.24698604839499794
77.59999999999987,0.0,0.0,6678.484819521334,0.0,0.0,-65.06546105993564,0.0,0.0,0.2469186836966326
77.69999999999986,0.0,0.0,6671.981976110163,0.0,0.0,-65.0407764277881,0.0,0.0,0.2468463214753438
77.79999999999986,0.0,0.0,6665.481600004172,0.0,0.0,-65.01609951586445,0.0,0.0,0.2467691192364292
77.89999999999985,0.0,0.0,6658.983690361034,0.0,0.0,-64.99143079287371,0.0,0.0,0.2466872299074403
77.99999999999984,0.0,0.0,6652.488246293776,0.0,0.0,-64.96677071267688,0.0,0.0,0.24660080196832013
78.09999999999984,0.0,0.0,6645.995266872202,0.0,0.0,-64.94211971471907,0.0,0.0,0.2465099795780219
78.19999999999983,0.0,0.0,6639.50475112427,0.0,0.0,-64.91747822444931,0.0,0.0,0.24641490269756616
78.29999999999983,0.0,0.0,6633.016698037433,0.0,0.0,-64.89284665372834,0.0,0.0,0.24631570720966423
78.39999999999982,0.0,0.0,6626.531106559936,0.0,0.0,-64.86822540122483,0.0,0.0,0.24621252503503932
78.49999999999982,0.0,0.0,6620.047975602078,0.0,0.0,-64.84361485280029,0.0,0.0,0.24610548424540823
78.59999999999981,0.0,0.0,6613.567304037435,0.0,0.0,-64.81901538188295,0.0,0.0,0.24599470917338806
78.6999999999998,0.0,0.0,6607.089090704055,0.0,0.0,-64.79442734983101,0.0,0.0,0.24588032051930853
78.7999999999998,0.0,0.0,6600.613334405603,0.0,0.0,-64.76985110628551,0.0,0.0,0.24576243545499565
78.89999999999979,0.0,0.0,6594.14003391249,0.0,0.0,-64.74528698951305,0.0,0.0,0.24564116772470257
78.99999999999979,0.0,0.0,6587.669187962955,0.0,0.0,-64.72073532673873,0.0,0.0,0.2455166277431573
79.09999999999978,0.0,0.0,6581.200795264122,0.0,0.0,-64.69619643446964,0.0,0.0,0.2453889226908963
79.19999999999978,0.0,0.0,6574.734854493024,0.0,0.0,-64.67167061880895,0.0,0.0,0.2452581566069103
79.29999999999977,0.0,0.0,6568.2713642976,0.0,0.0,-64.64715817576108,0.0,0.0,0.2451244304786684
79.39999999999976,0.0,0.0,6561.810323297658,0.0,0.0,-64.62265939152812,0.0,0.0,0.2449878423296461
79.49999999999976,0.0,0.0,6555.351730085815,0.0,0.0,-64.59817454279768,0.0,0.0,0.2448484873043526
79.59999999999975,0.0,0.0,6548.895583228401,0.0,0.0,-64.57370389702258,0.0,0.0,0.24470645775098276
79.69999999999975,0.0,0.0,6542.441881266348,0.0,0.0,-64.5492477126924,0.0,0.0,0.24456184330177066
79.79999999999974,0.0,0.0,6535.990622716043,0.0,0.0,-64.52480623959731,0.0,0.0,0.2444147309510072
79.89999999999974,0.0,0.0,6529.5418060701595,0.0,0.0,-64.50037971908422,0.0,0.0,0.24426520513089578
79.99999999999973,0.0,0.0,6523.095429798468,0.0,0.0,-64.47596838430569,0.0,0.0,0.24411334778529792
80.09999999999972,0.0,0.0,6516.651492348614,0.0,0.0,-64.45157246046155,0.0,0.0,0.2439592384413487
80.19999999999972,0.0,0.0,6510.209992146882,0.0,0.0,-64.42719216503365,0.0,0.0,0.24380295427905274
80.29999999999971,0.0,0.0,6503.770927598931,0.0,0.0,-64.40282770801375,0.0,0.0,0.2436445701989367
80.39999999999971,0.0,0.0,6497.334297090513,0.0,0.0,-64.37847929212496,0.0,0.0,0.2434841588877834
80.4999999999997,0.0,0.0,6490.900098988164,0.0,0.0,-64.35414711303672,0.0,0.0,0.2433217908824421
80.5999999999997,0.0,0.0,6484.4683316398805,0.0,0.0,-64.32983135957352,0.0,0.0,0.24315753463196188
80.69999999999969,0.0,0.0,6478.0389933757715,0.0,0.0,-64.30553221391774,0.0,0.0,0.2429914565578155
80.79999999999968,0.0,0.0,6471.612082508696,0.0,0.0,-64.28124985180649,0.0,0.0,0.2428236211125352
80.89999999999968,0.0,0.0,6465.187597334878,0.0,0.0,-64.25698444272284,0.0,0.0,0.2426540908365844
80.99999999999967,0.0,0.0,6458.765536134501,0.0,0.0,-64.23273615008146,0.0,0.0,0.24248292641369673
81.09999999999967,0.0,0.0,6452.345897172294,0.0,0.0,-64.208505131409,0.0,0.0,0.24231018672460003
81.19999999999966,0.0,0.0,6445.9286786980865,0.0,0.0,-64.18429153851908,0.0,0.0,0.24213592889922886
81.29999999999966,0.0,0.0,6439.51387894736,0.0,0.0,-64.16009551768234,0.0,0.0,0.24196020836741639
81.39999999999965,0.0,0.0,6433.101496141776,0.0,0.0,-64.13591720979151,0.0,0.0,0.24178307890819717
81.49999999999964,0.0,0.0,6426.691528489687,0.0,0.0,-64.11175675052175,0.0,0.0,0.2416045926976853
81.59999999999964,0.0,0.0,6420.28397418664,0.0,0.0,-64.0876142704862,0.0,0.0,0.24142480035553682
81.69999999999963,0.0,0.0,6413.878831415856,0.0,0.0,-64.06348989538718,0.0,0.0,0.2412437509901899
81.79999999999963,0.0,0.0,6407.476098348701,0.0,0.0,-64.03938374616291,0.0,0.0,0.24106149224271256
81.89999999999962,0.0,0.0,6401.07577314514,0.0,0.0,-64.01529593912997,0.0,0.0,0.24087807032945996
81.99999999999962,0.0,0.0,6394.677853954178,0.0,0.0,-63.99122658612162,0.0,0.0,0.2406935300835098
82.09999999999961,0.0,0.0,6388.282338914291,0.0,0.0,-63.96717579462213,0.0,0.0,0.24050791499487367
82.1999999999996,0.0,0.0,6381.889226153838,0.0,0.0,-63.94314366789717,0.0,0.0,0.24032126724959113
82.2999999999996,0.0,0.0,6375.498513791465,0.0,0.0,-63.9191303051204,0.0,0.0,0.24013362776772773
82.3999999999996,0.0,0.0,6369.110199936496,0.0,0.0,-63.89513580149637,0.0,0.0,0.23994503624021135
82.49999999999959,0.0,0.0,6362.724282689314,0.0,0.0,-63.8711602483799,0.0,0.0,0.23975553116469328
82.59999999999958,0.0,0.0,6356.340760141725,0.0,0.0,-63.84720373339187,0.0,0.0,0.23956514988032573
82.69999999999958,0.0,0.0,6349.959630377314,0.0,0.0,-63.82326634053171,0.0,0.0,0.23937392860160145
82.79999999999957,0.0,0.0,6343.580891471798,0.0,0.0,-63.7993481502866,0.0,0.0,0.23918190245112392
82.89999999999957,0.0,0.0,6337.204541493352,0.0,0.0,-63.77544923973744,0.0,0.0,0.2389891054915534
82.99999999999956,0.0,0.0,6330.83057850294,0.0,0.0,-63.75156968266179,0.0,0.0,0.23879557075655455
83.09999999999955,0.0,0.0,6324.459000554628,0.0,0.0,-63.7277095496337,0.0,0.0,0.2386013302808987
83.19999999999955,0.0,0.0,6318.089805695891,0.0,0.0,-63.70386890812074,0.0,0.0,0.23840641512964922
83.29999999999954,0.0,0.0,6311.72299196791,0.0,0.0,-63.68004782257808,0.0,0.0,0.2382108554265887
83.39999999999954,0.0,0.0,6305.358557405858,0.0,0.0,-63.65624635453991,0.0,0.0,0.23801468038173823
83.49999999999953,0.0,0.0,6298.9965000391785,0.0,0.0,-63.632464562708094,0.0,0.0,0.23781791831816435
83.59999999999953,0.0,0.0,6292.636817891858,0.0,0.0,-63.6087025030383,0.0,0.0,0.23762059669794233
83.69999999999952,0.0,0.0,6286.279508982687,0.0,0.0,-63.58496022882356,0.0,0.0,0.2374227421474231
83.79999999999951,0.0,0.0,6279.924571325511,0.0,0.0,-63.56123779077538,0.0,0.0,0.23722438048178418
83.89999999999951,0.0,0.0,6273.572002929484,0.0,0.0,-63.5375352371025,0.0,0.0,0.23702553672876547
83.9999999999995,0.0,0.0,6267.221801799302,0.0,0.0,-63.51385261358732,0.0,0.0,0.23682623515187728
84.0999999999995,0.0,0.0,6260.873965935432,0.0,0.0,-63.490189963660036,0.0,0.0,0.2366264992728233
84.19999999999949,0.0,0.0,6254.528493334345,0.0,0.0,-63.4665473284707,0.0,0.0,0.2364263518933054
84.29999999999949,0.0,0.0,6248.185381988725,0.0,0.0,-63.44292474695908,0.0,0.0,0.23622581511621377
84.39999999999948,0.0,0.0,6241.844629887684,0.0,0.0,-63.41932225592246,0.0,0.0,0.23602491036619533
84.49999999999947,0.0,0.0,6235.506235016968,0.0,0.0,-63.3957398900815,0.0,0.0,0.23582365840961295
84.59999999999947,0.0,0.0,6229.170195359151,0.0,0.0,-63.372177682144105,0.0,0.0,0.23562207937396806
84.69999999999946,0.0,0.0,6222.836508893828,0.0,0.0,-63.34863566286744,0.0,0.0,0.23542019276669635
84.79999999999946,0.0,0.0,6216.505173597804,0.0,0.0,-63.32511386111809,0.0,0.0,0.2352180174934837
84.89999999999945,0.0,0.0,6210.17618744527,0.0,0.0,-63.30161230393049,0.0,0.0,0.23501557187600142
84.99999999999945,0.0,0.0,6203.849548407982,0.0,0.0,-63.27813101656357,0.0,0.0,0.23481287366917947
85.09999999999944,0.0,0.0,6197.525254455427,0.0,0.0,-63.25467002255578,0.0,0.0,0.23460994007789715
85.19999999999943,0.0,0.0,6191.2033035549875,0.0,0.0,-63.23122934377845,0.0,0.0,0.23440678777329893
85.29999999999943,0.0,0.0,6184.883693672104,0.0,0.0,-63.2078090004876,0.0,0.0,0.23420343290853474
85.39999999999942,0.0,0.0,6178.566422770422,0.0,0.0,-63.18440901137419,0.0,0.0,0.2339998911340846
85.49999999999942,0.0,0.0,6172.251488811949,0.0,0.0,-63.16102939361293,0.0,0.0,0.23379617761267824
85.59999999999941,0.0,0.0,6165.938889757193,0.0,0.0,-63.13767016290956,0.0,0.0,0.23359230703368894
85.6999999999994,0.0,0.0,6159.628623565306,0.0,0.0,-63.114331333546836,0.0,0.0,0.23338829362718805
85.7999999999994,0.0,0.0,6153.320688194219,0.0,0.0,-63.09101291842908,0.0,0.0,0.23318415117759272
85.8999999999994,0.0,0.0,6147.015081600772,0.0,0.0,-63.0677149291254,0.0,0.0,0.23297989303680566
85.99999999999939,0.0,0.0,6140.711801740841,0.0,0.0,-63.04443737591169,0.0,0.0,0.23277553213711677
86.09999999999938,0.0,0.0,6134.410846569465,0.0,0.0,-63.021180267811324,0.0,0.0,0.23257108100366963
86.19999999999938,0.0,0.0,6128.112214040961,0.0,0.0,-62.99794361263467,0.0,0.0,0.23236655176650345
86.29999999999937,0.0,0.0,6121.81590210904,0.0,0.0,-62.974727417017434,0.0,0.0,0.23216195617236046
86.39999999999937,0.0,0.0,6115.5219087269215,0.0,0.0,-62.951531686457834,0.0,0.0,0.23195730559603156
86.49999999999936,0.0,0.0,6109.230231847441,0.0,0.0,-62.92835642535269,0.0,0.0,0.23175261105147626
86.59999999999935,0.0,0.0,6102.940869423154,0.0,0.0,-62.905201637032434,0.0,0.0,0.23154788320253594
86.69999999999935,0.0,0.0,6096.653819406437,0.0,0.0,-62.8820673237951,0.0,0.0,0.23134313237336102
86.79999999999934,0.0,0.0,6090.369079749586,0.0,0.0,-62.85895348693924,0.0,0.0,0.23113836855858416
86.89999999999934,0.0,0.0,6084.086648404913,0.0,0.0,-62.835860126795936,0.0,0.0,0.23093360143307784
86.99999999999933,0.0,0.0,6077.806523324839,0.0,0.0,-62.81278724275978,0.0,0.0,0.23072884036156083
87.09999999999933,0.0,0.0,6071.528702461979,0.0,0.0,-62.789734833319,0.0,0.0,0.23052409440782995
87.19999999999932,0.0,0.0,6065.253183769232,0.0,0.0,-62.766702896084624,0.0,0.0,0.23031937234376088
87.29999999999932,0.0,0.0,6058.979965199864,0.0,0.0,-62.743691427818824,0.0,0.0,0.23011468265800872
87.39999999999931,0.0,0.0,6052.709044707585,0.0,0.0,-62.72070042446237,0.0,0.0,0.22991003356453632
87.4999999999993,0.0,0.0,6046.440420246634,0.0,0.0,-62.697729881161294,0.0,0.0,0.22970543301078017
87.5999999999993,0.0,0.0,6040.174089771848,0.0,0.0,-62.674779792292725,0.0,0.0,0.2295008886856582
87.69999999999929,0.0,0.0,6033.9100512387395,0.0,0.0,-62.651850151489995,0.0,0.0,0.22929640802732543
87.79999999999929,0.0,0.0,6027.648302603564,0.0,0.0,-62.62894095166693,0.0,0.0,0.2290919982306665
87.89999999999928,0.0,0.0,6021.388841823391,0.0,0.0,-62.60605218504146,0.0,0.0,0.2288876662546251
87.99999999999928,0.0,0.0,6015.131666856169,0.0,0.0,-62.58318384315854,0.0,0.0,0.22868341882925947
88.09999999999927,0.0,0.0,6008.87677566079,0.0,0.0,-62.56033591691227,0.0,0.0,0.22847926246263306
88.19999999999926,0.0,0.0,6002.624166197151,0.0,0.0,-62.537508396567524,0.0,0.0,0.22827520344748287
88.29999999999926,0.0,0.0,5996.373836426212,0.0,0.0,-62.51470127178075,0.0,0.0,0.2280712478677085
88.39999999999925,0.0,0.0,5990.1257843100575,0.0,0.0,-62.49191453162029,0.0,0.0,0.2278674016046356
88.49999999999925,0.0,0.0,5983.88000781195,0.0,0.0,-62.469148164585974,0.0,0.0,0.2276636703431283
88.59999999999924,0.0,0.0,5977.636504896385,0.0,0.0,-62.446402158628224,0.0,0.0,0.22746005957750803
88.69999999999924,0.0,0.0,5971.395273529141,0.0,0.0,-62.4236765011665,0.0,0.0,0.2272565746172983
88.79999999999923,0.0,0.0,5965.156311677333,0.0,0.0,-62.400971179107216,0.0,0.0,0.22705322059280952
88.89999999999922,0.0,0.0,5958.91961730946,0.0,0.0,-62.37828617886117,0.0,0.0,0.22685000246052667
88.99999999999922,0.0,0.0,5952.685188395449,0.0,0.0,-62.35562148636033,0.0,0.0,0.22664692500839578
89.09999999999921,0.0,0.0,5946.453022906706,0.0,0.0,-62.33297708707424,0.0,0.0,0.22644399286086703
89.1999999999992,0.0,0.0,5940.223118816156,0.0,0.0,-62.31035296602585,0.0,0.0,0.22624121048390755
89.2999999999992,0.0,0.0,5933.995474098286,0.0,0.0,-62.287749107806874,0.0,0.0,0.2260385821897568
89.3999999999992,0.0,0.0,5927.770086729187,0.0,0.0,-62.265165496592715,0.0,0.0,0.22583611214157528
89.49999999999919,0.0,0.0,5921.546954686593,0.0,0.0,-62.24260211615692,0.0,0.0,0.22563380435800084
89.59999999999918,0.0,0.0,5915.326075949918,0.0,0.0,-62.22005894988517,0.0,0.0,0.22543166271748838
89.69999999999918,0.0,0.0,5909.107448500294,0.0,0.0,-62.197535980788906,0.0,0.0,0.22522969096263523
89.79999999999917,0.0,0.0,5902.891070320606,0.0,0.0,-62.17503319151849,0.0,0.0,0.22502789270420465
89.89999999999917,0.0,0.0,5896.676939395526,0.0,0.0,-62.152550564375964,0.0,0.0,0.22482627142524514
89.99999999999916,0.0,0.0,5890.465053711545,0.0,0.0,-62.13008808132748,0.0,0.0,0.22462483048488835
90.09999999999916,0.0,0.0,5884.255411257009,0.0,0.0,-62.107645724015256,0.0,0.0,0.22442357312218775
90.19999999999915,0.0,0.0,5878.048010022144,0.0,0.0,-62.08522347376928,0.0,0.0,0.2242225024597122
90.29999999999914,0.0,0.0,5871.84284799909,0.0,0.0,-62.06282131161856,0.0,0.0,0.22402162150716087
90.39999999999914,0.0,0.0,5865.639923181925,0.0,0.0,-62.04043921830208,0.0,0.0,0.22382093316477736
90.49999999999913,0.0,0.0,5859.439233566698,0.0,0.0,-62.01807717427941,0.0,0.0,0.22362044022669103
90.59999999999913,0.0,0.0,5853.240777151451,0.0,0.0,-61.995735159740995,0.0,0.0,0.22342014538416244
90.69999999999912,0.0,0.0,5847.044551936246,0.0,0.0,-61.97341315461812,0.0,0.0,0.22322005122874167
90.79999999999912,0.0,0.0,5840.850555923188,0.0,0.0,-61.951111138592594,0.0,0.0,0.22302016025529525
90.89999999999911,0.0,0.0,5834.658787116452,0.0,0.0,-61.928829091106095,0.0,0.0,0.2228204748650171
90.9999999999991,0.0,0.0,5828.469243522302,0.0,0.0,-61.906566991369274,0.0,0.0,0.22262099736822272
91.0999999999991,0.0,0.0,5822.281923149115,0.0,0.0,-61.88432481837055,0.0,0.0,0.22242172998723753
91.1999999999991,0.0,0.0,5816.096824007401,0.0,0.0,-61.86210255088465,0.0,0.0,0.22222267485902236
91.29999999999909,0.0,0.0,5809.913944109823,0.0,0.0,-61.83990016748087,0.0,0.0,0.22202383403781312
91.39999999999908,0.0,0.0,5803.733281471217,0.0,0.0,-61.8177176465311,0.0,0.0,0.22182520949770712
91.49999999999908,0.0,0.0,5797.554834108611,0.0,0.0,-61.795554966217594,0.0,0.0,0.22162680313506833
91.59999999999907,0.0,0.0,5791.378600041241,0.0,0.0,-61.7734121045405,0.0,0.0,0.2214286167709929
91.69999999999906,0.0,0.0,5785.204577290569,0.0,0.0,-61.751289039325144,0.0,0.0,0.2212306521535652
91.79999999999906,0.0,0.0,5779.032763880301,0.0,0.0,-61.72918574822913,0.0,0.0,0.2210329109601723
91.89999999999905,0.0,0.0,5772.8631578364,0.0,0.0,-61.70710220874916,0.0,0.0,0.22083539479962866
91.99999999999905,0.0,0.0,5766.6957571871035,0.0,0.0,-61.685038398227725,0.0,0.0,0.2206381052143751
92.09999999999904,0.0,0.0,5760.5305599629355,0.0,0.0,-61.66299429385948,0.0,0.0,0.22044104368245065
92.19999999999904,0.0,0.0,5754.367564196724,0.0,0.0,-61.64096987269752,0.0,0.0,0.2202442116195531
92.29999999999903,0.0,0.0,5748.20676792361,0.0,0.0,-61.61896511165942,0.0,0.0,0.22004761038094323
92.39999999999903,0.0,0.0,5742.048169181063,0.0,0.0,-61.59697998753309,0.0,0.0,0.21985124126333844
92.49999999999902,0.0,0.0,5735.891766008892,0.0,0.0,-61.57501447698242,0.0,0.0,0.21965510550673173
92.59999999999901,0.0,0.0,5729.737556449258,0.0,0.0,-61.5530685565528,0.0,0.0,0.21945920429613963
92.69999999999901,0.0,0.0,5723.585538546684,0.0,0.0,-61.53114220267647,0.0,0.0,0.21926353876333593
92.799999999999,0.0,0.0,5717.435710348066,0.0,0.0,-61.50923539167762,0.0,0.0,0.2190681099885161
92.899999999999,0.0,0.0,5711.288069902684,0.0,0.0,-61.48734809977743,0.0,0.0,0.21887291900189254
92.99999999999899,0.0,0.0,5705.142615262208,0.0,0.0,-61.4654803030989,0.0,0.0,0.2186779667852612
93.09999999999899,0.0,0.0,5698.999344480712,0.0,0.0,-61.443631977671544,0.0,0.0,0.21848325427354354
93.19999999999898,0.0,0.0,5692.85825561468,0.0,0.0,-61.42180309943592,0.0,0.0,0.2182887823562183
93.29999999999897,0.0,0.0,5686.7193467230145,0.0,0.0,-61.39999364424804,0.0,0.0,0.21809455187878513
93.39999999999897,0.0,0.0,5680.582615867044,0.0,0.0,-61.37820358788363,0.0,0.0,0.21790056364409516
93.49999999999896,0.0,0.0,5674.448061110532,0.0,0.0,-61.35643290604226,0.0,0.0,0.21770681841377204
93.59999999999896,0.0,0.0,5668.315680519681,0.0,0.0,-61.334681574351315,0.0,0.0,0.21751331690944298
93.69999999999895,0.0,0.0,5662.1854721631435,0.0,0.0,-61.312949568369916,0.0,0.0,0.2173200598140177
93.79999999999895,0.0,0.0,5656.057434112023,0.0,0.0,-61.29123686359262,0.0,0.0,0.2171270477729319
93.89999999999894,0.0,0.0,5649.931564439885,0.0,0.0,-61.26954343545309,0.0,0.0,0.21693428139532678
93.99999999999893,0.0,0.0,5643.807861222758,0.0,0.0,-61.24786925932757,0.0,0.0,0.21674176125517874
94.09999999999893,0.0,0.0,5637.6863225391435,0.0,0.0,-61.226214310538325,0.0,0.0,0.21654948789244344
94.19999999999892,0.0,0.0,5631.566946470017,0.0,0.0,-61.204578564356915,0.0,0.0,0.21635746181412507
94.29999999999892,0.0,0.0,5625.449731098834,0.0,0.0,-61.182961996007386,0.0,0.0,0.2161656834953085
94.39999999999891,0.0,0.0,5619.334674511533,0.0,0.0,-61.161364580669364,0.0,0.0,0.21597415338021442
94.4999999999989,0.0,0.0,5613.221774796544,0.0,0.0,-61.13978629348105,0.0,0.0,0.21578287188315493
94.5999999999989,0.0,0.0,5607.111030044787,0.0,0.0,-61.1182271095421,0.0,0.0,0.21559183938951243
94.6999999999989,0.0,0.0,5601.002438349677,0.0,0.0,-61.096687003916436,0.0,0.0,0.21540105625662775
94.79999999999889,0.0,0.0,5594.895997807127,0.0,0.0,-61.07516595163496,0.0,0.0,0.21521052281475228
94.89999999999888,0.0,0.0,5588.791706515554,0.0,0.0,-61.05366392769817,0.0,0.0,0.21502023936788994
94.99999999999888,0.0,0.0,5582.689562575877,0.0,0.0,-61.032180907078704,0.0,0.0,0.21483020619463922
95.09999999999887,0.0,0.0,5576.589564091522,0.0,0.0,-61.010716864723804,0.0,0.0,0.2146404235490138
95.19999999999887,0.0,0.0,5570.491709168425,0.0,0.0,-60.989271775557675,0.0,0.0,0.21445089166128106
95.29999999999886,0.0,0.0,5564.39599591503,0.0,0.0,-60.96784561448381,0.0,0.0,0.21426161073865302
95.39999999999885,0.0,0.0,5558.302422442296,0.0,0.0,-60.9464383563872,0.0,0.0,0.21407258096609638
95.49999999999885,0.0,0.0,5552.210986863695,0.0,0.0,-60.92504997613649,0.0,0.0,0.21388380250702177
95.59999999999884,0.0,0.0,5546.1216872952145,0.0,0.0,-60.90368044858609,0.0,0.0,0.21369527550402623
95.69999999999884,0.0,0.0,5540.0345218553575,0.0,0.0,-60.88232974857814,0.0,0.0,0.21350700007953094
95.79999999999883,0.0,0.0,5533.949488665145,0.0,0.0,-60.86099785094449,0.0,0.0,0.21331897633646513
95.89999999999883,0.0,0.0,5527.866585848115,0.0,0.0,-60.8396847305086,0.0,0.0,0.2131312043588931
95.99999999999882,0.0,0.0,5521.785811530328,0.0,0.0,-60.818390362087335,0.0,0.0,0.21294368421263243
96.09999999999881,0.0,0.0,5515.707163840359,0.0,0.0,-60.79711472049274,0.0,0.0,0.21275641594588457
96.19999999999881,0.0,0.0,5509.630640909303,0.0,0.0,-60.77585778053376,0.0,0.0,0.21256939958978371
96.2999999999988,0.0,0.0,5503.556240870777,0.0,0.0,-60.754619517017865,0.0,0.0,0.2123826351589706
96.3999999999988,0.0,0.0,5497.483961860916,0.0,0.0,-60.73339990475265,0.0,0.0,0.2121961226521556
96.49999999999879,0.0,0.0,5491.413802018371,0.0,0.0,-60.71219891854739,0.0,0.0,0.21200986205263028
96.59999999999879,0.0,0.0,5485.345759484316,0.0,0.0,-60.69101653321451,0.0,0.0,0.21182385332878084
96.69999999999878,0.0,0.0,5479.279832402441,0.0,0.0,-60.66985272357105,0.0,0.0,0.21163809643461207
96.79999999999878,0.0,0.0,5473.2160189189535,0.0,0.0,-60.64870746444003,0.0,0.0,0.21145259131019678
96.89999999999877,0.0,0.0,5467.154317182578,0.0,0.0,-60.627580730651815,0.0,0.0,0.21126733788217678
96.99999999999876,0.0,0.0,5461.094725344554,0.0,0.0,-60.606472497045395,0.0,0.0,0.21108233606418203
97.09999999999876,0.0,0.0,5455.037241558635,0.0,0.0,-60.58538273846966,0.0,0.0,0.2108975857573121
97.19999999999875,0.0,0.0,5448.981863981091,0.0,0.0,-60.56431142978461,0.0,0.0,0.2107130868505287
97.29999999999875,0.0,0.0,5442.928590770701,0.0,0.0,-60.5432585458625,0.0,0.0,0.21052883922107846
97.39999999999874,0.0,0.0,5436.877420088756,0.0,0.0,-60.52222406158901,0.0,0.0,0.2103448427348944
97.49999999999874,0.0,0.0,5430.828350099056,0.0,0.0,-60.50120795186431,0.0,0.0,0.21016109724700627
97.59999999999873,0.0,0.0,5424.7813789679085,0.0,0.0,-60.48021019160412,0.0,0.0,0.20997760260186205
97.69999999999872,0.0,0.0,5418.736504864128,0.0,0.0,-60.45923075574075,0.0,0.0,0.20979435863375961
97.79999999999872,0.0,0.0,5412.693725959031,0.0,0.0,-60.43826961922403,0.0,0.0,0.20961136516714873
97.89999999999871,0.0,0.0,5406.6530404264395,0.0,0.0,-60.41732675702233,0.0,0.0,0.20942862201698453
97.9999999999987,0.0,0.0,5400.6144464426725,0.0,0.0,-60.39640214412342,0.0,0.0,0.20924612898909345
98.0999999999987,0.0,0.0,5394.577942186548,0.0,0.0,-60.375495755535376,0.0,0.0,0.20906388588043967
98.1999999999987,0.0,0.0,5388.543525839382,0.0,0.0,-60.35460756628743,0.0,0.0,0.2088818924794822
98.29999999999869,0.0,0.0,5382.511195584982,0.0,0.0,-60.33373755143078,0.0,0.0,0.20870014856646257
98.39999999999868,0.0,0.0,5376.480949609647,0.0,0.0,-60.312885686039415,0.0,0.0,0.20851865391366964
98.49999999999868,0.0,0.0,5370.452786102167,0.0,0.0,-60.29205194521084,0.0,0.0,0.20833740828576985
98.59999999999867,0.0,0.0,5364.426703253817,0.0,0.0,-60.27123630406683,0.0,0.0,0.2081564114400507
98.69999999999867,0.0,0.0,5358.402699258358,0.0,0.0,-60.25043873775416,0.0,0.0,0.20797566312670845
98.79999999999866,0.0,0.0,5352.380772312029,0.0,0.0,-60.22965922144525,0.0,0.0,0.20779516308907198
98.89999999999866,0.0,0.0,5346.360920613551,0.0,0.0,-60.20889773033886,0.0,0.0,0.2076149110638852
98.99999999999865,0.0,0.0,5340.343142364119,0.0,0.0,-60.18815423966071,0.0,0.0,0.20743490678153265
99.09999999999864,0.0,0.0,5334.327435767402,0.0,0.0,-60.167428724664084,0.0,0.0,0.20725514996627759
99.19999999999864,0.0,0.0,5328.31379902954,0.0,0.0,-60.146721160630435,0.0,0.0,0.2070756403365035
99.29999999999863,0.0,0.0,5322.302230359141,0.0,0.0,-60.126031522869944,0.0,0.0,0.20689637760488644
99.39999999999863,0.0,0.0,5316.292727967276,0.0,0.0,-60.105359786722076,0.0,0.0,0.20671736147868458
99.49999999999862,0.0,0.0,5310.285290067479,0.0,0.0,-60.08470592755609,0.0,0.0,0.20653859165986788
99.59999999999862,0.0,0.0,5304.279914875741,0.0,0.0,-60.06406992077155,0.0,0.0,0.20636006784537209
99.69999999999861,0.0,0.0,5298.27660061051,0.0,0.0,-60.043451741798826,0.0,0.0,0.20618178972726042
99.7999999999986,0.0,0.0,5292.275345492685,0.0,0.0,-60.02285136609954,0.0,0.0,0.20600375699291895
99.8999999999986,0.0,0.0,5286.276147745615,0.0,0.0,-60.00226876916701,0.0,0.0,0.20582596932525554
99.9999999999986,0.0,0.0,5280.2790055950945,0.0,0.0,-59.98170392652673,0.0,0.0,0.2056484264028473
100.09999999999859,0.0,0.0,5274.28391726936,0.0,0.0,-59.961156813736714,0.0,0.0,0.20547112790014666
100.19999999999858,0.0,0.0,5268.290880999089,0.0,0.0,-59.940627406387954,0.0,0.0,0.20529407348759854
100.29999999999858,0.0,0.0,5262.299895017392,0.0,0.0,-59.92011568010477,0.0,0.0,0.20511726283183762
100.39999999999857,0.0,0.0,5256.3109575598155,0.0,0.0,-59.89962161054519,0.0,0.0,0.2049406955958517
100.49999999999856,0.0,0.0,5250.324066864333,0.0,0.0,-59.879145173401284,0.0,0.0,0.20476437143906523
100.59999999999856,0.0,0.0,5244.3392211713435,0.0,0.0,-59.85868634439952,0.0,0.0,0.2045882900175897
100.69999999999855,0.0,0.0,5238.356418723668,0.0,0.0,-59.8382450993011,0.0,0.0,0.20441245098426108
100.79999999999855,0.0,0.0,5232.375657766548,0.0,0.0,-59.817821413902216,0.0,0.0,0.20423685398883684
100.89999999999854,0.0,0.0,5226.396936547638,0.0,0.0,-59.797415264034406,0.0,0.0,0.2040614986781062
100.99999999999854,0.0,0.0,5220.420253317005,0.0,0.0,-59.7770266255648,0.0,0.0,0.20388638469603393
101.09999999999853,0.0,0.0,5214.445606327124,0.0,0.0,-59.75665547439642,0.0,0.0,0.20371151168385104
101.19999999999852,0.0,0.0,5208.472993832873,0.0,0.0,-59.736301786468395,0.0,0.0,0.2035368792802199
101.29999999999852,0.0,0.0,5202.502414091533,0.0,0.0,-59.71596553775626,0.0,0.0,0.20336248712131244
101.39999999999851,0.0,0.0,5196.53386536278,0.0,0.0,-59.69564670427217,0.0,0.0,0.20318833484093268
101.49999999999851,0.0,0.0,5190.567345908684,0.0,0.0,-59.67534526206511,0.0,0.0,0.20301442207063225
101.5999999999985,0.0,0.0,5184.602853993704,0.0,0.0,-59.65506118722113,0.0,0.0,0.20284074843981514
101.6999999999985,0.0,0.0,5178.640387884686,0.0,0.0,-59.63479445586355,0.0,0.0,0.2026673135758319
101.79999999999849,0.0,0.0,5172.679945850856,0.0,0.0,-59.61454504415314,0.0,0.0,0.20249411710408083
101.89999999999849,0.0,0.0,5166.72152616382,0.0,0.0,-59.59431292828833,0.0,0.0,0.20232115864808442
101.99999999999848,0.0,0.0,5160.765127097558,0.0,0.0,-59.574098084505366,0.0,0.0,0.2021484378296421
102.09999999999847,0.0,0.0,5154.810746928422,0.0,0.0,-59.55390048907848,0.0,0.0,0.2019759542688373
102.19999999999847,0.0,0.0,5148.858383935129,0.0,0.0,-59.53372011832006,0.0,0.0,0.2018037075841974
102.29999999999846,0.0,0.0,5142.908036398758,0.0,0.0,-59.51355694858079,0.0,0.0,0.2016316973927097
102.39999999999846,0.0,0.0,5136.9597026027495,0.0,0.0,-59.4934109562498,0.0,0.0,0.20145992330995988
102.49999999999845,0.0,0.0,5131.013380832899,0.0,0.0,-59.47328211775478,0.0,0.0,0.20128838495018364
102.59999999999845,0.0,0.0,5125.069069377352,0.0,0.0,-59.45317040956214,0.0,0.0,0.20111708192634126
102.69999999999844,0.0,0.0,5119.126766526604,0.0,0.0,-59.43307580817712,0.0,0.0,0.20094601385019217
102.79999999999843,0.0,0.0,5113.1864705734915,0.0,0.0,-59.41299829014388,0.0,0.0,0.20077518033237318
102.89999999999843,0.0,0.0,5107.248179813192,0.0,0.0,-59.39293783204564,0.0,0.0,0.20060458098245704
102.99999999999842,0.0,0.0,5101.311892543219,0.0,0.0,-59.372894410504735,0.0,0.0,0.20043421540902884
103.09999999999842,0.0,0.0,5095.377607063417,0.0,0.0,-59.35286800218276,0.0,0.0,0.20026408321974465
103.19999999999841,0.0,0.0,5089.445321675958,0.0,0.0,-59.33285858378062,0.0,0.0,0.2000941840213919
103.2999999999984,0.0,0.0,5083.515034685342,0.0,0.0,-59.31286613203863,0.0,0.0,0.19992451741994444
103.3999999999984,0.0,0.0,5077.586744398383,0.0,0.0,-59.29289062373657,0.0,0.0,0.19975508302063893
103.4999999999984,0.0,0.0,5071.660449124216,0.0,0.0,-59.27293203569376,0.0,0.0,0.19958588042801217
103.59999999999839,0.0,0.0,5065.736147174285,0.0,0.0,-59.25299034476917,0.0,0.0,0.1994169092459508
103.69999999999838,0.0,0.0,5059.813836862344,0.0,0.0,-59.233065527861385,0.0,0.0,0.19924816907779075
103.79999999999838,0.0,0.0,5053.89351650445,0.0,0.0,-59.21315756190876,0.0,0.0,0.19907965952628892
103.89999999999837,0.0,0.0,5047.975184418962,0.0,0.0,-59.19326642388938,0.0,0.0,0.19891138019374033
103.99999999999837,0.0,0.0,5042.058838926534,0.0,0.0,-59.17339209082118,0.0,0.0,0.19874333068199768
104.09999999999836,0.0,0.0,5036.144478350111,0.0,0.0,-59.15353453976193,0.0,0.0,0.19857551059250866
104.19999999999835,0.0,0.0,5030.232101014928,0.0,0.0,-59.13369374780929,0.0,0.0,0.19840791952639059
104.29999999999835,0.0,0.0,5024.321705248503,0.0,0.0,-59.11386969210085,0.0,0.0,0.1982405570844339
104.39999999999834,0.0,0.0,5018.413289380636,0.0,0.0,-59.09406234981413,0.0,0.0,0.19807342286717677
104.49999999999834,0.0,0.0,5012.506851743402,0.0,0.0,-59.07427169816664,0.0,0.0,0.19790651647493007
104.59999999999833,0.0,0.0,5006.602390671148,0.0,0.0,-59.05449771441586,0.0,0.0,0.19773983750780033
104.69999999999833,0.0,0.0,5000.6999045004895,0.0,0.0,-59.03474037585928,0.0,0.0,0.19757338556577153
104.79999999999832,0.0,0.0,4994.799391570307,0.0,0.0,-59.01499965983441,0.0,0.0,0.19740716024869798
104.89999999999831,0.0,0.0,4988.900850221741,0.0,0.0,-58.995275543718776,0.0,0.0,0.19724116115636114
104.99999999999831,0.0,0.0,4983.004278798187,0.0,0.0,-58.975568004929926,0.0,0.0,0.19707538788848566
105.0999999999983,0.0,0.0,4977.109675645295,0.0,0.0,-58.95587702092545,0.0,0.0,0.19690984004478373
105.1999999999983,0.0,0.0,4971.217039110961,0.0,0.0,-58.93620256920295,0.0,0.0,0.1967445172250155
105.29999999999829,0.0,0.0,4965.326367545326,0.0,0.0,-58.916544627300055,0.0,0.0,0.19657941902894116
105.39999999999829,0.0,0.0,4959.437659300772,0.0,0.0,-58.89690317279441,0.0,0.0,0.19641454505643985
105.49999999999828,0.0,0.0,4953.5509127319165,0.0,0.0,-58.877278183303666,0.0,0.0,0.19624989490747247
105.59999999999827,0.0,0.0,4947.666126195609,0.0,0.0,-58.857669636485454,0.0,0.0,0.19608546818214379
105.69999999999827,0.0,0.0,4941.783298050927,0.0,0.0,-58.83807751003738,0.0,0.0,0.19592126448071134
105.79999999999826,0.0,0.0,4935.902426659175,0.0,0.0,-58.818501781697016,0.0,0.0,0.19575728340362808
105.89999999999826,0.0,0.0,4930.023510383874,0.0,0.0,-58.79894242924186,0.0,0.0,0.19559352455153878
105.99999999999825,0.0,0.0,4924.146547590763,0.0,0.0,-58.77939943048933,0.0,0.0,0.19542998752533514
106.09999999999825,0.0,0.0,4918.271536647792,0.0,0.0,-58.75987276329671,0.0,0.0,0.1952666719261611
106.19999999999824,0.0,0.0,4912.398475925123,0.0,0.0,-58.74036240556117,0.0,0.0,0.19510357735543593
106.29999999999824,0.0,0.0,4906.527363795119,0.0,0.0,-58.720868335219684,0.0,0.0,0.19494070341487024
106.39999999999823,0.0,0.0,4900.658198632343,0.0,0.0,-58.701390530249036,0.0,0.0,0.19477804970651214
106.49999999999822,0.0,0.0,4894.790978813555,0.0,0.0,-58.681928968665765,0.0,0.0,0.1946156158327188
106.59999999999822,0.0,0.0,4888.925702717709,0.0,0.0,-58.66248362852614,0.0,0.0,0.19445340139623468
106.69999999999821,0.0,0.0,4883.062368725947,0.0,0.0,-58.64305448792612,0.0,0.0,0.19429140600017725
106.7999999999982,0.0,0.0,4877.200975221593,0.0,0.0,-58.62364152500132,0.0,0.0,0.19412962924802635
106.8999999999982,0.0,0.0,4871.341520590154,0.0,0.0,-58.604244717926946,0.0,0.0,0.1939680707437077
106.9999999999982,0.0,0.0,4865.484003219312,0.0,0.0,-58.58486404491779,0.0,0.0,0.19380673009154492
107.09999999999819,0.0,0.0,4859.628421498924,0.0,0.0,-58.56549948422816,0.0,0.0,0.1936456068963377
107.19999999999818,0.0,0.0,4853.774773821012,0.0,0.0,-58.54615101415183,0.0,0.0,0.1934847007633156
107.29999999999818,0.0,0.0,4847.923058579766,0.0,0.0,-58.526818613022016,0.0,0.0,0.19332401129818777
107.39999999999817,0.0,0.0,4842.073274171536,0.0,0.0,-58.5075022592113,0.0,0.0,0.19316353810714126
107.49999999999817,0.0,0.0,4836.225418994826,0.0,0.0,-58.48820193113161,0.0,0.0,0.1930032807968729
107.59999999999816,0.0,0.0,4830.379491450298,0.0,0.0,-58.468917607234154,0.0,0.0,0.1928432389746053
107.69999999999816,0.0,0.0,4824.535489940758,0.0,0.0,-58.449649266009345,0.0,0.0,0.19268341224805674
107.79999999999815,0.0,0.0,4818.693412871161,0.0,0.0,-58.430396885986795,0.0,0.0,0.1925238002254961
107.89999999999814,0.0,0.0,4812.8532586486,0.0,0.0,-58.41116044573522,0.0,0.0,0.1923644025157465
107.99999999999814,0.0,0.0,4807.015025682307,0.0,0.0,-58.3919399238624,0.0,0.0,0.1922052187281924
108.09999999999813,0.0,0.0,4801.178712383648,0.0,0.0,-58.372735299015126,0.0,0.0,0.19204624847277074
108.19999999999813,0.0,0.0,4795.344317166117,0.0,0.0,-58.35354654987913,0.0,0.0,0.1918874913600046
108.29999999999812,0.0,0.0,4789.511838445334,0.0,0.0,-58.33437365517902,0.0,0.0,0.1917289470010246
108.39999999999812,0.0,0.0,4783.6812746390415,0.0,0.0,-58.315216593678265,0.0,0.0,0.19157061500754224
108.49999999999811,0.0,0.0,4777.852624167099,0.0,0.0,-58.29607534417908,0.0,0.0,0.19141249499188007
108.5999999999981,0.0,0.0,4772.02588545148,0.0,0.0,-58.27694988552238,0.0,0.0,0.19125458656699657
108.6999999999981,0.0,0.0,4766.201056916268,0.0,0.0,-58.257840196587736,0.0,0.0,0.19109688934644709
108.7999999999981,0.0,0.0,4760.378136987653,0.0,0.0,-58.23874625629329,0.0,0.0,0.19093940294443712
108.89999999999809,0.0,0.0,4754.557124093929,0.0,0.0,-58.21966804359571,0.0,0.0,0.1907821269758223
108.99999999999808,0.0,0.0,4748.738016665485,0.0,0.0,-58.200605537490105,0.0,0.0,0.19062506105608534
109.09999999999808,0.0,0.0,4742.920813134808,0.0,0.0,-58.18155871700997,0.0,0.0,0.1904682048013786
109.19999999999807,0.0,0.0,4737.105511936475,0.0,0.0,-58.16252756122712,0.0,0.0,0.19031155782850462
109.29999999999806,0.0,0.0,4731.292111507149,0.0,0.0,-58.143512049251626,0.0,0.0,0.19015511975495336
109.39999999999806,0.0,0.0,4725.480610285576,0.0,0.0,-58.12451216023174,0.0,0.0,0.18999889019888094
109.49999999999805,0.0,0.0,4719.671006712585,0.0,0.0,-58.10552787335383,0.0,0.0,0.18984286877911316
109.59999999999805,0.0,0.0,4713.863299231077,0.0,0.0,-58.08655916784231,0.0,0.0,0.1896870551151757
109.69999999999804,0.0,0.0,4708.057486286025,0.0,0.0,-58.06760602295958,0.0,0.0,0.18953144882727635
109.79999999999804,0.0,0.0,4702.253566324472,0.0,0.0,-58.048668418005946,0.0,0.0,0.1893760495363388
109.89999999999803,0.0,0.0,4696.451537795524,0.0,0.0,-58.02974633231955,0.0,0.0,0.18922085686395462
109.99999999999802,0.0,0.0,4690.651399150349,0.0,0.0,-58.0108397452763,0.0,0.0,0.18906587043244905
110.09999999999802,0.0,0.0,4684.8531488421695,0.0,0.0,-57.99194863628981,0.0,0.0,0.18891108986484717
110.19999999999801,0.0,0.0,4679.056785326262,0.0,0.0,-57.973072984811324,0.0,0.0,0.1887565147848882
110.29999999999801,0.0,0.0,4673.262307059953,0.0,0.0,-57.95421277032962,0.0,0.0,0.18860214481703963
110.399999999998,0.0,0.0,4667.469712502614,0.0,0.0,-57.93536797237097,0.0,0.0,0.18844797958647597
110.499999999998,0.0,0.0,4661.679000115658,0.0,0.0,-57.91653857049906,0.0,0.0,0.18829401871909468
110.59999999999799,0.0,0.0,4655.890168362535,0.0,0.0,-57.897724544314904,0.0,0.0,0.1881402618415482
110.69999999999798,0.0,0.0,4650.103215708733,0.0,0.0,-57.87892587345679,0.0,0.0,0.18798670858118882
110.79999999999798,0.0,0.0,4644.318140621765,0.0,0.0,-57.860142537600176,0.0,0.0,0.18783335856613803
110.89999999999797,0.0,0.0,4638.534941571177,0.0,0.0,-57.841374516457655,0.0,0.0,0.18768021142521718
110.99999999999797,0.0,0.0,4632.753617028533,0.0,0.0,-57.82262178977886,0.0,0.0,0.187527266788015
111.09999999999796,0.0,0.0,4626.974165467419,0.0,0.0,-57.80388433735037,0.0,0.0,0.18737452428485746
111.19999999999796,0.0,0.0,4621.196585363437,0.0,0.0,-57.78516213899569,0.0,0.0,0.18722198354680408
111.29999999999795,0.0,0.0,4615.420875194201,0.0,0.0,-57.76645517457512,0.0,0.0,0.18706964420567296
111.39999999999795,0.0,0.0,4609.647033439332,0.0,0.0,-57.74776342398572,0.0,0.0,0.18691750589404243
111.49999999999794,0.0,0.0,4603.875058580456,0.0,0.0,-57.72908686716119,0.0,0.0,0.18676556824521384
111.59999999999793,0.0,0.0,4598.104949101204,0.0,0.0,-57.71042548407186,0.0,0.0,0.18661383089327188
111.69999999999793,0.0,0.0,4592.336703487198,0.0,0.0,-57.69177925472456,0.0,0.0,0.18646229347302778
111.79999999999792,0.0,0.0,4586.57032022606,0.0,0.0,-57.67314815916255,0.0,0.0,0.18631095562006728
111.89999999999792,0.0,0.0,4580.805797807398,0.0,0.0,-57.65453217746548,0.0,0.0,0.18615981697073813
111.99999999999791,0.0,0.0,4575.04313472281,0.0,0.0,-57.635931289749266,0.0,0.0,0.18600887716212178
112.0999999999979,0.0,0.0,4569.282329465872,0.0,0.0,-57.61734547616606,0.0,0.0,0.18585813583207944
112.1999999999979,0.0,0.0,4563.523380532145,0.0,0.0,-57.59877471690414,0.0,0.0,0.1857075926192291
112.2999999999979,0.0,0.0,4557.766286419162,0.0,0.0,-57.580218992187845,0.0,0.0,0.18555724716296318
112.39999999999789,0.0,0.0,4552.011045626429,0.0,0.0,-57.561678282277505,0.0,0.0,0.18540709910340603
112.49999999999788,0.0,0.0,4546.257656655423,0.0,0.0,-57.543152567469356,0.0,0.0,0.18525714808147065
112.59999999999788,0.0,0.0,4540.506118009582,0.0,0.0,-57.524641828095476,0.0,0.0,0.18510739373883034
112.69999999999787,0.0,0.0,4534.756428194308,0.0,0.0,-57.50614604452368,0.0,0.0,0.18495783571791335
112.79999999999787,0.0,0.0,4529.008585716961,0.0,0.0,-57.48766519715749,0.0,0.0,0.18480847366191355
112.89999999999786,0.0,0.0,4523.262589086853,0.0,0.0,-57.46919926643601,0.0,0.0,0.1846593072148064
112.99999999999785,0.0,0.0,4517.5184368152495,0.0,0.0,-57.450748232833874,0.0,0.0,0.1845103360213205
113.09999999999785,0.0,0.0,4511.776127415362,0.0,0.0,-57.43231207686118,0.0,0.0,0.1843615597269448
113.19999999999784,0.0,0.0,4506.035659402345,0.0,0.0,-57.41389077906339,0.0,0.0,0.18421297797795155
113.29999999999784,0.0,0.0,4500.297031293295,0.0,0.0,-57.395484320021254,0.0,0.0,0.18406459042135914
113.39999999999783,0.0,0.0,4494.560241607243,0.0,0.0,-57.377092680350756,0.0,0.0,0.18391639670496396
113.49999999999783,0.0,0.0,4488.825288865155,0.0,0.0,-57.35871584070303,0.0,0.0,0.18376839647731913
113.59999999999782,0.0,0.0,4483.092171589926,0.0,0.0,-57.34035378176425,0.0,0.0,0.18362058938775405
113.69999999999781,0.0,0.0,4477.360888306375,0.0,0.0,-57.32200648425562,0.0,0.0,0.18347297508636196
113.79999999999781,0.0,0.0,4471.6314375412485,0.0,0.0,-57.303673928933215,0.0,0.0,0.18332555322399458
113.8999999999978,0.0,0.0,4465.903817823207,0.0,0.0,-57.28535609658799,0.0,0.0,0.18317832345226748
113.9999999999978,0.0,0.0,4460.178027682829,0.0,0.0,-57.26705296804563,0.0,0.0,0.1830312854235725
114.09999999999779,0.0,0.0,4454.454065652607,0.0,0.0,-57.248764524166525,0.0,0.0,0.18288443879104754
114.19999999999779,0.0,0.0,4448.731930266938,0.0,0.0,-57.230490745845664,0.0,0.0,0.1827377832086139
114.29999999999778,0.0,0.0,4443.011620062129,0.0,0.0,-57.212231614012566,0.0,0.0,0.18259131833094244
114.39999999999777,0.0,0.0,4437.293133576384,0.0,0.0,-57.19398710963122,0.0,0.0,0.18244504381346616
114.49999999999777,0.0,0.0,4431.57646934981,0.0,0.0,-57.17575721369999,0.0,0.0,0.18229895931238005
114.59999999999776,0.0,0.0,4425.861625924407,0.0,0.0,-57.15754190725152,0.0,0.0,0.18215306448464652
114.69999999999776,0.0,0.0,4420.148601844067,0.0,0.0,-57.139341171352726,0.0,0.0,0.18200735898797227
114.79999999999775,0.0,0.0,4414.43739565457,0.0,0.0,-57.12115498710464,0.0,0.0,0.18186184248085446
114.89999999999775,0.0,0.0,4408.728005903578,0.0,0.0,-57.102983335642385,0.0,0.0,0.1817165146225097
114.99999999999774,0.0,0.0,4403.0204311406405,0.0,0.0,-57.08482619813509,0.0,0.0,0.1815713750729362
115.09999999999773,0.0,0.0,4397.314669917179,0.0,0.0,-57.0666835557858,0.0,0.0,0.1814264234928853
115.19999999999773,0.0,0.0,4391.610720786494,0.0,0.0,-57.048555389831414,0.0,0.0,0.18128165954385622
115.29999999999772,0.0,0.0,4385.908582303755,0.0,0.0,-57.030441681542605,0.0,0.0,0.18113708288810493
115.39999999999772,0.0,0.0,4380.208253025999,0.0,0.0,-57.01234241222374,0.0,0.0,0.1809926931886583
115.49999999999771,0.0,0.0,4374.5097315121275,0.0,0.0,-56.99425756321281,0.0,0.0,0.18084849010926796
115.5999999999977,0.0,0.0,4368.813016322906,0.0,0.0,-56.976187115881366,0.0,0.0,0.18070447331445116
115.6999999999977,0.0,0.0,4363.118106020955,0.0,0.0,-56.95813105163442,0.0,0.0,0.18056064246946413
115.7999999999977,0.0,0.0,4357.42499917075,0.0,0.0,-56.94008935191039,0.0,0.0,0.180416997240334
115.89999999999769,0.0,0.0,4351.733694338619,0.0,0.0,-56.92206199818101,0.0,0.0,0.18027353729381979
115.99999999999768,0.0,0.0,4346.044190092735,0.0,0.0,-56.90404897195126,0.0,0.0,0.18013026229742835
116.09999999999768,0.0,0.0,4340.356485003119,0.0,0.0,-56.88605025475932,0.0,0.0,0.1799871719194126
116.19999999999767,0.0,0.0,4334.67057764163,0.0,0.0,-56.86806582817644,0.0,0.0,0.17984426582877155
116.29999999999767,0.0,0.0,4328.986466581968,0.0,0.0,-56.85009567380692,0.0,0.0,0.17970154369525204
116.39999999999766,0.0,0.0,4323.304150399665,0.0,0.0,-56.832139773287984,0.0,0.0,0.17955900518932388
116.49999999999766,0.0,0.0,4317.623627672086,0.0,0.0,-56.814198108289766,0.0,0.0,0.17941664998221896
116.59999999999765,0.0,0.0,4311.944896978423,0.0,0.0,-56.79627066051518,0.0,0.0,0.1792744777458921
116.69999999999764,0.0,0.0,4306.267956899694,0.0,0.0,-56.77835741169987,0.0,0.0,0.1791324881530425
116.79999999999764,0.0,0.0,4300.592806018737,0.0,0.0,-56.760458343612164,0.0,0.0,0.17899068087710823
116.89999999999763,0.0,0.0,4294.91944292021,0.0,0.0,-56.742573438052936,0.0,0.0,0.17884905559225217
116.99999999999763,0.0,0.0,4289.247866190584,0.0,0.0,-56.7247026768556,0.0,0.0,0.17870761197337437
117.09999999999762,0.0,0.0,4283.578074418144,0.0,0.0,-56.70684604188599,0.0,0.0,0.1785663496961174
117.19999999999762,0.0,0.0,4277.9100661929815,0.0,0.0,-56.6890035150423,0.0,0.0,0.1784252684368397
117.29999999999761,0.0,0.0,4272.243840106996,0.0,0.0,-56.67117507825504,0.0,0.0,0.17828436787263158
117.3999999999976,0.0,0.0,4266.579394753886,0.0,0.0,-56.65336071348691,0.0,0.0,0.1781436476813152
117.4999999999976,0.0,0.0,4260.91672872915,0.0,0.0,-56.635560402732764,0.0,0.0,0.17800310754143567
117.59999999999759,0.0,0.0,4255.255840630084,0.0,0.0,-56.61777412801954,0.0,0.0,0.17786274713226646
117.69999999999759,0.0,0.0,4249.596729055774,0.0,0.0,-56.600001871406164,0.0,0.0,0.1777225661337969
117.79999999999758,0.0,0.0,4243.939392607096,0.0,0.0,-56.58224361498349,0.0,0.0,0.17758256422673213
117.89999999999758,0.0,0.0,4238.283829886715,0.0,0.0,-56.564499340874235,0.0,0.0,0.1774427410925199
117.99999999999757,0.0,0.0,4232.630039499073,0.0,0.0,-56.546769031232905,0.0,0.0,0.1773030964132971
118.09999999999756,0.0,0.0,4226.978020050398,0.0,0.0,-56.52905266824571,0.0,0.0,0.17716362987194323
118.19999999999756,0.0,0.0,4221.327770148691,0.0,0.0,-56.51135023413051,0.0,0.0,0.17702434115203758
118.29999999999755,0.0,0.0,4215.679288403728,0.0,0.0,-56.493661711136724,0.0,0.0,0.17688522993786826
118.39999999999755,0.0,0.0,4210.032573427053,0.0,0.0,-56.47598708154528,0.0,0.0,0.17674629591445346
118.49999999999754,0.0,0.0,4204.38762383198,0.0,0.0,-56.45832632766853,0.0,0.0,0.17660753876750235
118.59999999999754,0.0,0.0,4198.744438233586,0.0,0.0,-56.440679431850185,0.0,0.0,0.17646895818345065
118.69999999999753,0.0,0.0,4193.103015248709,0.0,0.0,-56.423046376465244,0.0,0.0,0.1763305538494322
118.79999999999752,0.0,0.0,4187.463353495945,0.0,0.0,-56.405427143919916,0.0,0.0,0.17619232545326824
118.89999999999752,0.0,0.0,4181.825451595643,0.0,0.0,-56.387821716651565,0.0,0.0,0.1760542726835137
118.99999999999751,0.0,0.0,4176.189308169906,0.0,0.0,-56.370230077128625,0.0,0.0,0.1759163952294145
119.09999999999751,0.0,0.0,4170.554921842585,0.0,0.0,-56.35265220785053,0.0,0.0,0.17577869278091107
119.1999999999975,0.0,0.0,4164.922291239275,0.0,0.0,-56.33508809134767,0.0,0.0,0.1756411650286367
119.2999999999975,0.0,0.0,4159.291414987315,0.0,0.0,-56.31753771018128,0.0,0.0,0.17550381166395113
119.39999999999749,0.0,0.0,4153.662291715783,0.0,0.0,-56.300001046943386,0.0,0.0,0.17536663237887673
119.49999999999748,0.0,0.0,4148.034920055492,0.0,0.0,-56.28247808425677,0.0,0.0,0.1752296268661393
119.59999999999748,0.0,0.0,4142.409298638989,0.0,0.0,-56.26496880477486,0.0,0.0,0.1750927948191663
119.69999999999747,0.0,0.0,4136.7854261005505,0.0,0.0,-56.247473191181655,0.0,0.0,0.17495613593207437
119.79999999999747,0.0,0.0,4131.163301076181,0.0,0.0,-56.22999122619169,0.0,0.0,0.17481964989964993
119.89999999999746,0.0,0.0,4125.542922203608,0.0,0.0,-56.212522892549956,0.0,0.0,0.17468333641738987
119.99999999999746,0.0,0.0,4119.924288122281,0.0,0.0,-56.19506817303181,0.0,0.0,0.17454719518145723
120.09999999999745,0.0,0.0,4114.307397473366,0.0,0.0,-56.177627050442936,0.0,0.0,0.17441122588871494
120.19999999999744,0.0,0.0,4108.692248899745,0.0,0.0,-56.16019950761927,0.0,0.0,0.17427542823670628
120.29999999999744,0.0,0.0,4103.078841046012,0.0,0.0,-56.1427855274269,0.0,0.0,0.17413980192364598
120.39999999999743,0.0,0.0,4097.4671725584685,0.0,0.0,-56.12538509276206,0.0,0.0,0.17400434664841313
120.49999999999743,0.0,0.0,4091.857242085124,0.0,0.0,-56.107998186551,0.0,0.0,0.17386906211060627
120.59999999999742,0.0,0.0,4086.2490482756893,0.0,0.0,-56.09062479174995,0.0,0.0,0.17373394801045805
120.69999999999742,0.0,0.0,4080.642589781575,0.0,0.0,-56.07326489134506,0.0,0.0,0.17359900404889927
120.79999999999741,0.0,0.0,4075.0378652558898,0.0,0.0,-56.05591846835231,0.0,0.0,0.1734642299275162
120.8999999999974,0.0,0.0,4069.434873353435,0.0,0.0,-56.03858550581745,0.0,0.0,0.17332962534857366
120.9999999999974,0.0,0.0,4063.8336127307034,0.0,0.0,-56.02126598681595,0.0,0.0,0.1731951900150115
121.0999999999974,0.0,0.0,4058.234082045876,0.0,0.0,-56.003959894452905,0.0,0.0,0.17306092363042325
121.19999999999739,0.0,0.0,4052.6362799588196,0.0,0.0,-55.986667211862994,0.0,0.0,0.1729268258990757
121.29999999999738,0.0,0.0,4047.040205131081,0.0,0.0,-55.9693879222104,0.0,0.0,0.17279289652589824
121.39999999999738,0.0,0.0,4041.4458562258883,0.0,0.0,-55.952122008688754,0.0,0.0,0.17265913521647214
121.49999999999737,0.0,0.0,4035.8532319081446,0.0,0.0,-55.93486945452105,0.0,0.0,0.17252554167705014
121.59999999999737,0.0,0.0,4030.2623308444267,0.0,0.0,-55.917630242959596,0.0,0.0,0.1723921156145476
121.69999999999736,0.0,0.0,4024.6731517029816,0.0,0.0,-55.90040435728594,0.0,0.0,0.17225885673651575
121.79999999999735,0.0,0.0,4019.085693153724,0.0,0.0,-55.883191780810826,0.0,0.0,0.1721257647511809
121.89999999999735,0.0,0.0,4013.4999538682337,0.0,0.0,-55.865992496874085,0.0,0.0,0.1719928393674195
121.99999999999734,0.0,0.0,4007.9159325197506,0.0,0.0,-55.84880648884461,0.0,0.0,0.17186008029474564
122.09999999999734,0.0,0.0,4002.333627783175,0.0,0.0,-55.831633740120274,0.0,0.0,0.17172748724333253
122.19999999999733,0.0,0.0,3996.753038335062,0.0,0.0,-55.81447423412787,0.0,0.0,0.17159505992400703
122.29999999999733,0.0,0.0,3991.1741628536197,0.0,0.0,-55.797327954323045,0.0,0.0,0.1714627980482355
122.39999999999732,0.0,0.0,3985.597000018707,0.0,0.0,-55.78019488419023,0.0,0.0,0.17133070132813089
122.49999999999731,0.0,0.0,3980.02154851183,0.0,0.0,-55.763075007242584,0.0,0.0,0.1711987694764563
122.59999999999731,0.0,0.0,3974.447807016139,0.0,0.0,-55.745968307021926,0.0,0.0,0.171067002206593
122.6999999999973,0.0,0.0,3968.8757742164253,0.0,0.0,-55.72887476709867,0.0,0.0,0.17093539923258838
122.7999999999973,0.0,0.0,3963.3054487991194,0.0,0.0,-55.711794371071754,0.0,0.0,0.17080396026912048
122.89999999999729,0.0,0.0,3957.7368294522876,0.0,0.0,-55.694727102568606,0.0,0.0,0.17067268503149435
122.99999999999729,0.0,0.0,3952.1699148656294,0.0,0.0,-55.67767294524504,0.0,0.0,0.17054157323565633
123.09999999999728,0.0,0.0,3946.604703730474,0.0,0.0,-55.660631882785225,0.0,0.0,0.17041062459818868
123.19999999999727,0.0,0.0,3941.041194739778,0.0,0.0,-55.643603898901596,0.0,0.0,0.17027983883630426
123.29999999999727,0.0,0.0,3935.479386588123,0.0,0.0,-55.62658897733481,0.0,0.0,0.17014921566784302
123.39999999999726,0.0,0.0,3929.9192779717114,0.0,0.0,-55.609587101853684,0.0,0.0,0.17001875481126127
123.49999999999726,0.0,0.0,3924.3608675883656,0.0,0.0,-55.592598256255116,0.0,0.0,0.16988845598567082
