State - Time (s),State - Stage,State - Stage,State - PX (m),State - PY (m),State - PZ (m),State - VX (m/s),State - VY (m/s),State - VZ (m/s),State - AX (m/s/s),State - AY (m/s/s),State - AZ (m/s/s),State - Actuation Angle (deg),State - Acutal Angle (deg),State - CdA,State - Est Apo (m),State - Target Apogee (m),State - Mach Number,State - Tilt [deg],State - Pos - Accel Integrated [m],State - Velo - Accel Integrated [m/s],MockBarometer - Pres (hPa),MockBarometer - Temp (C),MockBarometer - Alt ASL (m),MockBarometer - Alt AGL (m),MockIMU - AccX (m/s^2),MockIMU - AccY (m/s^2),MockIMU - AccZ (m/s^2),MockIMU - GyroX (rad/s),MockIMU - GyroY (rad/s),MockIMU - GyroZ (rad/s),MockIMU - MagX (uT),MockIMU - MagY (uT),MockIMU - MagZ (uT),MockIMU - OriX,MockIMU - OriY,MockIMU - OriZ,MockIMU - OriW,MockGPS - Lat,MockGPS - Lon,MockGPS - Alt (m),MockGPS - Disp X (m),MockGPS - Disp Y (m),MockGPS - Disp Z (m),MockGPS - Fix Quality,MockGPS - Time of Day,E5 - Rel Steps,MockBR - Battery Voltage (V),MockBR - ALT (m),MockBR - PRES (Pa),MockBR - TEMP (C),MockBR - VEL (m/s),MockBR - ANG (deg),MockBR - ACCX (m/s^2),MockBR - ACCY (m/s^2),MockBR - ACCZ (m/s^2),MockBR - GYROX (rad/s),MockBR - GYROY (rad/s),MockBR - GYROZ (rad/s),MockBR - ROLL (deg),MockBR - TILT (deg)
39.178,1,0,-1.273,0.416,-7.266,-0.735,0.062,1.008,5.386,-4.112,124.109,0.000,0.000,0.0116870,0.000,9144.000,0.042,2.778,9.856,14.054,915.020,9.463,851.446,1.910,124.293,-0.106,0.450,-0.033,0.016,0.012,0.000,0.000,0.000,-0.013,0.690,0.010,0.723,0.0000000,0.0000000,1.860,0.000,0.000,0.000,0,00:00:00,-1020,0.000,1.860,91493.469,9.458,12.409,0.000,0.381,124.011,-0.007,0.004,-0.007,0.009,0.000,0.000
39.279,1,0,-1.194,0.364,-4.914,-0.143,-0.347,14.819,5.238,-3.859,124.814,0.000,0.000,0.0116870,0.000,9144.000,0.079,2.685,12.510,26.536,914.680,9.443,854.518,4.982,124.983,0.011,0.475,0.012,0.013,-0.008,0.000,0.000,0.000,-0.012,0.691,0.009,0.723,0.0000000,0.0000000,4.974,0.000,0.000,0.000,0,00:00:00,-1020,0.000,4.974,91463.508,9.441,24.910,0.000,0.279,125.015,-0.020,0.003,-0.007,0.003,0.000,0.000
39.380,1,0,-1.070,0.281,-1.030,0.404,-0.716,28.836,4.850,-3.506,125.870,0.000,0.000,0.0116870,0.000,9144.000,0.116,2.612,16.422,39.123,914.161,9.413,859.216,9.679,126.012,-0.161,0.424,0.043,0.040,-0.034,0.000,0.000,0.000,-0.012,0.692,0.007,0.722,0.0000000,0.0000000,9.350,0.000,0.000,0.000,0,00:00:00,-1020,0.000,9.350,91428.969,9.420,37.501,0.000,0.318,125.880,0.017,0.010,0.006,0.019,0.000,0.000
39.481,1,0,-0.909,0.173,4.297,0.920,-1.078,42.936,4.635,-3.486,126.514,0.000,0.000,0.0116870,0.000,9144.000,0.154,2.387,21.599,51.774,913.556,9.377,864.687,15.150,126.646,0.122,0.485,-0.021,0.015,-0.035,0.000,0.000,0.000,-0.014,0.693,0.006,0.721,0.0000000,0.0000000,14.999,0.000,0.000,0.000,0,00:00:00,-1020,0.000,14.999,91359.875,9.380,50.181,0.000,0.331,126.802,0.031,0.008,0.006,0.008,0.000,0.000
39.582,1,0,-0.716,0.042,11.050,1.435,-1.427,57.124,4.719,-3.432,127.405,0.000,0.000,0.0116870,0.000,9144.000,0.192,2.299,28.051,64.515,912.811,9.333,871.430,21.894,127.538,-0.059,0.372,0.018,0.007,-0.048,0.000,0.000,0.000,-0.015,0.693,0.004,0.721,0.0000000,0.0000000,21.927,0.000,0.000,0.000,0,00:00:00,-1020,0.000,21.927,91277.625,9.331,62.948,0.000,0.325,127.662,0.073,-0.004,0.007,-0.012,0.000,0.000
39.683,1,0,-0.494,-0.108,19.271,1.944,-1.765,71.453,4.782,-3.409,128.580,0.000,0.000,0.0116870,0.000,9144.000,0.230,2.263,35.788,77.373,911.884,9.279,879.825,30.288,128.714,-0.036,0.235,0.002,0.010,-0.010,0.000,0.000,0.000,-0.015,0.693,0.003,0.721,0.0000000,0.0000000,30.144,0.000,0.000,0.000,0,00:00:00,-1020,0.000,30.144,91189.086,9.279,75.802,0.000,0.429,128.556,-0.058,-0.003,0.013,-0.006,0.000,0.000
39.784,1,0,-0.247,-0.276,28.875,2.427,-2.128,85.811,4.647,-3.736,129.391,0.000,0.000,0.0116870,0.000,9144.000,0.269,2.207,44.819,90.312,910.871,9.219,889.005,39.469,129.528,-0.149,0.273,-0.013,0.009,0.042,0.000,0.000,0.000,-0.014,0.694,0.005,0.720,0.0000000,0.0000000,39.658,0.000,0.000,0.000,0,00:00:00,-1020,0.000,39.658,91086.820,9.219,88.741,0.000,0.323,129.480,0.045,0.008,-0.004,-0.000,0.000,0.000
39.885,1,0,0.018,-0.460,39.917,2.869,-2.454,100.235,4.390,-3.469,130.149,0.000,0.000,0.0116870,0.000,9144.000,0.308,2.155,55.152,103.327,909.665,9.148,899.955,50.419,130.269,0.034,0.440,0.008,0.009,-0.001,0.000,0.000,0.000,-0.014,0.694,0.005,0.720,0.0000000,0.0000000,50.478,0.000,0.000,0.000,0,00:00:00,-1020,0.000,50.478,90973.758,9.152,101.763,0.000,0.435,130.201,-0.009,0.015,-0.001,-0.005,0.000,0.000
39.986,1,0,0.300,-0.656,52.369,3.337,-2.768,114.689,4.794,-3.453,130.822,0.000,0.000,0.0116870,0.000,9144.000,0.347,2.105,66.793,116.409,908.329,9.069,912.092,62.556,130.955,-0.054,0.194,0.008,-0.009,-0.026,0.000,0.000,0.000,-0.015,0.694,0.004,0.720,0.0000000,0.0000000,62.611,0.000,0.000,0.000,0,00:00:00,-1020,0.000,62.611,90832.578,9.069,114.867,0.000,0.292,131.086,-0.080,0.006,-0.007,-0.018,0.000,0.000
40.087,1,0,0.599,-0.863,66.200,3.796,-3.117,129.162,4.858,-3.912,131.644,0.000,0.000,0.0116870,0.000,9144.000,0.386,2.159,79.750,129.573,906.865,8.982,925.406,75.870,131.791,-0.076,0.269,-0.030,-0.009,0.043,0.000,0.000,0.000,-0.014,0.693,0.006,0.721,0.0000000,0.0000000,76.066,0.000,0.000,0.000,0,00:00:00,-1020,0.000,76.066,90673.711,8.975,128.049,0.000,0.282,131.857,0.018,0.008,-0.007,-0.013,0.000,0.000
40.188,1,0,0.908,-1.082,81.454,4.192,-3.433,143.682,4.398,-3.699,132.415,0.000,0.000,0.0116870,0.000,9144.000,0.425,2.210,94.032,142.815,905.220,8.885,940.396,90.860,132.539,-0.066,0.366,0.017,0.029,0.013,0.000,0.000,0.000,-0.013,0.694,0.006,0.720,0.0000000,0.0000000,90.849,0.000,0.000,0.000,0,00:00:00,-1020,0.000,90.849,90526.969,8.888,141.308,0.000,0.233,132.544,0.093,-0.002,0.000,-0.011,0.000,0.000
40.289,1,0,1.222,-1.307,98.083,4.527,-3.706,158.221,3.961,-3.395,133.322,0.000,0.000,0.0116870,0.000,9144.000,0.465,2.044,109.646,156.147,903.461,8.781,956.439,106.902,133.423,-0.014,0.420,0.020,0.031,-0.010,0.000,0.000,0.000,-0.013,0.695,0.005,0.719,0.0000000,0.0000000,106.969,0.000,0.000,0.000,0,00:00:00,-1020,0.000,106.969,90353.117,8.785,154.641,0.000,0.404,133.376,-0.098,0.014,0.006,0.011,0.000,0.000
40.390,1,0,1.534,-1.536,116.124,4.801,-3.978,172.787,3.513,-3.491,134.028,0.000,0.000,0.0116870,0.000,9144.000,0.505,1.866,126.601,169.550,901.528,8.666,974.107,124.571,134.119,-0.068,0.429,-0.001,0.034,0.014,0.000,0.000,0.000,-0.013,0.697,0.006,0.717,0.0000000,0.0000000,124.431,0.000,0.000,0.000,0,00:00:00,-1020,0.000,124.431,90150.453,8.664,168.044,0.000,0.366,134.096,-0.071,0.003,-0.007,0.002,0.000,0.000
40.491,1,0,1.840,-1.766,135.504,5.026,-4.206,187.294,3.196,-3.191,134.433,0.000,0.000,0.0116870,0.000,9144.000,0.545,1.669,144.901,182.993,899.500,8.545,992.670,143.134,134.508,0.033,0.478,0.016,0.020,0.019,0.000,0.000,0.000,-0.011,0.697,0.006,0.717,0.0000000,0.0000000,143.243,0.000,0.000,0.000,0,00:00:00,-1020,0.000,143.243,89940.781,8.539,181.515,0.000,0.345,134.647,0.061,0.008,0.005,0.009,0.000,0.000
40.592,1,0,2.136,-1.994,156.231,5.223,-4.398,201.802,3.078,-2.952,135.363,0.000,0.000,0.0116870,0.000,9144.000,0.586,1.554,164.554,196.529,897.323,8.415,1012.637,163.101,135.430,0.082,0.211,0.015,0.031,-0.017,0.000,0.000,0.000,-0.011,0.698,0.005,0.716,0.0000000,0.0000000,163.410,0.000,0.000,0.000,0,00:00:00,-1020,0.000,163.410,89726.547,8.412,195.048,0.000,0.254,135.264,-0.011,-0.017,0.005,0.008,0.000,0.000
40.693,1,0,2.422,-2.219,178.270,5.411,-4.598,216.247,3.137,-3.145,135.892,0.000,0.000,0.0116870,0.000,9144.000,0.626,1.379,185.565,210.119,895.029,8.278,1033.719,184.183,135.964,0.103,0.355,-0.015,-0.014,-0.020,0.000,0.000,0.000,-0.013,0.698,0.004,0.716,0.0000000,0.0000000,184.938,0.000,0.000,0.000,0,00:00:00,-1020,0.000,184.938,89488.422,8.269,208.641,0.000,0.287,135.973,-0.009,-0.005,0.003,0.009,0.000,0.000
40.794,1,0,2.696,-2.440,201.760,5.530,-4.780,230.734,2.596,-3.086,136.385,0.000,0.000,0.0116870,0.000,9144.000,0.667,1.456,207.941,223.757,892.486,8.126,1057.145,207.609,136.444,-0.040,0.540,0.016,0.027,0.000,0.000,0.000,0.000,-0.012,0.699,0.004,0.715,0.0000000,0.0000000,207.833,0.000,0.000,0.000,0,00:00:00,-1020,0.000,207.833,89248.664,8.126,222.286,0.000,0.268,136.501,-0.002,0.000,0.011,-0.002,0.000,0.000
40.895,1,0,2.954,-2.657,226.613,5.652,-4.964,245.186,2.756,-3.214,136.797,0.000,0.000,0.0116870,0.000,9144.000,0.708,1.302,231.685,237.437,889.862,7.968,1081.369,231.833,136.863,-0.106,0.078,-0.004,0.023,-0.006,0.000,0.000,0.000,-0.012,0.700,0.004,0.714,0.0000000,0.0000000,232.099,0.000,0.000,0.000,0,00:00:00,-1020,0.000,232.099,88987.672,7.969,235.980,0.000,0.289,136.940,-0.037,-0.010,0.006,-0.008,0.000,0.000
40.996,1,0,3.198,-2.870,252.826,5.725,-5.152,259.600,2.401,-3.370,137.161,0.000,0.000,0.0116870,0.000,9144.000,0.749,1.170,256.800,251.153,887.097,7.802,1106.961,257.424,137.223,-0.024,0.373,-0.016,0.004,0.039,0.000,0.000,0.000,-0.012,0.700,0.006,0.714,0.0000000,0.0000000,257.739,0.000,0.000,0.000,0,00:00:00,-1020,0.000,257.739,88712.945,7.804,249.716,0.000,0.410,137.336,0.034,0.013,-0.004,0.002,0.000,0.000
41.097,1,0,3.426,-3.080,280.439,5.821,-5.313,274.019,2.758,-3.214,137.651,0.000,0.000,0.0116870,0.000,9144.000,0.790,1.146,283.292,264.918,884.159,7.625,1134.220,284.684,137.716,-0.127,0.400,0.019,-0.027,-0.020,0.000,0.000,0.000,-0.012,0.699,0.004,0.715,0.0000000,0.0000000,284.758,0.000,0.000,0.000,0,00:00:00,-1020,0.000,284.758,88407.969,7.620,263.487,0.000,0.386,137.798,-0.083,-0.004,0.013,-0.010,0.000,0.000
41.198,1,0,3.642,-3.284,309.365,5.930,-5.464,288.359,2.988,-3.231,137.941,0.000,0.000,0.0116870,0.000,9144.000,0.832,1.300,311.163,278.712,881.147,7.442,1162.250,312.714,138.010,0.132,0.301,-0.020,-0.009,0.003,0.000,0.000,0.000,-0.012,0.699,0.005,0.715,0.0000000,0.0000000,313.156,0.000,0.000,0.000,0,00:00:00,-1020,0.000,313.156,88119.023,7.445,277.286,0.000,0.332,138.018,0.016,-0.014,-0.036,-0.005,0.000,0.000
41.299,1,0,3.846,-3.482,339.687,6.010,-5.608,302.676,2.818,-3.249,138.098,0.000,0.000,0.0116870,0.000,9144.000,0.873,1.352,340.415,292.522,877.931,7.247,1192.254,342.718,138.165,-0.025,0.254,0.010,0.017,-0.023,0.000,0.000,0.000,-0.013,0.699,0.004,0.715,0.0000000,0.0000000,342.937,0.000,0.000,0.000,0,00:00:00,-1020,0.000,342.937,87782.867,7.241,291.105,0.000,0.342,138.214,-0.042,0.013,0.013,-0.003,0.000,0.000
41.400,1,0,4.038,-3.674,367.003,6.057,-5.726,313.667,2.594,-3.108,138.106,0.000,0.000,0.0116870,0.000,9144.000,0.915,1.257,371.049,306.333,877.931,7.247,1192.254,342.718,138.165,-0.025,0.254,0.010,0.017,-0.023,0.000,0.000,0.000,-0.013,0.700,0.003,0.714,0.0000000,0.0000000,342.937,0.000,0.000,0.000,0,00:00:00,-1020,0.000,342.937,87782.867,7.241,291.105,0.000,0.342,138.214,-0.042,0.013,0.013,-0.003,0.000,0.000
41.501,1,0,4.213,-3.858,400.385,6.054,-5.840,328.382,2.187,-3.155,138.321,0.000,0.000,0.0116870,0.000,9144.000,0.957,1.162,403.065,320.165,871.128,6.832,1256.029,406.493,138.373,0.020,0.483,-0.006,0.013,-0.007,0.000,0.000,0.000,-0.014,0.700,0.003,0.714,0.0000000,0.0000000,406.644,0.000,0.000,0.000,0,00:00:00,-1020,0.000,406.644,87108.367,6.830,318.763,0.000,0.343,138.333,-0.073,0.005,0.011,0.017,0.000,0.000
41.602,1,0,4.373,-4.038,435.116,6.095,-5.989,342.968,2.698,-3.601,138.055,0.000,0.000,0.0116870,0.000,9144.000,0.998,1.086,436.462,333.970,867.529,6.612,1289.933,440.397,138.128,-0.174,0.376,-0.018,-0.030,0.016,0.000,0.000,0.000,-0.014,0.699,0.004,0.715,0.0000000,0.0000000,440.570,0.000,0.000,0.000,0,00:00:00,-1020,0.000,440.570,86749.820,6.610,332.583,0.000,0.422,138.193,-0.073,-0.007,-0.007,-0.011,0.000,0.000
41.703,1,0,4.525,-4.213,471.200,6.181,-6.129,357.444,3.231,-3.601,137.841,0.000,0.000,0.0116870,0.000,9144.000,1.040,1.255,471.237,347.754,863.789,6.382,1325.284,475.748,137.926,-0.020,0.247,-0.012,-0.030,-0.008,0.000,0.000,0.000,-0.014,0.698,0.004,0.716,0.0000000,0.0000000,475.873,0.000,0.000,0.000,0,00:00:00,-1020,0.000,475.873,86386.734,6.387,346.381,0.000,0.313,137.932,0.100,-0.002,-0.001,0.002,0.000,0.000
41.804,1,0,4.671,-4.385,503.484,6.300,-6.276,367.987,3.642,-3.763,137.827,0.000,0.000,0.0116870,0.000,9144.000,1.081,1.423,507.391,361.537,863.789,6.382,1325.284,475.748,137.926,-0.020,0.247,-0.012,-0.030,-0.008,0.000,0.000,0.000,-0.015,0.697,0.004,0.717,0.0000000,0.0000000,475.873,0.000,0.000,0.000,0,00:00:00,-1020,0.000,475.873,86386.734,6.387,346.381,0.000,0.313,137.932,0.100,-0.002,-0.001,0.002,0.000,0.000
41.905,1,0,4.813,-4.556,542.601,6.385,-6.450,382.867,3.365,-4.119,138.114,0.000,0.000,0.0116870,0.000,9144.000,1.123,1.591,544.926,375.348,855.950,5.898,1399.779,550.243,138.215,-0.071,0.583,-0.021,-0.004,0.005,0.000,0.000,0.000,-0.016,0.697,0.005,0.717,0.0000000,0.0000000,550.619,0.000,0.000,0.000,0,00:00:00,-1020,0.000,550.619,85597.664,5.899,373.995,0.000,0.373,138.181,-0.066,-0.013,0.005,0.009,0.000,0.000
42.006,1,0,4.947,-4.726,583.017,6.424,-6.616,397.604,2.988,-4.127,138.206,0.000,0.000,0.0116870,0.000,9144.000,1.165,1.611,583.843,389.169,851.852,5.643,1438.945,589.408,138.299,-0.098,0.334,0.001,0.045,0.004,0.000,0.000,0.000,-0.015,0.699,0.005,0.715,0.0000000,0.0000000,590.064,0.000,0.000,0.000,0,00:00:00,-1020,0.000,590.064,85186.016,5.643,387.815,0.000,0.338,138.205,-0.101,-0.001,-0.003,-0.008,0.000,0.000
42.107,1,0,5.074,-4.896,624.734,6.489,-6.787,412.200,3.316,-4.269,138.206,0.000,0.000,0.0116870,0.000,9144.000,1.207,1.352,624.142,402.989,847.625,5.379,1479.507,629.970,138.311,-0.096,0.440,-0.010,-0.032,0.015,0.000,0.000,0.000,-0.015,0.697,0.006,0.716,0.0000000,0.0000000,630.890,0.000,0.000,0.000,0,00:00:00,-1020,0.000,630.890,84752.609,5.373,401.639,0.000,0.387,138.105,-0.018,-0.019,-0.001,-0.006,0.000,0.000
42.208,1,0,5.196,-5.066,667.859,6.580,-6.965,426.749,3.637,-4.424,138.212,0.000,0.000,0.0116870,0.000,9144.000,1.249,1.534,665.823,416.811,843.191,5.101,1522.229,672.693,138.330,-0.133,0.368,-0.009,-0.017,-0.031,0.000,0.000,0.000,-0.017,0.697,0.005,0.717,0.0000000,0.0000000,673.098,0.000,0.000,0.000,0,00:00:00,-1020,0.000,673.098,84321.516,5.103,415.461,0.000,0.260,138.240,-0.073,0.015,0.002,0.014,0.000,0.000
42.309,1,0,5.314,-5.237,712.259,6.655,-7.164,441.133,3.536,-4.721,138.019,0.000,0.000,0.0116870,0.000,9144.000,1.291,1.630,708.884,430.612,838.725,4.820,1565.442,715.906,138.144,-0.127,0.324,-0.022,0.010,0.015,0.000,0.000,0.000,-0.017,0.697,0.007,0.717,0.0000000,0.0000000,716.686,0.000,0.000,0.000,0,00:00:00,-1020,0.000,716.686,83866.742,4.817,429.279,0.000,0.309,138.134,0.098,-0.006,-0.018,-0.016,0.000,0.000
42.410,1,0,5.427,-5.411,751.685,6.710,-7.384,450.715,3.395,-5.030,138.012,0.000,0.000,0.0116870,0.000,9144.000,1.332,1.573,753.325,444.414,838.725,4.820,1565.442,715.906,138.144,-0.127,0.324,-0.022,0.010,0.015,0.000,0.000,0.000,-0.017,0.697,0.008,0.716,0.0000000,0.0000000,716.686,0.000,0.000,0.000,0,00:00:00,-1020,0.000,716.686,83866.742,4.817,429.279,0.000,0.309,138.134,0.098,-0.006,-0.018,-0.016,0.000,0.000
42.511,1,0,5.533,-5.588,799.204,6.752,-7.583,465.613,3.328,-4.909,137.939,0.000,0.000,0.0116870,0.000,9144.000,1.375,1.515,799.146,458.208,829.359,4.227,1656.675,807.139,138.066,0.040,0.314,-0.003,0.004,0.028,0.000,0.000,0.000,-0.016,0.698,0.009,0.716,0.0000000,0.0000000,808.000,0.000,0.000,0.000,0,00:00:00,-1020,0.000,808.000,82943.945,4.232,456.889,0.000,0.321,137.945,-0.045,0.001,-0.006,-0.014,0.000,0.000
42.612,1,0,5.634,-5.765,848.118,6.789,-7.745,480.430,3.332,-4.629,137.955,0.000,0.000,0.0116870,0.000,9144.000,1.417,1.491,846.347,472.003,824.442,3.913,1704.914,855.377,138.072,0.070,0.447,0.018,-0.010,-0.003,0.000,0.000,0.000,-0.016,0.697,0.008,0.717,0.0000000,0.0000000,855.724,0.000,0.000,0.000,0,00:00:00,-1020,0.000,855.724,82444.109,3.913,470.674,0.000,0.412,137.856,-0.027,-0.009,0.007,-0.017,0.000,0.000
42.713,1,0,5.727,-5.942,898.293,6.805,-7.939,495.040,3.167,-5.051,137.630,0.000,0.000,0.0116870,0.000,9144.000,1.460,1.548,894.923,485.766,819.497,3.597,1753.652,904.116,137.758,-0.253,0.397,-0.008,0.015,0.012,0.000,0.000,0.000,-0.016,0.698,0.009,0.716,0.0000000,0.0000000,904.822,0.000,0.000,0.000,0,00:00:00,-1020,0.000,904.822,81948.562,3.596,484.443,0.000,0.331,137.676,-0.111,0.006,-0.002,-0.005,0.000,0.000
42.814,1,0,5.815,-6.118,949.724,6.859,-8.112,509.460,3.596,-4.928,137.358,0.000,0.000,0.0116870,0.000,9144.000,1.502,1.463,944.873,499.502,814.440,3.271,1803.749,954.212,137.493,-0.124,0.252,-0.001,-0.022,0.007,0.000,0.000,0.000,-0.015,0.697,0.009,0.717,0.0000000,0.0000000,955.293,0.000,0.000,0.000,0,00:00:00,-1020,0.000,955.293,81451.680,3.276,498.191,0.000,0.379,137.503,0.053,0.001,0.000,-0.023,0.000,0.000
42.915,1,0,5.900,-6.294,995.199,6.939,-8.277,518.341,3.888,-4.946,137.350,0.000,0.000,0.0116870,0.000,9144.000,1.543,1.586,996.197,513.237,814.440,3.271,1803.749,954.212,137.493,-0.124,0.252,-0.001,-0.022,0.007,0.000,0.000,0.000,-0.015,0.696,0.010,0.718,0.0000000,0.0000000,955.293,0.000,0.000,0.000,0,00:00:00,-1020,0.000,955.293,81451.680,3.276,498.191,0.000,0.379,137.503,0.053,0.001,0.000,-0.023,0.000,0.000
43.016,1,0,5.986,-6.468,1035.073,7.043,-8.435,522.365,4.180,-4.964,137.340,0.000,0.000,0.0116870,0.000,9144.000,1.584,1.709,1048.894,526.971,814.440,3.271,1803.749,954.212,137.493,-0.124,0.252,-0.001,-0.022,0.007,0.000,0.000,0.000,-0.015,0.696,0.010,0.718,0.0000000,0.0000000,955.293,0.000,0.000,0.000,0,00:00:00,-1020,0.000,955.293,81451.680,3.276,498.191,0.000,0.379,137.503,0.053,0.001,0.000,-0.023,0.000,0.000
43.117,1,0,6.072,-6.639,1092.102,7.114,-8.572,538.815,3.897,-4.846,136.430,0.000,0.000,0.0116870,0.000,9144.000,1.628,1.833,1102.955,540.614,798.474,2.232,1963.569,1114.032,136.571,-0.089,0.403,0.004,0.007,0.005,0.000,0.000,0.000,-0.015,0.696,0.010,0.718,0.0000000,0.0000000,1114.919,0.000,0.000,0.000,0,00:00:00,-1020,0.000,1114.919,79849.539,2.233,539.293,0.000,0.439,136.689,-0.005,0.008,-0.002,-0.006,0.000,0.000
43.218,1,0,6.157,-6.807,1150.385,7.191,-8.703,554.973,3.995,-4.880,136.556,0.000,0.000,0.0116870,0.000,9144.000,1.671,1.791,1158.382,554.269,792.962,1.869,2019.349,1169.812,136.701,-0.139,0.293,0.002,0.001,0.011,0.000,0.000,0.000,-0.014,0.696,0.010,0.718,0.0000000,0.0000000,1170.856,0.000,0.000,0.000,0,00:00:00,-1020,0.000,1170.856,79297.062,1.869,552.937,0.000,0.376,136.398,-0.075,-0.001,-0.012,0.008,0.000,0.000
43.319,1,0,6.240,-6.970,1201.903,7.261,-8.824,564.857,3.979,-4.861,136.557,0.000,0.000,0.0116870,0.000,9144.000,1.712,1.786,1215.175,567.925,792.962,1.869,2019.349,1169.812,136.701,-0.139,0.293,0.002,0.001,0.011,0.000,0.000,0.000,-0.014,0.696,0.011,0.718,0.0000000,0.0000000,1170.856,0.000,0.000,0.000,0,00:00:00,-1020,0.000,1170.856,79297.062,1.869,552.937,0.000,0.376,136.398,-0.075,-0.001,-0.012,0.008,0.000,0.000
43.420,1,0,6.322,-7.128,1263.250,7.328,-8.921,581.259,3.991,-4.714,135.735,0.000,0.000,0.0116870,0.000,9144.000,1.755,1.781,1273.325,581.499,781.642,1.117,2134.892,1285.356,135.875,-0.006,0.407,-0.001,-0.012,0.011,0.000,0.000,0.000,-0.013,0.695,0.011,0.718,0.0000000,0.0000000,1286.802,0.000,0.000,0.000,0,00:00:00,-1020,0.000,1286.802,78157.703,1.113,580.129,0.000,0.335,135.830,0.064,0.010,0.008,0.000,0.000,0.000
43.521,1,0,6.404,-7.280,1325.824,7.417,-9.024,597.294,4.250,-4.841,135.259,0.000,0.000,0.0116870,0.000,9144.000,1.797,1.848,1332.827,595.024,775.819,0.728,2194.856,1345.320,135.412,0.025,0.374,-0.013,-0.017,-0.020,0.000,0.000,0.000,-0.015,0.695,0.011,0.719,0.0000000,0.0000000,1346.804,0.000,0.000,0.000,0,00:00:00,-1020,0.000,1346.804,77574.172,0.722,593.673,0.000,0.320,135.470,-0.012,0.010,-0.008,0.001,0.000,0.000
43.622,1,0,6.488,-7.429,1389.667,7.562,-9.165,613.037,4.844,-5.306,134.954,0.000,0.000,0.0116870,0.000,9144.000,1.839,1.945,1393.679,608.520,769.864,0.326,2256.553,1407.017,135.145,-0.090,0.445,-0.026,-0.050,0.008,0.000,0.000,0.000,-0.015,0.693,0.012,0.721,0.0000000,0.0000000,1408.155,0.000,0.000,0.000,0,00:00:00,-1020,0.000,1408.155,76988.148,0.328,607.181,0.000,0.268,135.018,0.023,-0.014,0.003,-0.008,0.000,0.000
43.723,1,0,6.579,-7.576,1454.682,7.744,-9.291,628.408,5.259,-5.237,134.342,0.000,0.000,0.0116870,0.000,9144.000,1.881,2.233,1455.875,621.954,763.873,-0.080,2319.020,1469.484,134.546,0.069,0.299,-0.009,-0.022,-0.006,0.000,0.000,0.000,-0.016,0.692,0.012,0.721,0.0000000,0.0000000,1470.849,0.000,0.000,0.000,0,00:00:00,-1020,0.000,1470.849,76380.398,-0.085,620.650,0.000,0.292,134.757,-0.006,0.006,-0.001,-0.003,0.000,0.000
43.824,1,0,6.678,-7.723,1520.949,7.911,-9.459,643.516,5.164,-5.722,133.936,0.000,0.000,0.0116870,0.000,9144.000,1.923,2.356,1519.409,635.348,757.732,-0.499,2383.462,1533.926,134.157,-0.216,0.403,-0.016,-0.002,-0.004,0.000,0.000,0.000,-0.017,0.692,0.013,0.721,0.0000000,0.0000000,1534.884,0.000,0.000,0.000,0,00:00:00,-1020,0.000,1534.884,75773.992,-0.498,634.079,0.000,0.346,134.287,0.028,0.003,-0.005,0.009,0.000,0.000
43.925,1,0,6.783,-7.872,1579.241,8.074,-9.641,651.524,5.188,-5.937,133.926,0.000,0.000,0.0116870,0.000,9144.000,1.964,2.365,1584.283,648.740,757.732,-0.499,2383.462,1533.926,134.157,-0.216,0.403,-0.016,-0.002,-0.004,0.000,0.000,0.000,-0.017,0.692,0.013,0.721,0.0000000,0.0000000,1534.884,0.000,0.000,0.000,0,00:00:00,-1020,0.000,1534.884,75773.992,-0.498,634.079,0.000,0.346,134.287,0.028,0.003,-0.005,0.009,0.000,0.000
44.026,2,0,6.854,-7.983,1647.193,7.386,-8.935,646.766,-3.211,2.791,-65.467,0.000,0.000,0.0116870,0.000,9144.000,1.947,2.373,1648.503,642.194,745.606,-1.334,2511.956,1662.420,-65.604,0.062,0.408,0.011,-0.012,0.021,0.000,0.000,0.000,-0.016,0.692,0.013,0.722,0.0000000,0.0000000,1663.973,0.000,0.000,0.000,0,00:00:00,-1020,0.000,1663.973,74554.414,-1.339,640.914,0.000,0.356,-65.523,-0.061,0.014,-0.007,0.000,0.000,0.000
44.127,2,0,6.856,-8.020,1714.019,6.724,-8.240,641.673,-2.949,2.666,-63.952,0.000,0.000,0.0115754,0.000,9144.000,1.929,2.440,1712.083,635.798,739.736,-1.743,2574.773,1725.236,-64.075,0.067,0.346,0.010,0.021,-0.004,0.000,0.000,0.000,-0.016,0.692,0.013,0.721,0.0000000,0.0000000,1727.058,0.000,0.000,0.000,0,00:00:00,-1020,0.000,1727.058,73974.266,-1.742,634.505,0.000,0.338,-64.203,-0.017,-0.001,-0.023,0.008,0.000,0.000
44.228,2,0,6.798,-7.989,1779.811,6.062,-7.537,636.319,-2.982,2.750,-62.644,0.000,0.000,0.0114744,0.000,9144.000,1.911,2.318,1775.036,629.534,733.927,-2.150,2637.339,1787.802,-62.773,0.155,0.445,-0.008,0.002,-0.009,0.000,0.000,0.000,-0.016,0.693,0.013,0.721,0.0000000,0.0000000,1789.524,0.000,0.000,0.000,0,00:00:00,-1020,0.000,1789.524,73396.211,-2.147,628.236,0.000,0.333,-62.649,-0.005,0.011,0.012,0.006,0.000,0.000
44.329,2,0,6.685,-7.898,1844.597,5.424,-6.867,630.748,-2.801,2.482,-61.309,0.000,0.000,0.0113917,0.000,9144.000,1.894,2.304,1837.376,623.403,728.216,-2.552,2699.233,1849.697,-61.422,-0.186,0.359,-0.021,0.007,-0.007,0.000,0.000,0.000,-0.017,0.693,0.013,0.721,0.0000000,0.0000000,1851.383,0.000,0.000,0.000,0,00:00:00,-1020,0.000,1851.383,72819.992,-2.553,622.101,0.000,0.341,-61.384,0.134,-0.015,0.006,0.003,0.000,0.000
44.430,2,0,6.527,-7.754,1908.392,4.822,-6.176,624.987,-2.525,2.767,-59.956,0.000,0.000,0.0113216,0.000,9144.000,1.877,2.265,1899.117,617.407,722.612,-2.950,2760.348,1910.812,-60.072,0.079,0.151,-0.013,0.003,-0.015,0.000,0.000,0.000,-0.018,0.693,0.013,0.721,0.0000000,0.0000000,1912.648,0.000,0.000,0.000,0,00:00:00,-1020,0.000,1912.648,72262.273,-2.949,616.095,0.000,0.330,-60.021,-0.009,-0.001,0.017,0.005,0.000,0.000
44.531,2,0,6.326,-7.561,1971.242,4.179,-5.510,619.087,-3.036,2.613,-58.604,0.000,0.000,0.0112617,0.000,9144.000,1.861,2.245,1960.272,611.547,717.091,-3.344,2820.937,1971.401,-58.739,-0.019,0.466,-0.003,-0.041,-0.035,0.000,0.000,0.000,-0.020,0.691,0.012,0.722,0.0000000,0.0000000,1973.332,0.000,0.000,0.000,0,00:00:00,-1020,0.000,1973.332,71711.016,-3.342,610.215,0.000,0.336,-58.749,-0.019,0.014,0.004,0.001,0.000,0.000
44.632,2,0,6.088,-7.327,2033.156,3.588,-4.896,613.060,-2.656,2.227,-57.291,0.000,0.000,0.0112107,0.000,9144.000,1.845,2.480,2020.853,605.818,711.678,-3.732,2880.716,2031.180,-57.395,-0.066,0.337,0.050,0.033,0.014,0.000,0.000,0.000,-0.018,0.693,0.011,0.721,0.0000000,0.0000000,2033.446,0.000,0.000,0.000,0,00:00:00,-1020,0.000,2033.446,71170.242,-3.731,604.456,0.000,0.264,-57.588,-0.048,0.003,-0.015,-0.010,0.000,0.000
44.733,2,0,5.819,-7.061,2094.260,3.029,-4.303,606.976,-2.477,2.166,-56.335,0.000,0.000,0.0111651,0.000,9144.000,1.829,2.294,2080.872,600.184,706.292,-4.122,2940.559,2091.023,-56.430,-0.071,0.159,0.003,-0.006,-0.012,0.000,0.000,0.000,-0.018,0.692,0.010,0.721,0.0000000,0.0000000,2093.002,0.000,0.000,0.000,0,00:00:00,-1020,0.000,2093.002,70629.922,-4.121,598.814,0.000,0.381,-56.388,0.072,-0.006,-0.001,0.020,0.000,0.000
44.834,2,0,5.524,-6.765,2154.533,2.468,-3.725,600.857,-2.642,2.164,-55.030,0.000,0.000,0.0111409,0.000,9144.000,1.813,2.331,2140.340,594.681,701.022,-4.505,2999.460,2149.924,-55.135,-0.008,0.363,0.002,-0.003,-0.000,0.000,0.000,0.000,-0.018,0.692,0.010,0.721,0.0000000,0.0000000,2152.011,0.000,0.000,0.000,0,00:00:00,-1020,0.000,2152.011,70107.234,-4.501,593.284,0.000,0.340,-55.395,-0.011,0.006,0.005,-0.003,0.000,0.000
44.935,2,0,5.207,-6.445,2214.001,1.922,-3.164,594.694,-2.674,2.162,-54.045,0.000,0.000,0.0111178,0.000,9144.000,1.798,2.346,2199.268,589.277,695.839,-4.884,3057.751,2208.215,-54.152,-0.002,0.474,-0.008,0.009,-0.033,0.000,0.000,0.000,-0.019,0.693,0.009,0.721,0.0000000,0.0000000,2210.483,0.000,0.000,0.000,0,00:00:00,-1020,0.000,2210.483,69589.969,-4.879,587.863,0.000,0.419,-54.156,-0.039,-0.009,0.002,-0.021,0.000,0.000
45.036,2,0,4.870,-6.106,2272.705,1.409,-2.646,588.520,-2.519,1.919,-53.072,0.000,0.000,0.0111099,0.000,9144.000,1.783,2.296,2257.665,583.970,690.729,-5.260,3115.564,2266.027,-53.165,-0.007,0.335,0.037,-0.004,-0.008,0.000,0.000,0.000,-0.018,0.692,0.008,0.721,0.0000000,0.0000000,2268.429,0.000,0.000,0.000,0,00:00:00,-1020,0.000,2268.429,69081.047,-5.254,582.548,0.000,0.319,-53.132,0.040,0.016,0.011,0.004,0.000,0.000
45.137,2,0,4.520,-5.753,2330.687,0.919,-2.166,582.365,-2.471,1.721,-52.120,0.000,0.000,0.0111129,0.000,9144.000,1.768,2.324,2315.540,578.758,685.692,-5.632,3172.902,2323.366,-52.205,-0.133,0.436,0.007,0.020,0.011,0.000,0.000,0.000,-0.017,0.693,0.008,0.721,0.0000000,0.0000000,2325.859,0.000,0.000,0.000,0,00:00:00,-1020,0.000,2325.859,68565.461,-5.635,577.334,0.000,0.344,-52.225,0.007,0.005,0.007,0.001,0.000,0.000
45.238,2,0,4.159,-5.390,2387.936,0.459,-1.702,576.229,-2.370,1.758,-51.063,0.000,0.000,0.0111254,0.000,9144.000,1.754,2.209,2372.906,573.651,680.753,-6.000,3229.436,2379.900,-51.147,0.022,0.390,0.016,0.003,0.001,0.000,0.000,0.000,-0.017,0.693,0.007,0.720,0.0000000,0.0000000,2382.783,0.000,0.000,0.000,0,00:00:00,-1020,0.000,2382.783,68071.484,-6.003,572.219,0.000,0.366,-51.230,0.019,-0.007,-0.014,-0.012,0.000,0.000
45.339,2,0,3.791,-5.020,2444.581,0.031,-1.253,570.190,-2.240,1.814,-50.185,0.000,0.000,0.0111393,0.000,9144.000,1.740,2.193,2429.769,568.633,675.828,-6.369,3286.153,2436.617,-50.266,0.079,0.315,-0.005,0.004,0.015,0.000,0.000,0.000,-0.016,0.693,0.008,0.720,0.0000000,0.0000000,2439.210,0.000,0.000,0.000,0,00:00:00,-1020,0.000,2439.210,67577.562,-6.373,567.199,0.000,0.354,-50.187,-0.118,0.009,-0.013,0.015,0.000,0.000
45.440,2,0,3.419,-4.643,2500.556,-0.378,-0.817,564.205,-2.254,1.873,-49.186,0.000,0.000,0.0111622,0.000,9144.000,1.726,2.170,2486.140,563.714,671.030,-6.730,3341.733,2492.197,-49.272,0.021,0.331,-0.030,-0.008,0.015,0.000,0.000,0.000,-0.017,0.693,0.010,0.721,0.0000000,0.0000000,2495.148,0.000,0.000,0.000,0,00:00:00,-1020,0.000,2495.148,67102.008,-6.731,562.271,0.000,0.325,-49.244,-0.110,0.014,-0.005,0.012,0.000,0.000
45.541,2,0,3.046,-4.262,2548.168,-0.771,-0.386,552.422,-2.290,2.025,-49.178,0.000,0.000,0.0111850,0.000,9144.000,1.711,2.214,2542.020,558.796,671.030,-6.730,3341.733,2492.197,-49.272,0.021,0.331,-0.030,-0.008,0.015,0.000,0.000,0.000,-0.018,0.693,0.011,0.721,0.0000000,0.0000000,2495.148,0.000,0.000,0.000,0,00:00:00,-1020,0.000,2495.148,67102.008,-6.731,562.271,0.000,0.325,-49.244,-0.110,0.014,-0.005,0.012,0.000,0.000
45.642,2,0,2.672,-3.879,2603.624,-1.143,0.027,547.555,-2.282,2.053,-47.466,0.000,0.000,0.0113120,0.000,9144.000,1.699,2.258,2597.425,554.050,661.544,-7.451,3452.567,2603.031,-47.564,0.072,0.254,-0.010,-0.029,-0.001,0.000,0.000,0.000,-0.018,0.692,0.012,0.722,0.0000000,0.0000000,2605.597,0.000,0.000,0.000,0,00:00:00,-1020,0.000,2605.597,66157.891,-7.448,552.682,0.000,0.338,-47.628,-0.049,0.012,-0.015,0.005,0.000,0.000
45.743,2,0,2.301,-3.495,2658.468,-1.487,0.397,542.672,-2.188,1.817,-46.720,0.000,0.000,0.0113648,0.000,9144.000,1.685,2.422,2652.363,549.378,656.955,-7.803,3506.651,2657.115,-46.806,-0.121,0.204,0.003,0.002,0.013,0.000,0.000,0.000,-0.017,0.692,0.012,0.722,0.0000000,0.0000000,2660.123,0.000,0.000,0.000,0,00:00:00,-1020,0.000,2660.123,65693.055,-7.805,548.015,0.000,0.336,-46.686,0.019,-0.011,-0.001,-0.010,0.000,0.000
45.844,2,0,1.934,-3.116,2712.734,-1.807,0.731,537.818,-2.155,1.674,-45.764,0.000,0.000,0.0114144,0.000,9144.000,1.673,2.413,2706.843,544.802,652.422,-8.152,3560.367,2710.831,-45.844,-0.147,0.310,0.016,0.022,-0.009,0.000,0.000,0.000,-0.017,0.693,0.011,0.721,0.0000000,0.0000000,2714.195,0.000,0.000,0.000,0,00:00:00,-1020,0.000,2714.195,65240.312,-8.153,543.429,0.000,0.380,-45.866,0.017,0.018,-0.012,-0.010,0.000,0.000
45.945,2,0,1.574,-2.742,2758.974,-2.098,1.038,527.333,-2.058,1.599,-45.771,0.000,0.000,0.0114476,0.000,9144.000,1.658,2.290,2760.865,540.224,652.422,-8.152,3560.367,2710.831,-45.844,-0.147,0.310,0.016,0.022,-0.009,0.000,0.000,0.000,-0.017,0.693,0.010,0.720,0.0000000,0.0000000,2714.195,0.000,0.000,0.000,0,00:00:00,-1020,0.000,2714.195,65240.312,-8.153,543.429,0.000,0.380,-45.866,0.017,0.018,-0.012,-0.010,0.000,0.000
46.046,2,0,1.221,-2.377,2812.770,-2.384,1.314,523.431,-2.185,1.477,-44.259,0.000,0.000,0.0115783,0.000,9144.000,1.647,2.166,2814.445,535.799,643.501,-8.845,3666.977,2817.441,-44.335,0.005,0.412,0.048,-0.018,-0.012,0.000,0.000,0.000,-0.016,0.693,0.008,0.721,0.0000000,0.0000000,2821.007,0.000,0.000,0.000,0,00:00:00,-1020,0.000,2821.007,64347.277,-8.847,534.491,0.000,0.333,-44.288,-0.003,-0.013,0.008,-0.004,0.000,0.000
46.147,2,0,0.876,-2.022,2866.115,-2.663,1.574,519.550,-2.306,1.518,-43.614,0.000,0.000,0.0116296,0.000,9144.000,1.635,2.272,2867.589,531.437,639.105,-9.190,3719.954,2870.417,-43.699,0.060,0.482,-0.001,-0.018,0.007,0.000,0.000,0.000,-0.015,0.692,0.008,0.722,0.0000000,0.0000000,2873.761,0.000,0.000,0.000,0,00:00:00,-1020,0.000,2873.761,63916.301,-9.185,530.135,0.000,0.454,-43.447,0.085,-0.013,-0.017,-0.011,0.000,0.000
46.248,2,0,0.539,-1.678,2918.971,-2.905,1.801,515.663,-2.113,1.364,-42.927,0.000,0.000,0.0116749,0.000,9144.000,1.623,2.373,2920.303,527.144,634.794,-9.529,3772.190,2922.654,-42.999,0.030,0.366,0.022,0.012,-0.028,0.000,0.000,0.000,-0.016,0.693,0.007,0.721,0.0000000,0.0000000,2926.091,0.000,0.000,0.000,0,00:00:00,-1020,0.000,2926.091,63472.148,-9.535,525.851,0.000,0.385,-42.890,0.090,-0.020,0.007,-0.003,0.000,0.000
46.349,2,0,0.212,-1.346,2971.350,-3.127,2.012,511.799,-2.086,1.373,-42.037,0.000,0.000,0.0117099,0.000,9144.000,1.611,2.307,2972.597,522.941,630.540,-9.866,3824.024,2974.487,-42.109,0.039,0.389,-0.007,0.004,-0.008,0.000,0.000,0.000,-0.016,0.693,0.007,0.721,0.0000000,0.0000000,2978.003,0.000,0.000,0.000,0,00:00:00,-1020,0.000,2978.003,63048.703,-9.871,521.637,0.000,0.317,-42.179,0.025,-0.008,-0.014,-0.003,0.000,0.000
46.450,2,0,-0.103,-1.027,3023.268,-3.317,2.193,507.939,-1.929,1.257,-41.464,0.000,0.000,0.0117221,0.000,9144.000,1.599,2.285,3024.477,518.794,626.339,-10.201,3875.492,3025.956,-41.526,-0.070,0.318,-0.002,0.014,0.013,0.000,0.000,0.000,-0.016,0.693,0.007,0.721,0.0000000,0.0000000,3029.505,0.000,0.000,0.000,0,00:00:00,-1020,0.000,3029.505,62633.883,-10.201,517.491,0.000,0.409,-41.492,0.052,-0.003,0.019,-0.017,0.000,0.000
46.551,2,0,-0.404,-0.722,3074.772,-3.478,2.356,504.120,-1.809,1.232,-40.841,0.000,0.000,0.0117369,0.000,9144.000,1.587,2.202,3075.948,514.710,622.171,-10.535,3926.824,3077.288,-40.898,-0.132,0.290,-0.014,0.017,-0.006,0.000,0.000,0.000,-0.016,0.694,0.007,0.720,0.0000000,0.0000000,3080.601,0.000,0.000,0.000,0,00:00:00,-1020,0.000,3080.601,62210.816,-10.540,513.412,0.000,0.407,-40.732,-0.034,0.011,-0.006,-0.018,0.000,0.000
46.652,2,0,-0.691,-0.432,3118.726,-3.617,2.509,494.949,-1.742,1.289,-40.842,0.000,0.000,0.0117497,0.000,9144.000,1.575,2.106,3127.010,510.626,622.171,-10.535,3926.824,3077.288,-40.898,-0.132,0.290,-0.014,0.017,-0.006,0.000,0.000,0.000,-0.017,0.694,0.008,0.719,0.0000000,0.0000000,3080.601,0.000,0.000,0.000,0,00:00:00,-1020,0.000,3080.601,62210.816,-10.540,513.412,0.000,0.407,-40.732,-0.034,0.011,-0.006,-0.018,0.000,0.000
46.753,2,0,-0.963,-0.156,3169.866,-3.749,2.639,491.979,-1.814,1.211,-39.404,0.000,0.000,0.0118592,0.000,9144.000,1.565,2.010,3177.679,506.686,614.047,-11.191,4027.691,3178.155,-39.461,-0.005,0.495,0.040,0.020,0.027,0.000,0.000,0.000,-0.015,0.695,0.007,0.719,0.0000000,0.0000000,3181.605,0.000,0.000,0.000,0,00:00:00,-1020,0.000,3181.605,61407.156,-11.189,505.443,0.000,0.362,-39.488,-0.065,0.002,0.018,-0.001,0.000,0.000
46.854,2,0,-1.222,0.105,3220.548,-3.874,2.746,488.939,-1.874,1.114,-38.905,0.000,0.000,0.0118744,0.000,9144.000,1.554,1.898,3227.959,502.795,610.076,-11.514,4077.391,3227.855,-38.963,-0.067,0.481,0.005,-0.023,0.006,0.000,0.000,0.000,-0.014,0.694,0.007,0.720,0.0000000,0.0000000,3231.526,0.000,0.000,0.000,0,00:00:00,-1020,0.000,3231.526,61008.762,-11.513,501.551,0.000,0.395,-38.915,0.003,-0.014,0.024,0.008,0.000,0.000
46.955,2,0,-1.467,0.352,3270.738,-3.985,2.852,485.828,-1.874,1.234,-38.215,0.000,0.000,0.0118884,0.000,9144.000,1.543,2.033,3277.856,498.974,606.178,-11.833,4126.422,3276.885,-38.278,-0.012,0.526,-0.022,0.005,0.007,0.000,0.000,0.000,-0.015,0.694,0.008,0.719,0.0000000,0.0000000,3281.065,0.000,0.000,0.000,0,00:00:00,-1020,0.000,3281.065,60614.047,-11.836,497.718,0.000,0.311,-38.240,0.046,0.007,-0.014,0.005,0.000,0.000
47.056,2,0,-1.698,0.584,3320.534,-4.077,2.943,482.719,-1.805,1.209,-37.580,0.000,0.000,0.0118859,0.000,9144.000,1.532,2.000,3327.377,495.216,602.281,-12.153,4175.712,3326.176,-37.640,-0.052,0.418,-0.009,-0.017,0.007,0.000,0.000,0.000,-0.015,0.694,0.009,0.720,0.0000000,0.0000000,3330.231,0.000,0.000,0.000,0,00:00:00,-1020,0.000,3330.231,60223.512,-12.157,493.942,0.000,0.316,-37.686,0.053,-0.019,-0.010,0.004,0.000,0.000
47.157,2,0,-1.915,0.803,3369.903,-4.161,3.048,479.574,-1.834,1.458,-37.077,0.000,0.000,0.0118728,0.000,9144.000,1.521,2.095,3376.528,491.508,598.453,-12.470,4224.364,3374.828,-37.149,0.189,0.331,-0.006,-0.036,0.016,0.000,0.000,0.000,-0.015,0.693,0.010,0.721,0.0000000,0.0000000,3379.027,0.000,0.000,0.000,0,00:00:00,-1020,0.000,3379.027,59847.340,-12.468,490.222,0.000,0.334,-37.149,0.004,0.003,-0.008,-0.009,0.000,0.000
47.258,2,0,-2.119,1.010,3418.911,-4.226,3.122,476.449,-1.759,1.260,-36.550,0.000,0.000,0.0118635,0.000,9144.000,1.511,2.302,3425.314,487.853,594.640,-12.787,4273.094,3423.558,-36.613,0.017,0.274,0.003,-0.002,0.011,0.000,0.000,0.000,-0.014,0.693,0.010,0.721,0.0000000,0.0000000,3427.459,0.000,0.000,0.000,0,00:00:00,-1020,0.000,3427.459,59464.605,-12.786,486.557,0.000,0.273,-36.707,0.047,0.004,-0.000,0.001,0.000,0.000
47.359,2,0,-2.310,1.203,3467.461,-4.282,3.173,473.263,-1.774,1.138,-36.078,0.000,0.000,0.0118519,0.000,9144.000,1.501,2.312,3473.738,484.245,590.928,-13.097,4320.761,3471.225,-36.139,-0.022,0.267,0.019,-0.012,0.007,0.000,0.000,0.000,-0.013,0.692,0.010,0.722,0.0000000,0.0000000,3475.533,0.000,0.000,0.000,0,00:00:00,-1020,0.000,3475.533,59092.828,-13.097,482.945,0.000,0.399,-36.194,-0.004,0.001,-0.019,-0.014,0.000,0.000
47.460,2,0,-2.488,1.382,3515.619,-4.350,3.205,470.071,-1.978,1.044,-35.597,0.000,0.000,0.0118441,0.000,9144.000,1.491,2.380,3521.807,480.685,587.233,-13.407,4368.464,3518.928,-35.664,-0.081,0.467,0.006,-0.007,0.006,0.000,0.000,0.000,-0.013,0.692,0.010,0.722,0.0000000,0.0000000,3523.253,0.000,0.000,0.000,0,00:00:00,-1020,0.000,3523.253,58724.078,-13.406,479.384,0.000,0.379,-35.537,-0.017,0.003,0.007,0.024,0.000,0.000
47.561,2,0,-2.654,1.547,3563.368,-4.385,3.242,466.872,-1.747,1.182,-35.009,0.000,0.000,0.0118393,0.000,9144.000,1.481,2.422,3569.525,477.184,583.594,-13.714,4415.671,3566.135,-35.072,-0.012,0.234,-0.023,-0.009,0.031,0.000,0.000,0.000,-0.013,0.692,0.011,0.722,0.0000000,0.0000000,3570.625,0.000,0.000,0.000,0,00:00:00,-1020,0.000,3570.625,58361.004,-13.712,475.873,0.000,0.329,-35.033,-0.014,0.011,0.008,-0.029,0.000,0.000
47.662,2,0,-2.809,1.701,3610.793,-4.439,3.278,463.725,-2.005,1.257,-34.459,0.000,0.000,0.0118244,0.000,9144.000,1.471,2.470,3616.899,473.739,579.960,-14.022,4463.068,3613.532,-34.536,0.005,0.551,-0.024,0.011,-0.027,0.000,0.000,0.000,-0.014,0.692,0.011,0.722,0.0000000,0.0000000,3617.654,0.000,0.000,0.000,0,00:00:00,-1020,0.000,3617.654,57992.176,-14.025,472.412,0.000,0.327,-34.681,0.049,0.005,-0.001,-0.012,0.000,0.000
47.763,2,0,-2.952,1.841,3657.757,-4.442,3.279,460.521,-1.585,0.974,-33.948,0.000,0.000,0.0118066,0.000,9144.000,1.461,2.405,3663.933,470.344,576.444,-14.322,4509.139,3659.603,-33.998,-0.161,0.247,0.028,0.028,-0.027,0.000,0.000,0.000,-0.014,0.693,0.009,0.721,0.0000000,0.0000000,3664.343,0.000,0.000,0.000,0,00:00:00,-1020,0.000,3664.343,57647.836,-14.319,468.998,0.000,0.243,-34.105,0.042,0.009,-0.017,0.008,0.000,0.000
47.864,2,0,-3.081,1.968,3704.452,-4.451,3.280,457.395,-1.712,1.046,-33.570,0.000,0.000,0.0117834,0.000,9144.000,1.452,2.243,3710.632,466.987,572.874,-14.627,4556.162,3706.626,-33.628,-0.060,0.373,0.004,-0.005,0.004,0.000,0.000,0.000,-0.014,0.693,0.009,0.721,0.0000000,0.0000000,3710.698,0.000,0.000,0.000,0,00:00:00,-1020,0.000,3710.698,57287.176,-14.628,465.631,0.000,0.302,-33.706,-0.019,0.008,-0.017,0.003,0.000,0.000
47.965,2,0,-3.200,2.084,3744.332,-4.455,3.274,449.413,-1.727,1.032,-33.570,0.000,0.000,0.0117726,0.000,9144.000,1.441,2.269,3756.995,463.630,572.874,-14.627,4556.162,3706.626,-33.628,-0.060,0.373,0.004,-0.005,0.004,0.000,0.000,0.000,-0.014,0.693,0.009,0.721,0.0000000,0.0000000,3710.698,0.000,0.000,0.000,0,00:00:00,-1020,0.000,3710.698,57287.176,-14.628,465.631,0.000,0.302,-33.706,-0.019,0.008,-0.017,0.003,0.000,0.000
48.066,2,0,-3.307,2.186,3790.635,-4.454,3.234,446.909,-1.729,0.753,-32.770,0.000,0.000,0.0118582,0.000,9144.000,1.433,2.296,3803.030,460.353,566.043,-15.217,4646.789,3797.253,-32.821,-0.267,0.374,0.012,-0.010,-0.033,0.000,0.000,0.000,-0.014,0.692,0.008,0.721,0.0000000,0.0000000,3802.423,0.000,0.000,0.000,0,00:00:00,-1020,0.000,3802.423,56596.676,-15.223,459.031,0.000,0.501,-32.787,-0.010,0.006,0.005,-0.013,0.000,0.000
48.167,2,0,-3.404,2.276,3836.585,-4.440,3.214,444.385,-1.648,0.998,-32.216,0.000,0.000,0.0118821,0.000,9144.000,1.423,2.354,3848.743,457.131,562.652,-15.511,4692.115,3842.579,-32.272,-0.026,0.321,-0.008,0.003,-0.030,0.000,0.000,0.000,-0.016,0.692,0.007,0.721,0.0000000,0.0000000,3847.801,0.000,0.000,0.000,0,00:00:00,-1020,0.000,3847.801,56270.438,-15.507,455.796,0.000,0.266,-32.432,0.045,-0.009,0.016,0.004,0.000,0.000
48.268,2,0,-3.489,2.355,3882.247,-4.406,3.191,441.875,-1.495,1.018,-31.811,0.000,0.000,0.0118823,0.000,9144.000,1.414,2.334,3894.138,453.950,559.268,-15.807,4737.559,3888.023,-31.861,0.021,0.284,0.005,0.031,0.017,0.000,0.000,0.000,-0.015,0.693,0.007,0.720,0.0000000,0.0000000,3892.863,0.000,0.000,0.000,0,00:00:00,-1020,0.000,3892.863,55928.637,-15.805,452.604,0.000,0.383,-31.885,-0.103,0.000,0.011,0.007,0.000,0.000
48.369,2,0,-3.563,2.426,3927.511,-4.360,3.181,439.291,-1.417,1.169,-31.468,0.000,0.000,0.0118767,0.000,9144.000,1.405,2.159,3939.219,450.803,555.981,-16.095,4781.925,3932.389,-31.521,0.014,0.155,-0.053,-0.021,0.014,0.000,0.000,0.000,-0.016,0.693,0.010,0.721,0.0000000,0.0000000,3937.611,0.000,0.000,0.000,0,00:00:00,-1020,0.000,3937.611,55595.062,-16.098,449.452,0.000,0.279,-31.487,0.034,-0.014,-0.014,-0.007,0.000,0.000
48.470,2,0,-3.626,2.489,3972.440,-4.338,3.178,436.704,-1.694,1.284,-30.931,0.000,0.000,0.0118745,0.000,9144.000,1.396,2.274,3983.990,447.710,552.702,-16.385,4826.382,3976.846,-31.001,0.016,0.451,-0.043,-0.001,0.012,0.000,0.000,0.000,-0.018,0.693,0.012,0.721,0.0000000,0.0000000,3982.050,0.000,0.000,0.000,0,00:00:00,-1020,0.000,3982.050,55272.328,-16.383,446.341,0.000,0.365,-31.033,-0.017,0.000,0.009,-0.008,0.000,0.000
48.571,2,0,-3.681,2.545,4017.024,-4.299,3.144,434.073,-1.552,0.999,-30.738,0.000,0.000,0.0118560,0.000,9144.000,1.388,2.279,4028.453,444.636,549.468,-16.671,4870.452,4020.916,-30.790,-0.275,0.321,-0.005,0.001,-0.015,0.000,0.000,0.000,-0.018,0.693,0.011,0.721,0.0000000,0.0000000,4026.184,0.000,0.000,0.000,0,00:00:00,-1020,0.000,4026.184,54946.906,-16.671,443.268,0.000,0.377,-30.784,-0.002,-0.009,0.000,0.002,0.000,0.000
48.672,2,0,-3.727,2.594,4061.287,-4.243,3.151,431.457,-1.403,1.436,-30.150,0.000,0.000,0.0118564,0.000,9144.000,1.379,2.273,4072.616,441.621,546.261,-16.957,4914.349,4064.813,-30.215,0.203,0.275,0.006,0.028,0.007,0.000,0.000,0.000,-0.018,0.694,0.011,0.720,0.0000000,0.0000000,4070.016,0.000,0.000,0.000,0,00:00:00,-1020,0.000,4070.016,54627.879,-16.955,440.234,0.000,0.334,-30.358,0.002,-0.005,0.000,0.002,0.000,0.000
48.773,2,0,-3.763,2.639,4105.191,-4.200,3.149,428.797,-1.554,1.371,-29.888,0.000,0.000,0.0118314,0.000,9144.000,1.370,2.115,4116.479,438.633,543.111,-17.238,4957.672,4108.135,-29.956,0.153,0.466,0.000,0.010,-0.010,0.000,0.000,0.000,-0.018,0.694,0.011,0.720,0.0000000,0.0000000,4113.550,0.000,0.000,0.000,0,00:00:00,-1020,0.000,4113.550,54306.055,-17.243,437.237,0.000,0.367,-30.003,0.019,0.004,-0.005,-0.001,0.000,0.000
48.874,2,0,-3.792,2.678,4148.733,-4.144,3.113,426.109,-1.441,1.043,-29.449,0.000,0.000,0.0118220,0.000,9144.000,1.362,2.056,4160.048,435.688,540.004,-17.518,5000.618,4151.082,-29.501,-0.119,0.281,0.012,-0.030,-0.033,0.000,0.000,0.000,-0.019,0.693,0.009,0.721,0.0000000,0.0000000,4156.791,0.000,0.000,0.000,0,00:00:00,-1020,0.000,4156.791,53999.414,-17.518,434.276,0.000,0.305,-29.597,-0.014,-0.009,-0.012,-0.004,0.000,0.000
48.975,2,0,-3.813,2.710,4191.960,-4.088,3.085,423.399,-1.449,1.150,-29.351,0.000,0.000,0.0117999,0.000,9144.000,1.353,2.226,4203.323,432.753,536.909,-17.797,5043.582,4194.046,-29.408,0.072,0.349,0.027,0.020,0.005,0.000,0.000,0.000,-0.018,0.694,0.009,0.720,0.0000000,0.0000000,4199.740,0.000,0.000,0.000,0,00:00:00,-1020,0.000,4199.740,53687.574,-17.800,431.351,0.000,0.344,-29.269,0.071,-0.023,-0.001,-0.006,0.000,0.000
49.076,2,0,-3.826,2.736,4234.847,-4.027,3.053,420.694,-1.407,1.123,-28.777,0.000,0.000,0.0118123,0.000,9144.000,1.345,2.113,4246.310,429.875,533.865,-18.073,5086.044,4236.508,-28.831,0.046,0.284,-0.007,-0.016,-0.003,0.000,0.000,0.000,-0.018,0.693,0.009,0.721,0.0000000,0.0000000,4242.402,0.000,0.000,0.000,0,00:00:00,-1020,0.000,4242.402,53387.680,-18.072,428.460,0.000,0.347,-28.888,0.043,0.005,0.017,0.002,0.000,0.000
49.177,2,0,-3.833,2.757,4277.416,-3.972,3.004,417.978,-1.475,0.967,-28.560,0.000,0.000,0.0117929,0.000,9144.000,1.337,2.203,4289.012,427.019,530.846,-18.348,5128.332,4278.796,-28.610,-0.016,0.474,0.029,0.040,-0.002,0.000,0.000,0.000,-0.017,0.695,0.008,0.719,0.0000000,0.0000000,4284.781,0.000,0.000,0.000,0,00:00:00,-1020,0.000,4284.781,53079.777,-18.353,425.603,0.000,0.344,-28.533,0.033,-0.003,-0.001,-0.010,0.000,0.000
49.278,2,0,-3.834,2.772,4319.682,-3.906,2.980,415.277,-1.361,1.222,-28.174,0.000,0.000,0.0117912,0.000,9144.000,1.329,1.979,4331.432,424.202,527.858,-18.622,5170.403,4320.866,-28.229,0.266,0.370,0.004,0.001,-0.018,0.000,0.000,0.000,-0.018,0.695,0.007,0.719,0.0000000,0.0000000,4326.878,0.000,0.000,0.000,0,00:00:00,-1020,0.000,4326.878,52784.980,-18.622,422.780,0.000,0.316,-28.350,0.091,-0.007,0.012,-0.011,0.000,0.000
49.379,2,0,-3.828,2.782,4361.656,-3.837,2.923,412.590,-1.325,0.900,-27.881,0.000,0.000,0.0117832,0.000,9144.000,1.321,1.974,4373.574,421.414,524.898,-18.894,5212.257,4362.721,-27.925,-0.017,0.377,0.011,0.010,0.006,0.000,0.000,0.000,-0.017,0.695,0.007,0.719,0.0000000,0.0000000,4368.699,0.000,0.000,0.000,0,00:00:00,-1020,0.000,4368.699,52493.465,-18.890,419.989,0.000,0.325,-27.862,0.104,0.018,-0.010,0.010,0.000,0.000
49.480,2,0,-3.817,2.786,4403.330,-3.771,2.884,409.911,-1.354,1.072,-27.590,0.000,0.000,0.0117776,0.000,9144.000,1.313,1.917,4415.439,418.654,521.977,-19.164,5253.747,4404.211,-27.641,0.147,0.382,-0.007,-0.012,0.000,0.000,0.000,0.000,-0.017,0.695,0.007,0.719,0.0000000,0.0000000,4410.244,0.000,0.000,0.000,0,00:00:00,-1020,0.000,4410.244,52208.160,-19.154,417.229,0.000,0.408,-27.664,-0.026,-0.014,-0.017,-0.000,0.000,0.000
49.581,2,0,-3.801,2.785,4444.689,-3.698,2.803,407.231,-1.279,0.670,-27.248,0.000,0.000,0.0117780,0.000,9144.000,1.305,1.984,4457.032,415.930,519.099,-19.431,5294.817,4445.280,-27.284,-0.161,0.315,0.029,-0.003,-0.017,0.000,0.000,0.000,-0.017,0.694,0.005,0.719,0.0000000,0.0000000,4451.519,0.000,0.000,0.000,0,00:00:00,-1020,0.000,4451.519,51909.672,-19.431,414.501,0.000,0.298,-27.177,0.005,0.007,0.012,0.017,0.000,0.000
49.682,2,0,-3.780,2.777,4485.775,-3.643,2.742,404.583,-1.442,0.848,-26.906,0.000,0.000,0.0117707,0.000,9144.000,1.297,2.003,4498.356,413.239,516.233,-19.698,5335.883,4486.347,-26.953,0.078,0.514,0.018,0.010,0.001,0.000,0.000,0.000,-0.016,0.695,0.005,0.719,0.0000000,0.0000000,4492.525,0.000,0.000,0.000,0,00:00:00,-1020,0.000,4492.525,51622.754,-19.698,411.803,0.000,0.380,-26.961,0.007,-0.014,-0.004,-0.006,0.000,0.000
49.783,2,0,-3.755,2.765,4526.578,-3.562,2.678,401.946,-1.175,0.825,-26.670,0.000,0.000,0.0117625,0.000,9144.000,1.290,1.946,4539.413,410.572,513.407,-19.962,5376.580,4527.044,-26.706,0.088,0.293,0.012,0.014,0.026,0.000,0.000,0.000,-0.015,0.695,0.005,0.719,0.0000000,0.0000000,4533.266,0.000,0.000,0.000,0,00:00:00,-1020,0.000,4533.266,51342.133,-19.961,409.134,0.000,0.414,-26.729,-0.073,-0.015,-0.008,0.000,0.000,0.000
49.884,2,0,-3.724,2.748,4567.119,-3.469,2.617,399.353,-1.042,0.841,-26.250,0.000,0.000,0.0117615,0.000,9144.000,1.282,1.868,4580.208,407.947,510.602,-20.226,5417.135,4567.598,-26.283,0.148,0.214,0.013,0.015,0.018,0.000,0.000,0.000,-0.014,0.696,0.005,0.718,0.0000000,0.0000000,4573.744,0.000,0.000,0.000,0,00:00:00,-1020,0.000,4573.744,51062.277,-20.224,406.494,0.000,0.280,-26.386,-0.061,-0.023,0.007,-0.006,0.000,0.000
49.985,2,0,-3.688,2.725,4607.358,-3.383,2.532,396.744,-1.081,0.590,-26.115,0.000,0.000,0.0117415,0.000,9144.000,1.274,1.782,4620.742,405.336,507.849,-20.486,5457.129,4607.593,-26.143,-0.163,0.180,-0.023,-0.031,0.011,0.000,0.000,0.000,-0.014,0.695,0.006,0.719,0.0000000,0.0000000,4613.962,0.000,0.000,0.000,0,00:00:00,-1020,0.000,4613.962,50788.234,-20.483,403.883,0.000,0.318,-26.063,0.030,-0.009,-0.003,0.007,0.000,0.000
50.086,2,0,-3.648,2.699,4647.268,-3.317,2.488,394.107,-1.269,0.982,-25.895,0.000,0.000,0.0117459,0.000,9144.000,1.267,1.960,4661.016,402.746,505.142,-20.743,5496.622,4647.086,-25.941,0.181,0.386,-0.023,0.006,-0.021,0.000,0.000,0.000,-0.016,0.695,0.007,0.719,0.0000000,0.0000000,4653.924,0.000,0.000,0.000,0,00:00:00,-1020,0.000,4653.924,50511.734,-20.745,401.299,0.000,0.401,-25.733,0.032,0.003,-0.005,0.002,0.000,0.000
50.187,2,0,-3.607,2.670,4686.959,-3.260,2.407,391.545,-1.329,0.608,-25.480,0.000,0.000,0.0117638,0.000,9144.000,1.260,1.923,4701.036,400.198,502.414,-21.003,5536.593,4687.057,-25.517,-0.235,0.416,-0.021,-0.020,0.011,0.000,0.000,0.000,-0.016,0.694,0.008,0.720,0.0000000,0.0000000,4693.631,0.000,0.000,0.000,0,00:00:00,-1020,0.000,4693.631,50244.223,-21.000,398.742,0.000,0.454,-25.480,0.034,-0.009,0.012,-0.007,0.000,0.000
50.288,2,0,-3.564,2.636,4720.865,-3.210,2.334,384.855,-1.379,0.664,-25.476,0.000,0.000,0.0117559,0.000,9144.000,1.252,2.035,4740.801,397.651,502.414,-21.003,5536.593,4687.057,-25.517,-0.235,0.416,-0.021,-0.020,0.011,0.000,0.000,0.000,-0.016,0.694,0.009,0.720,0.0000000,0.0000000,4693.631,0.000,0.000,0.000,0,00:00:00,-1020,0.000,4693.631,50244.223,-21.000,398.742,0.000,0.454,-25.480,0.034,-0.009,0.012,-0.007,0.000,0.000
50.389,2,0,-3.521,2.600,4760.399,-3.146,2.278,382.944,-1.221,0.814,-24.764,0.000,0.000,0.0118410,0.000,9144.000,1.245,2.148,4780.318,395.174,497.112,-21.511,5614.782,4765.246,-24.805,-0.031,0.300,0.011,0.008,-0.027,0.000,0.000,0.000,-0.017,0.694,0.007,0.720,0.0000000,0.0000000,4772.293,0.000,0.000,0.000,0,00:00:00,-1020,0.000,4772.293,49712.480,-21.510,393.708,0.000,0.324,-25.090,0.012,-0.016,0.021,0.014,0.000,0.000
50.490,2,0,-3.476,2.561,4799.682,-3.089,2.214,381.001,-1.261,0.710,-24.656,0.000,0.000,0.0118318,0.000,9144.000,1.238,2.103,4819.589,392.709,494.489,-21.764,5653.706,4804.170,-24.696,-0.166,0.305,-0.015,-0.017,-0.002,0.000,0.000,0.000,-0.018,0.693,0.008,0.720,0.0000000,0.0000000,4811.253,0.000,0.000,0.000,0,00:00:00,-1020,0.000,4811.253,49445.129,-21.768,391.229,0.000,0.393,-24.823,-0.053,0.003,-0.007,-0.025,0.000,0.000
50.591,2,0,-3.429,2.521,4838.705,-3.030,2.154,379.029,-1.222,0.733,-24.450,0.000,0.000,0.0118413,0.000,9144.000,1.231,2.197,4858.616,390.264,491.898,-22.016,5692.330,4842.794,-24.489,-0.149,0.270,-0.005,-0.001,-0.002,0.000,0.000,0.000,-0.018,0.693,0.008,0.721,0.0000000,0.0000000,4849.968,0.000,0.000,0.000,0,00:00:00,-1020,0.000,4849.968,49185.492,-22.020,388.775,0.000,0.311,-24.497,-0.004,0.001,0.006,0.017,0.000,0.000
50.692,2,0,-3.382,2.480,4877.488,-2.959,2.119,377.031,-1.077,0.958,-24.419,0.000,0.000,0.0118501,0.000,9144.000,1.224,2.205,4897.398,387.822,489.324,-22.266,5730.866,4881.330,-24.461,0.034,0.189,-0.016,0.026,0.024,0.000,0.000,0.000,-0.018,0.694,0.009,0.720,0.0000000,0.0000000,4888.442,0.000,0.000,0.000,0,00:00:00,-1020,0.000,4888.442,48935.121,-22.264,386.346,0.000,0.421,-24.359,-0.075,-0.014,0.008,0.011,0.000,0.000
50.793,2,0,-3.333,2.439,4916.075,-2.907,2.080,375.073,-1.231,0.896,-24.034,0.000,0.000,0.0118878,0.000,9144.000,1.217,2.055,4935.940,385.418,486.756,-22.517,5769.473,4919.937,-24.080,-0.042,0.342,-0.013,-0.006,-0.009,0.000,0.000,0.000,-0.018,0.694,0.009,0.720,0.0000000,0.0000000,4926.677,0.000,0.000,0.000,0,00:00:00,-1020,0.000,4926.677,48679.238,-22.514,383.940,0.000,0.289,-23.984,0.087,-0.011,0.005,0.008,0.000,0.000
50.894,2,0,-3.282,2.399,4954.336,-2.830,2.044,373.035,-0.968,0.901,-23.877,0.000,0.000,0.0118909,0.000,9144.000,1.210,2.091,4974.243,383.031,484.274,-22.761,5806.939,4957.403,-23.914,0.065,0.097,0.041,0.006,-0.014,0.000,0.000,0.000,-0.017,0.694,0.008,0.720,0.0000000,0.0000000,4964.674,0.000,0.000,0.000,0,00:00:00,-1020,0.000,4964.674,48426.277,-22.762,381.558,0.000,0.342,-23.734,0.055,-0.007,-0.001,-0.009,0.000,0.000
50.995,2,0,-3.231,2.358,4992.341,-2.785,1.987,370.994,-1.258,0.677,-23.532,0.000,0.000,0.0118998,0.000,9144.000,1.203,2.058,5012.310,380.677,481.788,-23.006,5844.631,4995.095,-23.573,-0.108,0.339,0.013,-0.025,-0.038,0.000,0.000,0.000,-0.018,0.693,0.006,0.721,0.0000000,0.0000000,5002.437,0.000,0.000,0.000,0,00:00:00,-1020,0.000,5002.437,48177.480,-23.007,379.199,0.000,0.235,-23.586,-0.046,0.002,-0.007,0.001,0.000,0.000
51.096,2,0,-3.182,2.317,5030.036,-2.756,1.946,368.889,-1.385,0.810,-23.377,0.000,0.000,0.0118860,0.000,9144.000,1.196,2.205,5050.144,378.340,479.354,-23.247,5881.679,5032.142,-23.427,0.038,0.454,0.001,-0.006,-0.028,0.000,0.000,0.000,-0.019,0.693,0.005,0.721,0.0000000,0.0000000,5039.967,0.000,0.000,0.000,0,00:00:00,-1020,0.000,5039.967,47932.918,-23.249,376.862,0.000,0.303,-23.312,-0.007,-0.001,-0.009,-0.008,0.000,0.000
51.197,2,0,-3.132,2.276,5067.539,-2.695,1.920,366.810,-1.041,0.938,-23.285,0.000,0.000,0.0118884,0.000,9144.000,1.189,2.236,5087.745,376.011,476.892,-23.492,5919.314,5069.777,-23.326,0.161,0.144,-0.001,0.014,-0.006,0.000,0.000,0.000,-0.019,0.693,0.005,0.720,0.0000000,0.0000000,5077.266,0.000,0.000,0.000,0,00:00:00,-1020,0.000,5077.266,47690.828,-23.490,374.547,0.000,0.381,-23.196,-0.032,0.011,0.014,-0.001,0.000,0.000
51.298,2,0,-3.082,2.237,5099.607,-2.633,1.896,360.826,-1.009,0.939,-23.287,0.000,0.000,0.0119070,0.000,9144.000,1.182,2.156,5125.114,373.682,476.892,-23.492,5919.314,5069.777,-23.326,0.161,0.144,-0.001,0.014,-0.006,0.000,0.000,0.000,-0.020,0.694,0.004,0.720,0.0000000,0.0000000,5077.266,0.000,0.000,0.000,0,00:00:00,-1020,0.000,5077.266,47690.828,-23.490,374.547,0.000,0.381,-23.196,-0.032,0.011,0.014,-0.001,0.000,0.000
51.399,2,0,-3.032,2.199,5136.963,-2.599,1.866,359.294,-1.259,0.867,-22.771,0.000,0.000,0.0120106,0.000,9144.000,1.176,2.076,5162.254,371.405,472.113,-23.970,5992.810,5143.274,-22.818,0.064,0.427,-0.021,0.005,0.015,0.000,0.000,0.000,-0.020,0.694,0.006,0.720,0.0000000,0.0000000,5151.182,0.000,0.000,0.000,0,00:00:00,-1020,0.000,5151.182,47209.375,-23.972,369.981,0.000,0.305,-22.685,-0.066,-0.011,-0.011,-0.003,0.000,0.000
51.500,2,0,-2.984,2.162,5174.129,-2.558,1.827,357.760,-1.155,0.752,-22.536,0.000,0.000,0.0120325,0.000,9144.000,1.169,2.045,5199.169,369.152,469.725,-24.210,6029.756,5180.220,-22.575,0.047,0.314,0.038,-0.007,-0.054,0.000,0.000,0.000,-0.020,0.694,0.002,0.720,0.0000000,0.0000000,5187.803,0.000,0.000,0.000,0,00:00:00,-1020,0.000,5187.803,46969.398,-24.213,367.729,0.000,0.287,-22.451,0.021,0.001,-0.001,0.002,0.000,0.000
51.601,2,0,-2.935,2.124,5210.966,-2.506,1.780,356.117,-1.037,0.646,-22.314,0.000,0.000,0.0120337,0.000,9144.000,1.163,2.088,5235.861,366.920,467.424,-24.442,6065.515,5215.978,-22.346,-0.028,0.231,0.012,0.012,-0.004,0.000,0.000,0.000,-0.020,0.694,0.002,0.719,0.0000000,0.0000000,5224.202,0.000,0.000,0.000,0,00:00:00,-1020,0.000,5224.202,46744.590,-24.440,365.498,0.000,0.392,-22.288,-0.051,0.005,-0.006,0.002,0.000,0.000
51.702,2,0,-2.888,2.086,5247.593,-2.473,1.744,354.476,-1.190,0.742,-21.955,0.000,0.000,0.0120217,0.000,9144.000,1.156,2.022,5272.334,364.725,465.094,-24.679,6101.861,5252.325,-21.997,0.080,0.363,-0.001,-0.015,0.006,0.000,0.000,0.000,-0.020,0.694,0.002,0.720,0.0000000,0.0000000,5260.380,0.000,0.000,0.000,0,00:00:00,-1020,0.000,5260.380,46505.820,-24.682,363.286,0.000,0.322,-22.180,-0.054,0.002,-0.005,-0.007,0.000,0.000
51.803,2,0,-2.840,2.047,5283.938,-2.415,1.685,352.765,-0.916,0.490,-21.775,0.000,0.000,0.0119786,0.000,9144.000,1.150,2.106,5308.589,362.547,462.819,-24.910,6137.484,5287.948,-21.799,-0.061,0.119,0.052,0.008,0.015,0.000,0.000,0.000,-0.017,0.694,0.001,0.720,0.0000000,0.0000000,5296.340,0.000,0.000,0.000,0,00:00:00,-1020,0.000,5296.340,46283.598,-24.909,361.094,0.000,0.330,-21.809,-0.054,0.002,-0.010,0.010,0.000,0.000
51.904,2,0,-2.793,2.006,5320.110,-2.386,1.622,351.057,-1.186,0.436,-21.743,0.000,0.000,0.0119343,0.000,9144.000,1.144,2.065,5344.626,360.373,460.519,-25.146,6173.655,5324.119,-21.777,-0.077,0.363,0.016,-0.013,0.031,0.000,0.000,0.000,-0.016,0.694,0.001,0.720,0.0000000,0.0000000,5332.084,0.000,0.000,0.000,0,00:00:00,-1020,0.000,5332.084,46053.613,-25.144,358.921,0.000,0.296,-21.781,0.054,-0.012,-0.013,-0.007,0.000,0.000
52.005,2,0,-2.748,1.963,5356.010,-2.344,1.541,349.299,-1.027,0.230,-21.498,0.000,0.000,0.0119293,0.000,9144.000,1.137,2.142,5380.448,358.223,458.284,-25.375,6208.945,5359.409,-21.522,-0.235,0.180,0.020,-0.017,-0.017,0.000,0.000,0.000,-0.016,0.693,0.000,0.721,0.0000000,0.0000000,5367.613,0.000,0.000,0.000,0,00:00:00,-1020,0.000,5367.613,45828.016,-25.375,356.767,0.000,0.319,-21.627,0.035,-0.009,0.016,0.001,0.000,0.000
52.106,2,0,-2.703,1.917,5391.662,-2.316,1.476,347.505,-1.148,0.362,-21.321,0.000,0.000,0.0119054,0.000,9144.000,1.131,2.240,5416.057,356.091,456.063,-25.604,6244.147,5394.610,-21.353,-0.049,0.331,0.023,0.012,0.018,0.000,0.000,0.000,-0.014,0.693,-0.000,0.720,0.0000000,0.0000000,5402.930,0.000,0.000,0.000,0,00:00:00,-1020,0.000,5402.930,45605.473,-25.605,354.631,0.000,0.336,-21.360,-0.010,-0.001,-0.021,0.004,0.000,0.000
52.207,2,0,-2.659,1.868,5427.074,-2.271,1.386,345.666,-0.952,0.090,-21.337,0.000,0.000,0.0118872,0.000,9144.000,1.125,2.173,5451.453,353.957,453.860,-25.832,6279.207,5429.670,-21.356,-0.291,0.126,0.016,-0.007,0.006,0.000,0.000,0.000,-0.013,0.693,-0.000,0.721,0.0000000,0.0000000,5438.036,0.000,0.000,0.000,0,00:00:00,-1020,0.000,5438.036,45387.840,-25.830,352.513,0.000,0.322,-21.152,-0.046,-0.004,-0.003,-0.010,0.000,0.000
52.308,2,0,-2.616,1.816,5462.268,-2.248,1.316,343.846,-1.145,0.265,-20.901,0.000,0.000,0.0119056,0.000,9144.000,1.119,2.213,5486.640,351.867,451.670,-26.059,6314.189,5464.653,-20.932,-0.101,0.286,0.001,-0.021,-0.018,0.000,0.000,0.000,-0.014,0.692,-0.001,0.721,0.0000000,0.0000000,5472.932,0.000,0.000,0.000,0,00:00:00,-1020,0.000,5472.932,45167.797,-26.059,350.413,0.000,0.320,-21.039,-0.010,0.014,0.000,0.009,0.000,0.000
52.409,2,0,-2.576,1.763,5492.372,-2.231,1.249,338.359,-1.190,0.261,-20.898,0.000,0.000,0.0118681,0.000,9144.000,1.112,2.336,5521.618,349.777,451.670,-26.059,6314.189,5464.653,-20.932,-0.101,0.286,0.001,-0.021,-0.018,0.000,0.000,0.000,-0.015,0.692,-0.002,0.722,0.0000000,0.0000000,5472.932,0.000,0.000,0.000,0,00:00:00,-1020,0.000,5472.932,45167.797,-26.059,350.413,0.000,0.320,-21.039,-0.010,0.014,0.000,0.009,0.000,0.000
52.510,2,0,-2.538,1.709,5527.422,-2.230,1.185,337.016,-1.318,0.264,-20.545,0.000,0.000,0.0119231,0.000,9144.000,1.107,2.458,5556.390,347.723,447.389,-26.507,6382.970,5533.434,-20.585,-0.023,0.401,0.033,-0.013,0.010,0.000,0.000,0.000,-0.013,0.691,-0.003,0.723,0.0000000,0.0000000,5542.104,0.000,0.000,0.000,0,00:00:00,-1020,0.000,5542.104,44745.508,-26.500,346.264,0.000,0.355,-20.774,0.063,-0.010,-0.002,-0.008,0.000,0.000
52.611,2,0,-2.503,1.655,5562.210,-2.208,1.137,335.593,-1.101,0.397,-20.409,0.000,0.000,0.0119220,0.000,9144.000,1.101,2.538,5590.958,345.682,445.284,-26.728,6416.989,5567.452,-20.441,0.070,0.159,-0.018,-0.014,0.012,0.000,0.000,0.000,-0.013,0.691,-0.002,0.723,0.0000000,0.0000000,5576.383,0.000,0.000,0.000,0,00:00:00,-1020,0.000,5576.383,44521.898,-26.735,344.214,0.000,0.256,-20.522,-0.009,0.004,0.019,-0.001,0.000,0.000
52.712,2,0,-2.470,1.601,5596.823,-2.203,1.089,334.151,-1.252,0.364,-20.352,0.000,0.000,0.0119157,0.000,9144.000,1.095,2.618,5625.323,343.647,443.163,-26.952,6451.398,5601.862,-20.391,0.020,0.330,-0.010,0.008,0.002,0.000,0.000,0.000,-0.014,0.691,-0.001,0.723,0.0000000,0.0000000,5610.459,0.000,0.000,0.000,0,00:00:00,-1020,0.000,5610.459,44318.770,-26.949,342.181,0.000,0.353,-20.414,-0.013,0.006,0.003,0.009,0.000,0.000
52.813,2,0,-2.440,1.549,5631.146,-2.203,1.049,332.617,-1.283,0.425,-20.202,0.000,0.000,0.0119312,0.000,9144.000,1.089,2.572,5659.486,341.627,441.110,-27.169,6484.837,5635.301,-20.241,0.115,0.447,0.014,0.041,-0.006,0.000,0.000,0.000,-0.013,0.692,-0.002,0.721,0.0000000,0.0000000,5644.334,0.000,0.000,0.000,0,00:00:00,-1020,0.000,5644.334,44111.246,-27.169,340.165,0.000,0.290,-20.118,-0.016,-0.005,-0.004,0.001,0.000,0.000
52.914,2,0,-2.412,1.497,5665.240,-2.204,0.992,331.043,-1.273,0.223,-20.040,0.000,0.000,0.0119422,0.000,9144.000,1.083,2.340,5693.448,339.623,439.053,-27.388,6518.468,5668.932,-20.076,-0.118,0.440,-0.017,-0.005,-0.003,0.000,0.000,0.000,-0.014,0.692,-0.001,0.722,0.0000000,0.0000000,5678.011,0.000,0.000,0.000,0,00:00:00,-1020,0.000,5678.011,43905.480,-27.388,338.163,0.000,0.284,-20.056,0.063,0.006,-0.003,0.012,0.000,0.000
53.015,2,0,-2.387,1.446,5699.181,-2.194,0.957,329.489,-1.157,0.406,-19.867,0.000,0.000,0.0119439,0.000,9144.000,1.077,2.366,5727.211,337.636,436.982,-27.609,6552.441,5702.905,-19.902,0.004,0.339,-0.030,0.005,0.012,0.000,0.000,0.000,-0.015,0.692,0.000,0.721,0.0000000,0.0000000,5711.489,0.000,0.000,0.000,0,00:00:00,-1020,0.000,5711.489,43702.586,-27.604,336.178,0.000,0.390,-19.848,-0.053,0.006,-0.003,-0.020,0.000,0.000
53.116,2,0,-2.364,1.396,5732.824,-2.190,0.933,327.847,-1.206,0.504,-19.710,0.000,0.000,0.0119349,0.000,9144.000,1.071,2.333,5760.778,335.665,434.992,-27.822,6585.216,5735.680,-19.750,0.058,0.324,-0.025,-0.035,-0.014,0.000,0.000,0.000,-0.016,0.691,0.000,0.723,0.0000000,0.0000000,5744.771,0.000,0.000,0.000,0,00:00:00,-1020,0.000,5744.771,43498.293,-27.823,334.207,0.000,0.271,-19.682,0.036,0.006,0.006,-0.003,0.000,0.000
53.217,2,0,-2.342,1.349,5766.222,-2.184,0.903,326.162,-1.170,0.406,-19.521,0.000,0.000,0.0119257,0.000,9144.000,1.065,2.528,5794.149,333.713,433.002,-28.036,6618.117,5768.581,-19.558,-0.035,0.266,0.002,-0.017,0.021,0.000,0.000,0.000,-0.015,0.691,0.001,0.723,0.0000000,0.0000000,5777.858,0.000,0.000,0.000,0,00:00:00,-1020,0.000,5777.858,43303.230,-28.033,332.252,0.000,0.327,-19.450,-0.029,0.017,0.005,-0.010,0.000,0.000
53.318,2,0,-2.322,1.304,5799.429,-2.182,0.879,324.488,-1.202,0.452,-19.260,0.000,0.000,0.0119044,0.000,9144.000,1.060,2.626,5827.328,331.787,431.009,-28.251,6651.192,5801.656,-19.300,0.053,0.316,0.018,0.005,-0.017,0.000,0.000,0.000,-0.015,0.691,-0.000,0.723,0.0000000,0.0000000,5810.751,0.000,0.000,0.000,0,00:00:00,-1020,0.000,5810.751,43104.270,-28.247,330.311,0.000,0.340,-19.444,-0.042,0.004,-0.003,0.004,0.000,0.000
53.419,2,0,-2.304,1.261,5832.368,-2.191,0.859,322.737,-1.300,0.466,-19.290,0.000,0.000,0.0118586,0.000,9144.000,1.054,2.602,5860.314,329.858,429.068,-28.461,6683.524,5833.987,-19.335,0.087,0.396,0.010,-0.008,0.009,0.000,0.000,0.000,-0.015,0.690,-0.000,0.723,0.0000000,0.0000000,5843.453,0.000,0.000,0.000,0,00:00:00,-1020,0.000,5843.453,42904.656,-28.463,328.384,0.000,0.258,-19.267,0.013,0.005,-0.003,0.002,0.000,0.000
53.520,2,0,-2.288,1.220,5865.091,-2.178,0.828,320.971,-1.078,0.335,-19.140,0.000,0.000,0.0118667,0.000,9144.000,1.048,2.651,5893.108,327.944,427.125,-28.672,6716.003,5866.466,-19.172,-0.051,0.237,-0.002,0.027,0.028,0.000,0.000,0.000,-0.014,0.691,0.001,0.722,0.0000000,0.0000000,5875.963,0.000,0.000,0.000,0,00:00:00,-1020,0.000,5875.963,42712.094,-28.673,326.472,0.000,0.279,-19.080,-0.014,-0.017,-0.003,-0.018,0.000,0.000
53.621,2,0,-2.273,1.181,5897.566,-2.187,0.822,319.181,-1.283,0.565,-18.855,0.000,0.000,0.0118624,0.000,9144.000,1.043,2.495,5925.714,326.058,425.215,-28.881,6748.040,5898.504,-18.903,0.134,0.401,-0.029,-0.026,-0.001,0.000,0.000,0.000,-0.015,0.690,0.002,0.723,0.0000000,0.0000000,5908.285,0.000,0.000,0.000,0,00:00:00,-1020,0.000,5908.285,42517.488,-28.885,324.573,0.000,0.367,-18.969,0.001,0.003,0.008,-0.005,0.000,0.000
53.722,2,0,-2.260,1.145,5929.855,-2.193,0.815,317.409,-1.250,0.526,-18.635,0.000,0.000,0.0118316,0.000,9144.000,1.037,2.642,5958.133,324.195,423.300,-29.090,6780.296,5930.760,-18.680,0.122,0.415,0.012,0.019,0.005,0.000,0.000,0.000,-0.014,0.691,0.002,0.723,0.0000000,0.0000000,5940.419,0.000,0.000,0.000,0,00:00:00,-1020,0.000,5940.419,42333.035,-29.087,322.688,0.000,0.393,-18.943,-0.019,-0.010,0.016,-0.008,0.000,0.000
53.823,2,0,-2.248,1.110,5961.937,-2.185,0.774,315.603,-1.102,0.181,-18.761,0.000,0.000,0.0117834,0.000,9144.000,1.032,2.534,5990.365,322.319,421.412,-29.298,6812.200,5962.664,-18.792,-0.128,0.244,0.054,-0.012,-0.002,0.000,0.000,0.000,-0.012,0.691,-0.000,0.723,0.0000000,0.0000000,5972.366,0.000,0.000,0.000,0,00:00:00,-1020,0.000,5972.366,42135.871,-29.304,320.816,0.000,0.351,-18.764,0.020,0.005,0.004,0.022,0.000,0.000
53.924,2,0,-2.238,1.076,5993.792,-2.210,0.753,313.784,-1.427,0.359,-18.559,0.000,0.000,0.0118039,0.000,9144.000,1.026,2.609,6022.412,320.463,419.550,-29.503,6843.783,5994.247,-18.608,-0.008,0.602,-0.036,0.014,-0.000,0.000,0.000,0.000,-0.014,0.691,0.001,0.722,0.0000000,0.0000000,6004.128,0.000,0.000,0.000,0,00:00:00,-1020,0.000,6004.128,41953.145,-29.505,318.957,0.000,0.294,-18.632,-0.008,-0.002,-0.001,-0.002,0.000,0.000
54.025,2,0,-2.231,1.043,6021.025,-2.233,0.741,308.648,-1.401,0.426,-18.560,0.000,0.000,0.0118169,0.000,9144.000,1.020,2.523,6054.272,318.607,419.550,-29.503,6843.783,5994.247,-18.608,-0.008,0.602,-0.036,0.014,-0.000,0.000,0.000,0.000,-0.015,0.692,0.002,0.722,0.0000000,0.0000000,6004.128,0.000,0.000,0.000,0,00:00:00,-1020,0.000,6004.128,41953.145,-29.505,318.957,0.000,0.294,-18.632,-0.008,-0.002,-0.001,-0.002,0.000,0.000
54.126,2,0,-2.227,1.013,6043.995,-2.254,0.737,300.716,-1.374,0.493,-18.560,0.000,0.000,0.0119141,0.000,9144.000,1.014,2.437,6085.947,316.751,419.550,-29.503,6843.783,5994.247,-18.608,-0.008,0.602,-0.036,0.014,-0.000,0.000,0.000,0.000,-0.016,0.692,0.003,0.721,0.0000000,0.0000000,6004.128,0.000,0.000,0.000,0,00:00:00,-1020,0.000,6004.128,41953.145,-29.505,318.957,0.000,0.294,-18.632,-0.008,-0.002,-0.001,-0.002,0.000,0.000
54.227,2,0,-2.224,0.985,6076.185,-2.241,0.736,300.317,-1.048,0.510,-18.077,0.000,0.000,0.0121300,0.000,9144.000,1.010,2.350,6117.442,314.943,414.067,-30.112,6937.439,6087.903,-18.112,0.018,0.311,0.001,0.008,-0.008,0.000,0.000,0.000,-0.017,0.693,0.003,0.721,0.0000000,0.0000000,6098.314,0.000,0.000,0.000,0,00:00:00,-1020,0.000,6098.314,41406.871,-30.112,313.458,0.000,0.337,-18.252,0.030,-0.009,0.011,0.017,0.000,0.000
54.328,2,0,-2.220,0.959,6108.259,-2.229,0.713,299.860,-1.042,0.272,-18.090,0.000,0.000,0.0121648,0.000,9144.000,1.004,2.304,6148.755,313.134,412.230,-30.318,6969.044,6119.508,-18.117,-0.222,0.359,-0.004,0.028,-0.031,0.000,0.000,0.000,-0.018,0.694,0.002,0.720,0.0000000,0.0000000,6129.347,0.000,0.000,0.000,0,00:00:00,-1020,0.000,6129.347,41227.215,-30.313,311.649,0.000,0.349,-18.222,-0.007,0.011,-0.020,-0.014,0.000,0.000
54.429,2,0,-2.215,0.934,6140.101,-2.226,0.702,299.277,-1.134,0.383,-17.964,0.000,0.000,0.0122092,0.000,9144.000,0.999,2.142,6179.889,311.338,410.452,-30.517,6999.749,6150.212,-17.998,-0.126,0.428,-0.010,-0.014,0.007,0.000,0.000,0.000,-0.018,0.693,0.003,0.721,0.0000000,0.0000000,6160.202,0.000,0.000,0.000,0,00:00:00,-1020,0.000,6160.202,41048.488,-30.514,309.856,0.000,0.427,-17.889,0.047,-0.007,-0.008,-0.004,0.000,0.000
54.530,2,0,-2.211,0.910,6167.430,-2.225,0.694,295.366,-1.159,0.403,-17.962,0.000,0.000,0.0122309,0.000,9144.000,0.993,2.221,6210.843,309.542,410.452,-30.517,6999.749,6150.212,-17.998,-0.126,0.428,-0.010,-0.014,0.007,0.000,0.000,0.000,-0.018,0.693,0.003,0.721,0.0000000,0.0000000,6160.202,0.000,0.000,0.000,0,00:00:00,-1020,0.000,6160.202,41048.488,-30.514,309.856,0.000,0.427,-17.889,0.047,-0.007,-0.008,-0.004,0.000,0.000
54.631,2,0,-2.207,0.888,6190.589,-2.228,0.689,288.635,-1.184,0.422,-17.960,0.000,0.000,0.0123224,0.000,9144.000,0.987,2.301,6241.618,307.746,410.452,-30.517,6999.749,6150.212,-17.998,-0.126,0.428,-0.010,-0.014,0.007,0.000,0.000,0.000,-0.018,0.692,0.004,0.722,0.0000000,0.0000000,6160.202,0.000,0.000,0.000,0,00:00:00,-1020,0.000,6160.202,41048.488,-30.514,309.856,0.000,0.427,-17.889,0.047,-0.007,-0.008,-0.004,0.000,0.000
54.732,2,0,-2.204,0.868,6222.677,-2.229,0.687,289.124,-1.172,0.436,-17.537,0.000,0.000,0.0125230,0.000,9144.000,0.983,2.380,6272.217,305.992,405.216,-31.109,7090.771,6241.235,-17.575,-0.055,0.464,0.024,0.018,-0.012,0.000,0.000,0.000,-0.018,0.693,0.003,0.721,0.0000000,0.0000000,6251.709,0.000,0.000,0.000,0,00:00:00,-1020,0.000,6251.709,40518.965,-31.112,304.567,0.000,0.365,-17.516,0.085,-0.005,-0.015,-0.019,0.000,0.000
54.833,2,0,-2.201,0.850,6254.541,-2.233,0.708,289.451,-1.197,0.647,-17.104,0.000,0.000,0.0125487,0.000,9144.000,0.978,2.282,6302.645,304.282,403.492,-31.306,7120.951,6271.415,-17.150,0.127,0.518,-0.024,0.009,0.012,0.000,0.000,0.000,-0.018,0.693,0.004,0.721,0.0000000,0.0000000,6281.864,0.000,0.000,0.000,0,00:00:00,-1020,0.000,6281.864,40350.926,-31.304,302.833,0.000,0.395,-17.364,-0.031,0.009,0.004,-0.006,0.000,0.000
54.934,2,0,-2.198,0.836,6286.217,-2.213,0.731,289.619,-0.959,0.669,-17.036,0.000,0.000,0.0124406,0.000,9144.000,0.973,2.229,6332.903,302.578,401.767,-31.503,7151.262,6301.726,-17.074,0.095,0.268,-0.029,-0.009,0.012,0.000,0.000,0.000,-0.019,0.693,0.005,0.721,0.0000000,0.0000000,6311.847,0.000,0.000,0.000,0,00:00:00,-1020,0.000,6311.847,40178.605,-31.501,301.112,0.000,0.388,-17.205,-0.064,-0.003,0.012,0.004,0.000,0.000
55.035,2,0,-2.194,0.825,6317.641,-2.208,0.743,289.565,-1.108,0.556,-17.258,0.000,0.000,0.0123274,0.000,9144.000,0.968,2.278,6362.988,300.852,400.077,-31.696,7181.051,6331.515,-17.298,-0.026,0.376,-0.001,-0.020,0.008,0.000,0.000,0.000,-0.019,0.692,0.006,0.722,0.0000000,0.0000000,6341.660,0.000,0.000,0.000,0,00:00:00,-1020,0.000,6341.660,40005.098,-31.699,299.405,0.000,0.351,-17.111,0.019,0.003,0.009,0.003,0.000,0.000
55.136,2,0,-2.191,0.817,6348.726,-2.212,0.768,289.294,-1.188,0.672,-16.924,0.000,0.000,0.0123211,0.000,9144.000,0.963,2.391,6392.904,299.160,398.436,-31.885,7210.069,6360.533,-16.972,0.125,0.480,0.012,0.008,-0.019,0.000,0.000,0.000,-0.019,0.692,0.005,0.721,0.0000000,0.0000000,6371.304,0.000,0.000,0.000,0,00:00:00,-1020,0.000,6371.304,39843.535,-31.885,297.712,0.000,0.312,-16.864,-0.016,0.011,0.007,0.004,0.000,0.000
55.237,2,0,-2.187,0.812,6379.538,-2.206,0.793,288.854,-1.093,0.674,-16.780,0.000,0.000,0.0122288,0.000,9144.000,0.958,2.348,6422.652,297.482,396.785,-32.076,7239.380,6389.844,-16.825,0.067,0.379,-0.037,-0.008,0.012,0.000,0.000,0.000,-0.020,0.692,0.006,0.722,0.0000000,0.0000000,6400.781,0.000,0.000,0.000,0,00:00:00,-1020,0.000,6400.781,39676.316,-32.078,296.031,0.000,0.339,-16.820,0.012,-0.020,0.004,0.001,0.000,0.000
55.338,2,0,-2.182,0.809,6410.104,-2.177,0.807,288.275,-0.856,0.569,-16.660,0.000,0.000,0.0121190,0.000,9144.000,0.953,2.388,6452.234,295.816,395.138,-32.266,7268.701,6419.165,-16.691,-0.062,0.125,-0.013,-0.017,0.028,0.000,0.000,0.000,-0.019,0.691,0.008,0.722,0.0000000,0.0000000,6430.092,0.000,0.000,0.000,0,00:00:00,-1020,0.000,6430.092,39516.453,-32.263,294.363,0.000,0.372,-16.695,-0.010,-0.014,0.016,0.016,0.000,0.000
55.439,2,0,-2.176,0.807,6440.436,-2.167,0.817,287.570,-1.046,0.523,-16.594,0.000,0.000,0.0119952,0.000,9144.000,0.948,2.482,6481.649,294.156,393.501,-32.457,7297.948,6448.412,-16.632,-0.085,0.267,0.011,-0.030,-0.005,0.000,0.000,0.000,-0.019,0.690,0.007,0.723,0.0000000,0.0000000,6459.237,0.000,0.000,0.000,0,00:00:00,-1020,0.000,6459.237,39353.926,-32.452,292.707,0.000,0.362,-16.484,-0.094,-0.005,-0.010,0.019,0.000,0.000
55.540,2,0,-2.170,0.807,6470.471,-2.152,0.846,286.706,-0.996,0.710,-16.509,0.000,0.000,0.0119009,0.000,9144.000,0.943,2.653,6510.900,292.506,391.903,-32.643,7326.600,6477.064,-16.553,0.065,0.218,-0.023,-0.001,0.011,0.000,0.000,0.000,-0.019,0.690,0.009,0.723,0.0000000,0.0000000,6488.219,0.000,0.000,0.000,0,00:00:00,-1020,0.000,6488.219,39191.629,-32.641,291.063,0.000,0.397,-16.479,-0.066,0.015,-0.007,-0.005,0.000,0.000
55.641,2,0,-2.164,0.810,6500.256,-2.164,0.864,285.724,-1.254,0.606,-16.465,0.000,0.000,0.0118222,0.000,9144.000,0.938,2.659,6539.986,290.859,390.302,-32.830,7355.385,6505.849,-16.517,-0.004,0.481,0.021,-0.000,0.040,0.000,0.000,0.000,-0.017,0.690,0.009,0.723,0.0000000,0.0000000,6517.038,0.000,0.000,0.000,0,00:00:00,-1020,0.000,6517.038,39026.996,-32.834,289.431,0.000,0.339,-16.325,0.009,-0.008,-0.010,-0.012,0.000,0.000
55.742,2,0,-2.159,0.814,6529.761,-2.168,0.894,284.636,-1.173,0.728,-16.170,0.000,0.000,0.0117793,0.000,9144.000,0.933,2.662,6568.910,289.242,388.729,-33.015,7383.778,6534.242,-16.223,0.158,0.424,0.019,0.007,0.021,0.000,0.000,0.000,-0.016,0.691,0.009,0.723,0.0000000,0.0000000,6545.694,0.000,0.000,0.000,0,00:00:00,-1020,0.000,6545.694,38868.789,-33.020,287.810,0.000,0.395,-16.272,-0.007,0.011,-0.006,0.012,0.000,0.000
55.843,2,0,-2.154,0.821,6559.059,-2.165,0.921,283.499,-1.100,0.700,-15.922,0.000,0.000,0.0116701,0.000,9144.000,0.928,2.625,6597.675,287.650,387.145,-33.201,7412.461,6562.925,-15.971,0.131,0.353,-0.003,-0.006,0.013,0.000,0.000,0.000,-0.015,0.690,0.010,0.723,0.0000000,0.0000000,6574.191,0.000,0.000,0.000,0,00:00:00,-1020,0.000,6574.191,38715.559,-33.200,286.201,0.000,0.322,-16.108,-0.044,-0.011,-0.008,0.007,0.000,0.000
55.944,2,0,-2.151,0.829,6588.143,-2.173,0.937,282.273,-1.217,0.594,-16.083,0.000,0.000,0.0115178,0.000,9144.000,0.923,2.662,6626.279,286.042,385.576,-33.387,7440.949,6591.413,-16.135,0.039,0.409,0.010,-0.032,-0.028,0.000,0.000,0.000,-0.016,0.689,0.009,0.724,0.0000000,0.0000000,6602.529,0.000,0.000,0.000,0,00:00:00,-1020,0.000,6602.529,38558.934,-33.385,284.603,0.000,0.333,-15.964,-0.049,-0.023,-0.009,0.007,0.000,0.000
56.045,2,0,-2.148,0.838,6616.938,-2.173,0.971,280.953,-1.130,0.770,-15.767,0.000,0.000,0.0114817,0.000,9144.000,0.918,2.847,6654.726,284.465,384.053,-33.567,7468.716,6619.180,-15.822,0.184,0.312,-0.022,-0.018,0.046,0.000,0.000,0.000,-0.015,0.689,0.011,0.725,0.0000000,0.0000000,6630.708,0.000,0.000,0.000,0,00:00:00,-1020,0.000,6630.708,38408.621,-33.563,283.016,0.000,0.315,-15.809,-0.006,-0.021,-0.008,0.003,0.000,0.000
56.146,2,0,-2.145,0.850,6645.468,-2.177,0.991,279.541,-1.167,0.652,-15.715,0.000,0.000,0.0113724,0.000,9144.000,0.914,2.947,6683.015,282.893,382.536,-33.747,7496.444,6646.907,-15.766,0.020,0.431,-0.028,0.048,0.041,0.000,0.000,0.000,-0.015,0.690,0.014,0.723,0.0000000,0.0000000,6658.729,0.000,0.000,0.000,0,00:00:00,-1020,0.000,6658.729,38248.309,-33.754,281.440,0.000,0.362,-15.780,0.005,-0.005,0.006,0.001,0.000,0.000
56.247,2,0,-2.143,0.861,6673.795,-2.171,1.003,278.098,-1.068,0.564,-15.569,0.000,0.000,0.0112932,0.000,9144.000,0.909,2.674,6711.149,281.336,381.012,-33.929,7524.388,6674.851,-15.611,-0.072,0.359,-0.008,0.014,-0.024,0.000,0.000,0.000,-0.016,0.691,0.013,0.723,0.0000000,0.0000000,6686.595,0.000,0.000,0.000,0,00:00:00,-1020,0.000,6686.595,38099.469,-33.931,279.874,0.000,0.346,-15.788,0.062,0.013,-0.005,-0.004,0.000,0.000
56.348,2,0,-2.140,0.872,6701.923,-2.167,1.011,276.624,-1.083,0.545,-15.476,0.000,0.000,0.0111973,0.000,9144.000,0.904,2.596,6739.128,279.789,379.501,-34.110,7552.192,6702.656,-15.519,-0.073,0.368,0.009,-0.007,0.002,0.000,0.000,0.000,-0.016,0.690,0.013,0.723,0.0000000,0.0000000,6714.306,0.000,0.000,0.000,0,00:00:00,-1020,0.000,6714.306,37946.652,-34.114,278.318,0.000,0.328,-15.647,0.055,0.007,-0.003,0.012,0.000,0.000
56.449,2,0,-2.137,0.884,6729.814,-2.152,1.030,275.079,-0.973,0.646,-15.530,0.000,0.000,0.0111170,0.000,9144.000,0.900,2.634,6766.951,278.236,378.019,-34.288,7579.542,6730.006,-15.572,0.013,0.249,-0.008,-0.004,-0.001,0.000,0.000,0.000,-0.016,0.690,0.013,0.723,0.0000000,0.0000000,6741.862,0.000,0.000,0.000,0,00:00:00,-1020,0.000,6741.862,37802.133,-34.288,276.772,0.000,0.298,-15.488,0.056,0.003,-0.004,0.008,0.000,0.000
56.550,2,0,-2.133,0.896,6757.477,-2.145,1.049,273.498,-1.060,0.667,-15.337,0.000,0.000,0.0111006,0.000,9144.000,0.895,2.658,6794.621,276.702,376.550,-34.465,7606.754,6757.217,-15.383,0.061,0.365,0.012,0.013,-0.000,0.000,0.000,0.000,-0.016,0.691,0.012,0.723,0.0000000,0.0000000,6769.265,0.000,0.000,0.000,0,00:00:00,-1020,0.000,6769.265,37653.961,-34.466,275.236,0.000,0.350,-15.390,0.030,0.010,0.003,0.001,0.000,0.000
56.651,2,0,-2.129,0.908,6784.961,-2.141,1.044,271.891,-1.071,0.426,-15.469,0.000,0.000,0.0110544,0.000,9144.000,0.890,2.582,6822.137,275.155,375.076,-34.643,7634.130,6784.594,-15.506,-0.195,0.385,-0.008,0.009,-0.018,0.000,0.000,0.000,-0.016,0.691,0.012,0.722,0.0000000,0.0000000,6796.516,0.000,0.000,0.000,0,00:00:00,-1020,0.000,6796.516,37506.391,-34.644,273.710,0.000,0.317,-15.227,0.030,-0.009,0.009,0.015,0.000,0.000
56.752,2,0,-2.124,0.919,6812.182,-2.123,1.060,270.240,-0.940,0.641,-15.139,0.000,0.000,0.0110922,0.000,9144.000,0.886,2.529,6849.501,273.641,373.649,-34.816,7660.716,6811.180,-15.180,0.046,0.228,0.009,-0.026,0.006,0.000,0.000,0.000,-0.016,0.690,0.012,0.723,0.0000000,0.0000000,6823.615,0.000,0.000,0.000,0,00:00:00,-1020,0.000,6823.615,37363.727,-34.817,272.193,0.000,0.404,-15.126,0.044,0.000,0.005,-0.007,0.000,0.000
56.853,2,0,-2.119,0.930,6839.277,-2.112,1.068,268.641,-1.011,0.567,-14.919,0.000,0.000,0.0110280,0.000,9144.000,0.881,2.677,6876.716,272.149,372.187,-34.993,7688.059,6838.522,-14.961,-0.026,0.315,-0.004,0.003,0.018,0.000,0.000,0.000,-0.015,0.690,0.013,0.723,0.0000000,0.0000000,6850.563,0.000,0.000,0.000,0,00:00:00,-1020,0.000,6850.563,37219.918,-34.992,270.685,0.000,0.275,-15.179,0.008,0.016,-0.003,-0.008,0.000,0.000
56.954,2,0,-2.113,0.941,6866.164,-2.109,1.073,266.996,-1.081,0.542,-15.036,0.000,0.000,0.0109248,0.000,9144.000,0.877,2.657,6903.781,270.646,370.768,-35.166,7714.665,6865.129,-15.079,0.012,0.423,0.045,0.029,0.004,0.000,0.000,0.000,-0.014,0.691,0.011,0.722,0.0000000,0.0000000,6877.363,0.000,0.000,0.000,0,00:00:00,-1020,0.000,6877.363,37075.582,-35.168,269.186,0.000,0.392,-15.000,-0.010,-0.007,-0.011,0.006,0.000,0.000
57.055,2,0,-2.107,0.950,6892.902,-2.085,1.064,265.364,-0.871,0.409,-15.044,0.000,0.000,0.0109258,0.000,9144.000,0.872,2.493,6930.695,269.142,369.341,-35.341,7741.509,6891.973,-15.072,-0.121,0.222,0.000,0.005,-0.013,0.000,0.000,0.000,-0.014,0.692,0.011,0.722,0.0000000,0.0000000,6904.013,0.000,0.000,0.000,0,00:00:00,-1020,0.000,6904.013,36933.969,-35.341,267.696,0.000,0.371,-14.979,0.015,0.008,-0.011,-0.010,0.000,0.000
57.156,2,0,-2.099,0.958,6919.462,-2.079,1.061,263.757,-1.045,0.481,-14.668,0.000,0.000,0.0109427,0.000,9144.000,0.868,2.462,6957.462,267.675,367.938,-35.513,7767.969,6918.433,-14.707,-0.049,0.433,-0.011,0.015,-0.007,0.000,0.000,0.000,-0.015,0.692,0.011,0.722,0.0000000,0.0000000,6930.516,0.000,0.000,0.000,0,00:00:00,-1020,0.000,6930.516,36791.723,-35.516,266.215,0.000,0.311,-14.847,-0.012,0.000,-0.003,0.008,0.000,0.000
57.257,2,0,-2.092,0.967,6945.838,-2.071,1.090,262.135,-1.018,0.791,-14.674,0.000,0.000,0.0108516,0.000,9144.000,0.863,2.375,6984.083,266.207,366.551,-35.684,7794.222,6944.686,-14.724,0.225,0.376,-0.024,-0.019,-0.005,0.000,0.000,0.000,-0.016,0.691,0.012,0.722,0.0000000,0.0000000,6956.872,0.000,0.000,0.000,0,00:00:00,-1020,0.000,6956.872,36653.832,-35.685,264.742,0.000,0.314,-14.762,0.052,-0.002,0.002,-0.014,0.000,0.000
57.358,2,0,-2.084,0.976,6971.961,-2.043,1.092,260.443,-0.815,0.533,-14.690,0.000,0.000,0.0108281,0.000,9144.000,0.859,2.481,7010.557,264.738,365.204,-35.850,7819.791,6970.255,-14.721,-0.018,0.173,0.010,-0.000,-0.018,0.000,0.000,0.000,-0.016,0.691,0.011,0.722,0.0000000,0.0000000,6983.082,0.000,0.000,0.000,0,00:00:00,-1020,0.000,6983.082,36519.754,-35.851,263.278,0.000,0.237,-14.663,0.007,0.014,-0.002,-0.013,0.000,0.000
57.459,2,0,-2.075,0.984,6997.970,-2.033,1.091,258.794,-0.992,0.513,-14.692,0.000,0.000,0.0108194,0.000,9144.000,0.854,2.483,7036.884,263.269,363.820,-36.021,7846.148,6996.612,-14.730,-0.050,0.346,-0.005,-0.005,0.052,0.000,0.000,0.000,-0.014,0.691,0.013,0.722,0.0000000,0.0000000,7009.146,0.000,0.000,0.000,0,00:00:00,-1020,0.000,7009.146,36385.258,-36.017,261.822,0.000,0.311,-14.629,-0.059,0.008,-0.011,0.012,0.000,0.000
57.560,2,0,-2.066,0.992,7023.793,-2.026,1.099,257.160,-1.022,0.600,-14.391,0.000,0.000,0.0108607,0.000,9144.000,0.850,2.512,7063.067,261.830,362.474,-36.189,7871.852,7022.315,-14.434,0.041,0.378,-0.008,-0.006,-0.036,0.000,0.000,0.000,-0.016,0.691,0.012,0.723,0.0000000,0.0000000,7035.065,0.000,0.000,0.000,0,00:00:00,-1020,0.000,7035.065,36246.566,-36.190,260.374,0.000,0.396,-14.524,0.046,0.006,-0.010,-0.005,0.000,0.000
57.661,2,0,-2.058,1.000,7049.482,-2.033,1.103,255.549,-1.148,0.563,-14.395,0.000,0.000,0.0108046,0.000,9144.000,0.846,2.547,7089.106,260.390,361.123,-36.357,7897.723,7048.187,-14.442,-0.008,0.531,-0.008,0.019,0.017,0.000,0.000,0.000,-0.016,0.692,0.013,0.722,0.0000000,0.0000000,7060.841,0.000,0.000,0.000,0,00:00:00,-1020,0.000,7060.841,36110.410,-36.359,258.934,0.000,0.321,-14.444,-0.011,-0.001,0.008,0.020,0.000,0.000
57.762,2,0,-2.050,1.007,7074.963,-2.026,1.108,253.917,-1.016,0.577,-14.252,0.000,0.000,0.0108059,0.000,9144.000,0.841,2.439,7115.002,258.965,359.812,-36.521,7922.923,7073.386,-14.295,-0.018,0.378,-0.022,-0.018,-0.022,0.000,0.000,0.000,-0.017,0.691,0.013,0.723,0.0000000,0.0000000,7086.474,0.000,0.000,0.000,0,00:00:00,-1020,0.000,7086.474,35982.945,-36.519,257.501,0.000,0.465,-14.322,0.008,-0.010,0.002,-0.004,0.000,0.000
57.863,2,0,-2.043,1.014,7096.731,-2.023,1.115,249.635,-1.042,0.606,-14.249,0.000,0.000,0.0107640,0.000,9144.000,0.837,2.541,7140.756,257.540,359.812,-36.521,7922.923,7073.386,-14.295,-0.018,0.378,-0.022,-0.018,-0.022,0.000,0.000,0.000,-0.019,0.690,0.012,0.723,0.0000000,0.0000000,7086.474,0.000,0.000,0.000,0,00:00:00,-1020,0.000,7086.474,35982.945,-36.519,257.501,0.000,0.465,-14.322,0.008,-0.010,0.002,-0.004,0.000,0.000
57.964,2,0,-2.037,1.022,7122.263,-2.029,1.143,248.497,-1.133,0.815,-14.163,0.000,0.000,0.0108125,0.000,9144.000,0.833,2.642,7166.369,256.124,357.155,-36.854,7974.200,7124.664,-14.224,0.138,0.473,-0.042,0.002,-0.017,0.000,0.000,0.000,-0.021,0.690,0.013,0.723,0.0000000,0.0000000,7137.314,0.000,0.000,0.000,0,00:00:00,-1020,0.000,7137.314,35715.152,-36.855,254.659,0.000,0.353,-14.225,0.012,0.010,0.008,0.006,0.000,0.000
58.065,2,0,-2.031,1.032,7147.610,-2.013,1.160,247.314,-0.903,0.708,-14.085,0.000,0.000,0.0108644,0.000,9144.000,0.828,2.627,7191.840,254.716,355.870,-37.016,7999.110,7149.573,-14.129,0.007,0.267,-0.019,0.015,-0.021,0.000,0.000,0.000,-0.022,0.691,0.013,0.723,0.0000000,0.0000000,7162.522,0.000,0.000,0.000,0,00:00:00,-1020,0.000,7162.522,35589.766,-37.013,253.249,0.000,0.297,-14.167,0.056,-0.005,0.011,0.009,0.000,0.000
58.166,2,0,-2.023,1.042,7169.301,-1.994,1.179,243.489,-0.884,0.733,-14.085,0.000,0.000,0.0108622,0.000,9144.000,0.824,2.543,7217.171,253.307,355.870,-37.016,7999.110,7149.573,-14.129,0.007,0.267,-0.019,0.015,-0.021,0.000,0.000,0.000,-0.024,0.691,0.013,0.722,0.0000000,0.0000000,7162.522,0.000,0.000,0.000,0,00:00:00,-1020,0.000,7162.522,35589.766,-37.013,253.249,0.000,0.297,-14.167,0.056,-0.005,0.011,0.009,0.000,0.000
58.267,2,0,-2.016,1.053,7194.571,-1.984,1.189,242.659,-0.960,0.651,-13.750,0.000,0.000,0.0109349,0.000,9144.000,0.820,2.458,7242.364,251.932,353.323,-37.339,8048.697,7199.160,-13.794,-0.011,0.357,0.034,-0.002,0.019,0.000,0.000,0.000,-0.022,0.691,0.013,0.722,0.0000000,0.0000000,7212.520,0.000,0.000,0.000,0,00:00:00,-1020,0.000,7212.520,35332.188,-37.339,250.451,0.000,0.401,-13.927,-0.036,0.010,0.001,0.010,0.000,0.000
58.368,2,0,-2.007,1.064,7219.718,-1.969,1.218,241.794,-0.907,0.848,-13.804,0.000,0.000,0.0108513,0.000,9144.000,0.816,2.471,7267.419,250.552,352.050,-37.501,8073.598,7224.062,-13.855,0.183,0.323,-0.000,0.018,-0.010,0.000,0.000,0.000,-0.022,0.692,0.012,0.721,0.0000000,0.0000000,7237.310,0.000,0.000,0.000,0,00:00:00,-1020,0.000,7237.310,35206.062,-37.499,249.062,0.000,0.373,-13.887,-0.075,0.020,-0.006,-0.034,0.000,0.000
58.469,2,0,-1.998,1.077,7241.264,-1.952,1.246,238.305,-0.882,0.847,-13.806,0.000,0.000,0.0108447,0.000,9144.000,0.811,2.366,7292.336,249.171,352.050,-37.501,8073.598,7224.062,-13.855,0.183,0.323,-0.000,0.018,-0.010,0.000,0.000,0.000,-0.023,0.693,0.012,0.721,0.0000000,0.0000000,7237.310,0.000,0.000,0.000,0,00:00:00,-1020,0.000,7237.310,35206.062,-37.499,249.062,0.000,0.373,-13.887,-0.075,0.020,-0.006,-0.034,0.000,0.000
58.570,2,0,-1.989,1.091,7266.398,-1.935,1.267,237.779,-0.876,0.779,-13.597,0.000,0.000,0.0109068,0.000,9144.000,0.807,2.261,7317.118,247.811,349.540,-37.821,8122.892,7273.355,-13.643,0.065,0.340,-0.042,0.008,0.029,0.000,0.000,0.000,-0.023,0.693,0.014,0.720,0.0000000,0.0000000,7286.477,0.000,0.000,0.000,0,00:00:00,-1020,0.000,7286.477,34951.637,-37.824,246.305,0.000,0.474,-13.710,-0.053,0.005,-0.011,0.002,0.000,0.000
58.671,2,0,-1.978,1.105,7291.329,-1.915,1.285,237.130,-0.844,0.759,-13.716,0.000,0.000,0.0108575,0.000,9144.000,0.803,2.213,7341.762,246.440,348.323,-37.977,8146.914,7297.378,-13.758,0.079,0.363,0.030,0.041,0.029,0.000,0.000,0.000,-0.021,0.694,0.014,0.719,0.0000000,0.0000000,7310.854,0.000,0.000,0.000,0,00:00:00,-1020,0.000,7310.854,34831.023,-37.979,244.936,0.000,0.259,-13.590,-0.107,0.008,0.006,-0.017,0.000,0.000
58.772,3,0,-1.966,1.119,7316.072,-1.885,1.282,236.395,-0.730,0.557,-13.648,0.000,0.000,0.0108918,0.000,9144.000,0.799,1.977,7366.269,245.075,347.110,-38.133,8170.896,7321.360,-13.676,-0.118,0.253,0.002,0.000,-0.001,0.000,0.000,0.000,-0.021,0.694,0.014,0.719,0.0000000,0.0000000,7335.096,0.000,0.000,0.000,0,00:00:00,-1020,0.000,7335.096,34704.340,-38.142,243.574,0.000,0.387,-13.617,0.035,-0.007,0.005,0.017,0.000,0.000
58.873,3,0,-1.953,1.131,7337.283,-1.854,1.277,233.078,-0.729,0.553,-13.648,55.000,0.000,0.0108918,9766.820,9144.000,0.795,1.975,7390.640,243.710,347.110,-38.133,8170.896,7321.360,-13.676,-0.118,0.253,0.002,0.000,-0.001,0.000,0.000,0.000,-0.021,0.695,0.014,0.719,0.0000000,0.0000000,7335.096,0.000,0.000,0.000,0,00:00:00,-4089,0.000,7335.096,34704.340,-38.142,243.574,0.000,0.387,-13.617,0.035,-0.007,0.005,0.017,0.000,0.000
58.974,3,0,-1.938,1.141,7355.233,-1.825,1.272,227.575,-0.729,0.550,-13.648,55.000,0.000,0.0108918,9728.431,9144.000,0.790,1.973,7414.875,242.345,347.110,-38.133,8170.896,7321.360,-13.676,-0.118,0.253,0.002,0.000,-0.001,0.000,0.000,0.000,-0.021,0.695,0.014,0.719,0.0000000,0.0000000,7335.096,0.000,0.000,0.000,0,00:00:00,-21479,0.000,7335.096,34704.340,-38.142,243.574,0.000,0.387,-13.617,0.035,-0.007,0.005,0.017,0.000,0.000
59.075,3,0,-1.922,1.151,7380.278,-1.808,1.271,227.943,-0.841,0.590,-12.043,45.000,-6.000,0.0108918,9756.761,9144.000,0.787,1.971,7438.989,241.141,343.494,-38.601,8242.828,7393.292,-12.080,-0.006,0.382,-0.005,-0.033,0.024,0.000,0.000,0.000,-0.020,0.693,0.015,0.720,0.0000000,0.0000000,7407.030,0.000,0.000,0.000,0,00:00:00,-43029,0.000,7407.030,34350.719,-38.599,239.646,0.000,0.324,-12.295,0.022,0.005,0.005,-0.014,0.000,0.000
59.176,3,0,-1.906,1.159,7405.206,-1.780,1.273,228.132,-0.729,0.631,-12.709,50.000,-4.000,0.0108918,9751.295,9144.000,0.783,2.159,7462.976,239.870,342.295,-38.757,8266.832,7417.296,-12.744,0.025,0.202,0.018,-0.032,-0.016,0.000,0.000,0.000,-0.020,0.692,0.014,0.721,0.0000000,0.0000000,7430.758,0.000,0.000,0.000,0,00:00:00,-64947,0.000,7430.758,34234.000,-38.751,238.387,0.000,0.362,-12.564,0.055,0.007,-0.009,-0.003,0.000,0.000
59.277,3,0,-1.890,1.167,7429.882,-1.770,1.270,228.106,-0.890,0.589,-12.837,55.000,-2.000,0.0108918,9743.496,9144.000,0.779,2.345,7486.834,238.587,341.147,-38.907,8289.851,7440.315,-12.877,-0.059,0.348,-0.029,-0.007,-0.012,0.000,0.000,0.000,-0.021,0.692,0.014,0.722,0.0000000,0.0000000,7454.354,0.000,0.000,0.000,0,00:00:00,-86804,0.000,7454.354,34120.602,-38.899,237.094,0.000,0.338,-12.910,-0.056,0.002,0.014,0.022,0.000,0.000
59.378,3,0,-1.874,1.174,7454.348,-1.769,1.281,227.888,-0.977,0.723,-13.208,60.000,0.000,0.0108918,9733.345,9144.000,0.775,2.386,7510.561,237.266,339.994,-39.058,8313.056,7463.520,-13.257,0.074,0.428,0.013,0.008,-0.001,0.000,0.000,0.000,-0.021,0.692,0.014,0.721,0.0000000,0.0000000,7477.816,0.000,0.000,0.000,0,00:00:00,-108704,0.000,7477.816,33995.836,-39.062,235.768,0.000,0.305,-13.439,-0.075,0.012,-0.000,-0.009,0.000,0.000
59.479,3,0,-1.859,1.181,7478.711,-1.753,1.291,227.606,-0.821,0.715,-13.254,65.000,1.000,0.0108918,9737.960,9144.000,0.771,2.343,7534.155,235.940,338.811,-39.213,8336.919,7487.383,-13.295,0.052,0.316,-0.006,0.032,0.037,0.000,0.000,0.000,-0.020,0.693,0.015,0.720,0.0000000,0.0000000,7501.143,0.000,0.000,0.000,0,00:00:00,-131073,0.000,7501.143,33885.324,-39.207,234.427,0.000,0.323,-13.356,-0.018,-0.012,0.018,-0.008,0.000,0.000
59.580,3,0,-1.844,1.189,7499.635,-1.733,1.301,224.775,-0.776,0.727,-13.256,65.000,3.000,0.0108918,9725.994,9144.000,0.767,2.159,7557.616,234.615,338.811,-39.213,8336.919,7487.383,-13.295,0.052,0.316,-0.006,0.032,0.037,0.000,0.000,0.000,-0.019,0.695,0.017,0.719,0.0000000,0.0000000,7501.143,0.000,0.000,0.000,0,00:00:00,-153407,0.000,7501.143,33885.324,-39.207,234.427,0.000,0.323,-13.356,-0.018,-0.012,0.018,-0.008,0.000,0.000
59.681,3,0,-1.830,1.197,7523.812,-1.729,1.321,224.526,-0.918,0.832,-13.897,65.000,5.000,0.0108918,9669.267,9144.000,0.763,1.976,7580.939,233.225,336.544,-39.511,8382.833,7533.297,-13.946,0.087,0.410,-0.027,-0.018,-0.003,0.000,0.000,0.000,-0.020,0.694,0.018,0.720,0.0000000,0.0000000,7547.377,0.000,0.000,0.000,0,00:00:00,-175962,0.000,7547.377,33654.445,-39.511,231.653,0.000,0.368,-14.089,0.010,-0.001,0.019,-0.022,0.000,0.000
59.782,3,0,-1.817,1.206,7547.730,-1.740,1.320,224.044,-1.065,0.624,-14.506,65.000,8.000,0.0108918,9646.806,9144.000,0.758,2.081,7604.116,231.774,335.438,-39.658,8405.333,7555.797,-14.548,-0.189,0.526,-0.025,-0.006,0.002,0.000,0.000,0.000,-0.021,0.694,0.019,0.720,0.0000000,0.0000000,7570.276,0.000,0.000,0.000,0,00:00:00,-198556,0.000,7570.276,33543.328,-39.658,230.202,0.000,0.339,-14.498,0.067,0.002,0.009,-0.019,0.000,0.000
59.883,3,0,-1.806,1.214,7571.482,-1.740,1.339,223.439,-0.953,0.823,-14.863,65.000,10.000,0.0108918,9636.630,9144.000,0.753,2.117,7627.145,230.288,334.308,-39.808,8428.381,7578.844,-14.913,-0.002,0.345,0.006,-0.037,-0.001,0.000,0.000,0.000,-0.021,0.692,0.019,0.721,0.0000000,0.0000000,7593.025,0.000,0.000,0.000,0,00:00:00,-221117,0.000,7593.025,33435.777,-39.801,228.725,0.000,0.306,-14.818,-0.057,-0.006,0.019,-0.006,0.000,0.000
59.984,3,0,-1.796,1.224,7595.004,-1.747,1.358,222.693,-1.007,0.833,-15.012,65.000,12.000,0.0108918,9625.359,9144.000,0.749,2.329,7650.024,228.787,333.209,-39.954,8450.864,7601.327,-15.062,-0.082,0.421,-0.054,0.018,0.013,0.000,0.000,0.000,-0.022,0.693,0.021,0.720,0.0000000,0.0000000,7615.622,0.000,0.000,0.000,0,00:00:00,-243801,0.000,7615.622,33323.520,-39.950,227.220,0.000,0.485,-15.071,-0.090,0.001,0.001,-0.010,0.000,0.000
60.085,3,0,-1.786,1.234,7618.306,-1.735,1.375,221.808,-0.819,0.822,-15.334,65.000,14.000,0.0108918,9614.081,9144.000,0.744,2.222,7672.749,227.253,332.115,-40.100,8473.291,7623.755,-15.375,-0.117,0.271,-0.002,0.032,0.008,0.000,0.000,0.000,-0.022,0.694,0.021,0.719,0.0000000,0.0000000,7638.065,0.000,0.000,0.000,0,00:00:00,-266306,0.000,7638.065,33213.512,-40.097,225.691,0.000,0.267,-15.333,0.049,-0.008,-0.004,-0.000,0.000,0.000
60.186,3,0,-1.777,1.245,7641.340,-1.725,1.398,220.783,-0.838,0.877,-15.395,65.000,16.000,0.0108918,9602.176,9144.000,0.739,2.039,7695.321,225.714,331.047,-40.242,8495.232,7645.695,-15.439,-0.080,0.332,-0.008,0.028,0.015,0.000,0.000,0.000,-0.022,0.695,0.022,0.718,0.0000000,0.0000000,7660.351,0.000,0.000,0.000,0,00:00:00,-288998,0.000,7660.351,33107.848,-40.238,224.139,0.000,0.404,-15.470,-0.061,-0.019,0.016,-0.019,0.000,0.000
60.287,3,0,-1.767,1.257,7664.196,-1.691,1.421,219.679,-0.593,0.889,-15.644,65.000,18.000,0.0108918,9589.370,9144.000,0.734,1.881,7717.736,224.150,329.960,-40.388,8517.640,7668.104,-15.680,-0.130,0.141,-0.030,0.041,-0.024,0.000,0.000,0.000,-0.024,0.696,0.022,0.717,0.0000000,0.0000000,7682.479,0.000,0.000,0.000,0,00:00:00,-311519,0.000,7682.479,32994.098,-40.391,222.564,0.000,0.386,-15.838,0.031,-0.023,0.034,-0.003,0.000,0.000
60.388,3,0,-1.756,1.272,7686.817,-1.709,1.474,218.428,-1.099,1.193,-16.205,65.000,21.000,0.0108918,9566.636,9144.000,0.729,1.643,7739.988,222.529,328.902,-40.530,8539.520,7689.984,-16.273,0.103,0.641,-0.023,0.008,-0.023,0.000,0.000,0.000,-0.025,0.697,0.022,0.717,0.0000000,0.0000000,7704.442,0.000,0.000,0.000,0,00:00:00,-334237,0.000,7704.442,32888.629,-40.532,220.953,0.000,0.242,-16.147,0.061,-0.002,-0.004,-0.005,0.000,0.000
60.489,3,0,-1.747,1.290,7709.177,-1.680,1.533,217.062,-0.635,1.269,-16.348,65.000,23.000,0.0108918,9553.494,9144.000,0.724,1.596,7762.078,220.894,327.862,-40.670,8561.054,7711.517,-16.407,0.156,0.216,-0.006,0.024,0.038,0.000,0.000,0.000,-0.024,0.698,0.024,0.716,0.0000000,0.0000000,7726.243,0.000,0.000,0.000,0,00:00:00,-356828,0.000,7726.243,32785.320,-40.672,219.323,0.000,0.315,-16.277,-0.021,0.000,0.001,0.006,0.000,0.000
60.590,3,0,-1.735,1.311,7731.343,-1.661,1.582,215.657,-0.721,1.174,-16.326,65.000,25.000,0.0108918,9540.108,9144.000,0.719,1.460,7784.004,219.262,326.812,-40.812,8582.879,7733.343,-16.380,0.066,0.343,0.003,0.023,0.026,0.000,0.000,0.000,-0.023,0.698,0.024,0.715,0.0000000,0.0000000,7747.877,0.000,0.000,0.000,0,00:00:00,-379426,0.000,7747.877,32682.668,-40.810,217.676,0.000,0.315,-16.498,0.020,0.011,0.001,-0.014,0.000,0.000
60.691,3,0,-1.725,1.335,7753.281,-1.663,1.621,214.167,-0.929,1.089,-16.534,65.000,27.000,0.0108918,9527.385,9144.000,0.714,1.328,7805.765,217.608,325.783,-40.952,8604.299,7754.763,-16.587,-0.044,0.530,-0.006,-0.010,0.003,0.000,0.000,0.000,-0.023,0.698,0.025,0.715,0.0000000,0.0000000,7769.344,0.000,0.000,0.000,0,00:00:00,-402078,0.000,7769.344,32581.180,-40.948,216.013,0.000,0.401,-16.650,-0.028,0.005,0.000,-0.013,0.000,0.000
60.792,3,0,-1.715,1.361,7774.975,-1.659,1.692,212.580,-0.863,1.411,-16.812,65.000,29.000,0.0108918,9514.405,9144.000,0.708,1.385,7827.358,215.927,324.771,-41.089,8625.426,7775.890,-16.885,0.276,0.453,0.011,-0.005,0.024,0.000,0.000,0.000,-0.022,0.698,0.025,0.715,0.0000000,0.0000000,7790.642,0.000,0.000,0.000,0,00:00:00,-424596,0.000,7790.642,32478.541,-41.087,214.335,0.000,0.386,-16.849,-0.017,-0.008,-0.007,-0.002,0.000,0.000
60.893,3,0,-1.705,1.390,7796.484,-1.636,1.727,210.962,-0.668,1.082,-16.947,65.000,31.000,0.0108918,9501.300,9144.000,0.703,1.412,7848.781,214.232,323.751,-41.228,8646.787,7797.251,-16.992,-0.006,0.294,0.032,0.025,-0.020,0.000,0.000,0.000,-0.022,0.699,0.023,0.715,0.0000000,0.0000000,7811.770,0.000,0.000,0.000,0,00:00:00,-447318,0.000,7811.770,32379.377,-41.222,212.645,0.000,0.368,-16.891,-0.067,0.016,0.011,-0.001,0.000,0.000
60.994,3,0,-1.693,1.419,7817.701,-1.598,1.766,209.225,-0.513,1.131,-17.185,65.000,34.000,0.0108918,9482.175,9144.000,0.698,1.271,7870.032,212.514,322.777,-41.361,8667.222,7817.686,-17.229,0.025,0.195,-0.003,0.037,-0.014,0.000,0.000,0.000,-0.022,0.700,0.023,0.713,0.0000000,0.0000000,7832.726,0.000,0.000,0.000,0,00:00:00,-469823,0.000,7832.726,32274.447,-41.365,210.930,0.000,0.368,-17.153,0.063,0.005,-0.000,-0.005,0.000,0.000
61.095,3,0,-1.678,1.450,7838.699,-1.565,1.815,207.461,-0.562,1.247,-17.115,65.000,36.000,0.0108918,9469.950,9144.000,0.692,1.060,7891.112,210.802,321.792,-41.496,8687.951,7838.415,-17.167,0.193,0.250,0.028,0.002,0.002,0.000,0.000,0.000,-0.021,0.700,0.022,0.713,0.0000000,0.0000000,7853.508,0.000,0.000,0.000,0,00:00:00,-492515,0.000,7853.508,32181.062,-41.493,209.206,0.000,0.345,-17.252,0.027,0.003,0.005,-0.008,0.000,0.000
61.196,3,0,-1.663,1.481,7859.472,-1.541,1.848,205.637,-0.639,1.110,-17.374,65.000,38.000,0.0108918,9458.131,9144.000,0.687,1.047,7912.019,209.065,320.820,-41.629,8708.439,7858.903,-17.418,0.073,0.337,0.019,0.008,0.009,0.000,0.000,0.000,-0.020,0.701,0.022,0.713,0.0000000,0.0000000,7874.116,0.000,0.000,0.000,0,00:00:00,-515045,0.000,7874.116,32083.473,-41.627,207.473,0.000,0.302,-17.392,-0.024,-0.013,-0.024,-0.003,0.000,0.000
61.297,3,0,-1.647,1.513,7880.025,-1.515,1.872,203.787,-0.606,1.030,-17.384,65.000,40.000,0.0108918,9446.479,9144.000,0.681,1.000,7932.752,207.327,319.858,-41.761,8728.782,7879.246,-17.422,-0.017,0.308,-0.005,0.001,0.022,0.000,0.000,0.000,-0.020,0.701,0.023,0.713,0.0000000,0.0000000,7894.550,0.000,0.000,0.000,0,00:00:00,-537703,0.000,7894.550,31987.682,-41.758,205.734,0.000,0.367,-17.413,0.032,-0.002,0.005,-0.002,0.000,0.000
61.398,3,0,-1.629,1.543,7900.325,-1.481,1.899,201.872,-0.516,1.081,-17.534,65.000,42.000,0.0108918,9435.350,9144.000,0.676,0.996,7953.309,205.573,318.919,-41.890,8748.678,7899.142,-17.573,0.037,0.234,0.007,0.011,-0.003,0.000,0.000,0.000,-0.020,0.701,0.022,0.712,0.0000000,0.0000000,7914.808,0.000,0.000,0.000,0,00:00:00,-560317,0.000,7914.808,31891.176,-41.891,203.989,0.000,0.340,-17.398,-0.080,0.017,-0.006,-0.006,0.000,0.000
61.499,3,0,-1.612,1.573,7920.433,-1.491,1.912,199.952,-0.950,0.956,-17.586,65.000,44.000,0.0108918,9424.283,9144.000,0.670,0.932,7973.690,203.815,317.972,-42.021,8768.790,7919.253,-17.627,-0.095,0.602,0.001,-0.039,0.043,0.000,0.000,0.000,-0.018,0.700,0.024,0.714,0.0000000,0.0000000,7934.892,0.000,0.000,0.000,0,00:00:00,-582873,0.000,7934.892,31797.189,-42.021,202.239,0.000,0.322,-17.463,0.011,0.015,0.012,-0.017,0.000,0.000
61.600,3,0,-1.597,1.601,7940.392,-1.489,1.928,198.072,-0.816,1.000,-17.527,65.000,46.000,0.0108918,9413.662,9144.000,0.664,1.156,7993.897,202.062,317.022,-42.153,8789.033,7939.497,-17.568,-0.083,0.466,-0.020,-0.003,0.030,0.000,0.000,0.000,-0.018,0.700,0.026,0.714,0.0000000,0.0000000,7954.799,0.000,0.000,0.000,0,00:00:00,-605544,0.000,7954.799,31703.070,-42.152,200.486,0.000,0.360,-17.572,0.007,-0.001,-0.025,0.006,0.000,0.000
61.701,3,0,-1.583,1.628,7960.070,-1.465,1.955,196.116,-0.598,1.120,-17.616,65.000,49.000,0.0108918,9400.439,9144.000,0.659,1.176,8013.927,200.300,316.126,-42.277,8808.149,7958.613,-17.659,0.003,0.249,-0.017,0.000,0.019,0.000,0.000,0.000,-0.018,0.700,0.027,0.714,0.0000000,0.0000000,7974.529,0.000,0.000,0.000,0,00:00:00,-628042,0.000,7974.529,31607.648,-42.284,198.723,0.000,0.252,-17.573,-0.020,0.005,0.003,0.004,0.000,0.000
61.802,3,0,-1.568,1.656,7979.636,-1.462,1.985,194.200,-0.797,1.166,-17.845,65.000,51.000,0.0108918,9391.296,9144.000,0.653,1.177,8033.778,198.516,315.187,-42.408,8828.243,7978.706,-17.896,0.043,0.391,0.006,-0.030,-0.008,0.000,0.000,0.000,-0.018,0.699,0.026,0.715,0.0000000,0.0000000,7994.083,0.000,0.000,0.000,0,00:00:00,-650714,0.000,7994.083,31517.799,-42.409,196.960,0.000,0.335,-17.650,-0.011,0.016,-0.009,0.006,0.000,0.000
61.903,3,0,-1.554,1.682,7998.987,-1.453,1.988,192.280,-0.722,0.914,-17.739,65.000,53.000,0.0108918,9383.135,9144.000,0.647,1.348,8053.452,196.742,314.290,-42.533,8847.468,7997.932,-17.773,-0.185,0.329,0.009,0.008,0.003,0.000,0.000,0.000,-0.017,0.699,0.026,0.715,0.0000000,0.0000000,8013.460,0.000,0.000,0.000,0,00:00:00,-673225,0.000,8013.460,31425.514,-42.538,195.197,0.000,0.323,-17.644,0.104,0.007,-0.016,0.024,0.000,0.000
62.004,3,0,-1.541,1.708,8018.109,-1.445,2.026,190.333,-0.731,1.283,-17.737,65.000,55.000,0.0108918,9375.699,9144.000,0.642,1.303,8072.949,194.968,313.411,-42.656,8866.366,8016.830,-17.795,0.144,0.322,-0.022,-0.012,0.005,0.000,0.000,0.000,-0.018,0.698,0.027,0.715,0.0000000,0.0000000,8032.662,0.000,0.000,0.000,0,00:00:00,-695883,0.000,8032.662,31342.412,-42.654,193.437,0.000,0.299,-17.630,-0.018,0.010,0.014,-0.000,0.000,0.000
62.105,3,0,-1.528,1.734,8037.074,-1.442,2.048,188.424,-0.783,1.126,-17.663,65.000,57.000,0.0108918,9368.333,9144.000,0.636,1.373,8092.269,193.202,312.519,-42.781,8885.581,8036.045,-17.712,-0.068,0.356,-0.032,-0.012,0.044,0.000,0.000,0.000,-0.018,0.698,0.030,0.715,0.0000000,0.0000000,8051.687,0.000,0.000,0.000,0,00:00:00,-718457,0.000,8051.687,31251.613,-42.781,191.679,0.000,0.333,-17.597,0.013,0.009,-0.008,0.004,0.000,0.000
62.206,3,0,-1.517,1.760,8055.862,-1.443,2.073,186.543,-0.803,1.169,-17.484,65.000,59.000,0.0108918,9361.897,9144.000,0.631,1.445,8111.415,191.454,311.645,-42.903,8904.451,8054.915,-17.537,-0.014,0.377,0.001,-0.004,0.023,0.000,0.000,0.000,-0.017,0.698,0.031,0.715,0.0000000,0.0000000,8070.536,0.000,0.000,0.000,0,00:00:00,-741041,0.000,8070.536,31160.088,-42.910,189.925,0.000,0.404,-17.561,0.043,0.003,-0.002,-0.011,0.000,0.000
62.307,3,0,-1.505,1.785,8074.430,-1.410,2.097,184.651,-0.468,1.182,-17.371,65.000,62.000,0.0108918,9354.012,9144.000,0.625,1.466,8130.386,189.717,310.796,-43.023,8922.836,8073.299,-17.417,0.032,0.053,0.011,0.004,0.004,0.000,0.000,0.000,-0.016,0.698,0.030,0.715,0.0000000,0.0000000,8089.210,0.000,0.000,0.000,0,00:00:00,-763659,0.000,8089.210,31079.119,-43.024,188.171,0.000,0.351,-17.645,-0.044,-0.004,0.009,-0.002,0.000,0.000
62.408,3,0,-1.491,1.811,8090.231,-1.378,2.118,180.834,-0.461,1.162,-17.372,65.000,64.000,0.0108918,9348.901,9144.000,0.619,1.444,8149.184,187.979,310.796,-43.023,8922.836,8073.299,-17.417,0.032,0.053,0.011,0.004,0.004,0.000,0.000,0.000,-0.016,0.698,0.030,0.715,0.0000000,0.0000000,8089.210,0.000,0.000,0.000,0,00:00:00,-779064,0.000,8089.210,31079.119,-43.024,188.171,0.000,0.351,-17.645,-0.044,-0.004,0.009,-0.002,0.000,0.000
62.509,3,0,-1.477,1.835,8108.667,-1.372,2.134,179.279,-0.719,1.123,-17.317,65.000,65.000,0.0108918,9323.028,9144.000,0.614,1.422,8167.809,186.248,309.093,-43.263,8959.797,8110.261,-17.364,-0.004,0.395,0.003,0.050,-0.024,0.000,0.000,0.000,-0.016,0.700,0.029,0.713,0.0000000,0.0000000,8126.035,0.000,0.000,0.000,0,00:00:00,-775300,0.000,8126.035,30907.342,-43.266,184.687,0.000,0.346,-17.413,-0.111,-0.001,0.004,-0.016,0.000,0.000
62.610,3,0,-1.464,1.859,8124.384,-1.358,2.148,175.810,-0.636,1.116,-17.321,65.000,65.000,0.0108918,9326.005,9144.000,0.608,1.137,8186.261,184.516,309.093,-43.263,8959.797,8110.261,-17.364,-0.004,0.395,0.003,0.050,-0.024,0.000,0.000,0.000,-0.017,0.702,0.028,0.712,0.0000000,0.0000000,8126.035,0.000,0.000,0.000,0,00:00:00,-775294,0.000,8126.035,30907.342,-43.266,184.687,0.000,0.346,-17.413,-0.111,-0.001,0.004,-0.016,0.000,0.000
62.711,3,0,-1.450,1.882,8142.649,-1.345,2.165,174.548,-0.630,1.158,-16.894,65.000,65.000,0.0108918,9305.960,9144.000,0.603,0.852,8204.543,182.826,307.441,-43.498,8995.831,8146.295,-16.941,0.058,0.374,-0.006,-0.011,-0.020,0.000,0.000,0.000,-0.018,0.701,0.028,0.712,0.0000000,0.0000000,8162.173,0.000,0.000,0.000,0,00:00:00,-775294,0.000,8162.173,30747.932,-43.492,181.263,0.000,0.384,-17.114,0.034,-0.009,-0.006,-0.001,0.000,0.000
62.812,3,0,-1.436,1.903,8160.737,-1.317,2.156,173.243,-0.480,0.907,-16.950,65.000,65.000,0.0108918,9311.520,9144.000,0.598,0.918,8222.656,181.131,306.628,-43.613,9013.618,8164.082,-16.979,-0.151,0.251,0.025,0.018,-0.003,0.000,0.000,0.000,-0.017,0.702,0.027,0.712,0.0000000,0.0000000,8179.989,0.000,0.000,0.000,0,00:00:00,-775294,0.000,8179.989,30663.680,-43.612,179.575,0.000,0.437,-16.930,0.059,0.006,0.019,-0.005,0.000,0.000
62.913,3,0,-1.421,1.922,8178.683,-1.311,2.154,171.964,-0.690,0.995,-16.616,65.000,65.000,0.0108918,9316.578,9144.000,0.592,0.812,8240.603,179.470,305.813,-43.730,9031.495,8181.959,-16.653,-0.022,0.490,0.015,0.013,0.012,0.000,0.000,0.000,-0.016,0.702,0.026,0.711,0.0000000,0.0000000,8197.639,0.000,0.000,0.000,0,00:00:00,-775294,0.000,8197.639,30582.592,-43.728,177.901,0.000,0.277,-16.762,0.066,0.014,0.013,0.007,0.000,0.000
63.014,3,0,-1.407,1.938,8196.389,-1.288,2.149,170.602,-0.507,0.972,-16.601,65.000,65.000,0.0108918,9321.707,9144.000,0.587,0.738,8258.384,177.809,305.038,-43.840,9048.515,8198.978,-16.634,-0.037,0.314,0.002,0.006,-0.024,0.000,0.000,0.000,-0.017,0.703,0.026,0.711,0.0000000,0.0000000,8215.122,0.000,0.000,0.000,0,00:00:00,-775294,0.000,8215.122,30504.775,-43.839,176.243,0.000,0.346,-16.562,0.031,0.002,-0.002,-0.009,0.000,0.000
63.115,3,0,-1.391,1.953,8213.897,-1.253,2.151,169.207,-0.383,1.041,-16.483,65.000,65.000,0.0108918,9325.728,9144.000,0.582,0.703,8276.001,176.161,304.260,-43.952,9065.651,8216.115,-16.519,0.107,0.198,0.039,0.004,-0.027,0.000,0.000,0.000,-0.017,0.703,0.023,0.711,0.0000000,0.0000000,8232.441,0.000,0.000,0.000,0,00:00:00,-775294,0.000,8232.441,30424.334,-43.954,174.599,0.000,0.376,-16.428,-0.029,-0.001,0.008,-0.006,0.000,0.000
63.216,3,0,-1.374,1.966,8231.240,-1.236,2.128,167.824,-0.554,0.803,-16.175,65.000,65.000,0.0108918,9329.191,9144.000,0.576,0.675,8293.455,174.544,303.481,-44.063,9082.832,8233.296,-16.201,-0.103,0.339,0.008,-0.019,0.003,0.000,0.000,0.000,-0.016,0.702,0.023,0.712,0.0000000,0.0000000,8249.599,0.000,0.000,0.000,0,00:00:00,-775294,0.000,8249.599,30346.908,-44.065,172.970,0.000,0.405,-16.272,-0.021,-0.019,0.003,0.005,0.000,0.000
63.317,3,0,-1.357,1.975,8248.401,-1.210,2.112,166.416,-0.463,0.881,-16.110,65.000,65.000,0.0108918,9332.521,9144.000,0.571,0.785,8310.748,172.933,302.717,-44.173,9099.734,8250.198,-16.139,0.013,0.277,0.021,0.015,0.018,0.000,0.000,0.000,-0.015,0.703,0.023,0.711,0.0000000,0.0000000,8266.594,0.000,0.000,0.000,0,00:00:00,-775294,0.000,8266.594,30270.027,-44.176,171.354,0.000,0.301,-16.141,-0.055,0.011,0.008,0.001,0.000,0.000
63.418,3,0,-1.340,1.983,8265.361,-1.197,2.104,164.971,-0.577,0.966,-16.035,65.000,65.000,0.0108918,9335.533,9144.000,0.566,0.696,8327.881,171.329,301.967,-44.281,9116.333,8266.797,-16.068,0.118,0.440,0.013,0.027,0.039,0.000,0.000,0.000,-0.013,0.704,0.024,0.710,0.0000000,0.0000000,8283.430,0.000,0.000,0.000,0,00:00:00,-775294,0.000,8283.430,30195.539,-44.283,169.752,0.000,0.312,-16.083,0.013,0.013,0.005,0.006,0.000,0.000
63.519,3,0,-1.321,1.988,8282.206,-1.142,2.078,163.566,-0.144,0.786,-15.864,65.000,65.000,0.0108918,9337.987,9144.000,0.561,0.539,8344.855,169.743,301.200,-44.392,9133.360,8283.824,-15.884,-0.066,0.040,-0.012,0.022,-0.016,0.000,0.000,0.000,-0.014,0.704,0.024,0.709,0.0000000,0.0000000,8300.107,0.000,0.000,0.000,0,00:00:00,-775294,0.000,8300.107,30125.750,-44.384,168.163,0.000,0.354,-15.983,0.011,-0.008,0.014,0.013,0.000,0.000
63.620,3,0,-1.300,1.991,8298.811,-1.107,2.059,162.098,-0.337,0.864,-15.756,65.000,65.000,0.0108918,9340.693,9144.000,0.556,0.413,8361.672,168.167,300.481,-44.496,9149.362,8299.826,-15.781,-0.031,0.266,-0.030,0.021,-0.016,0.000,0.000,0.000,-0.016,0.705,0.024,0.709,0.0000000,0.0000000,8316.627,0.000,0.000,0.000,0,00:00:00,-775294,0.000,8316.627,30047.311,-44.497,166.587,0.000,0.338,-15.773,0.002,-0.004,-0.018,-0.033,0.000,0.000
63.721,3,0,-1.279,1.991,8315.301,-1.101,2.036,160.677,-0.615,0.821,-15.532,65.000,65.000,0.0108918,9342.532,9144.000,0.551,0.297,8378.333,166.614,299.732,-44.605,9166.047,8316.511,-15.556,-0.088,0.563,-0.015,0.012,-0.001,0.000,0.000,0.000,-0.016,0.706,0.025,0.708,0.0000000,0.0000000,8332.991,0.000,0.000,0.000,0,00:00:00,-775294,0.000,8332.991,29973.367,-44.604,165.024,0.000,0.330,-15.705,0.056,-0.006,-0.013,-0.001,0.000,0.000
63.822,3,0,-1.258,1.991,8331.579,-1.065,2.033,159.220,-0.309,1.017,-15.370,65.000,65.000,0.0108918,9344.737,9144.000,0.546,0.226,8394.841,165.077,299.022,-44.708,9181.902,8332.366,-15.403,0.156,0.299,0.023,0.024,0.013,0.000,0.000,0.000,-0.015,0.706,0.024,0.707,0.0000000,0.0000000,8349.200,0.000,0.000,0.000,0,00:00:00,-775294,0.000,8349.200,29903.691,-44.705,163.474,0.000,0.378,-15.567,0.017,0.006,0.013,0.008,0.000,0.000
63.923,3,0,-1.236,1.989,8347.722,-1.034,2.020,157.780,-0.340,0.909,-15.295,65.000,65.000,0.0108918,9346.379,9144.000,0.541,0.087,8411.196,163.547,298.298,-44.813,9198.114,8348.578,-15.321,0.097,0.343,0.029,0.012,-0.043,0.000,0.000,0.000,-0.016,0.707,0.022,0.707,0.0000000,0.0000000,8365.255,0.000,0.000,0.000,0,00:00:00,-775294,0.000,8365.255,29833.018,-44.808,161.936,0.000,0.340,-15.336,-0.002,-0.008,-0.001,0.007,0.000,0.000
64.024,3,0,-1.214,1.986,8363.661,-1.013,1.996,156.310,-0.434,0.809,-15.145,65.000,65.000,0.0108918,9348.057,9144.000,0.536,0.018,8427.399,162.033,297.603,-44.914,9213.690,8364.153,-15.168,0.049,0.395,0.028,-0.024,-0.051,0.000,0.000,0.000,-0.016,0.706,0.019,0.708,0.0000000,0.0000000,8381.158,0.000,0.000,0.000,0,00:00:00,-775294,0.000,8381.158,29759.924,-44.915,160.409,0.000,0.315,-15.332,0.058,0.012,0.025,0.019,0.000,0.000
64.125,3,0,-1.191,1.982,8379.470,-0.987,1.979,154.866,-0.370,0.872,-15.031,65.000,65.000,0.0108918,9349.213,9144.000,0.531,0.155,8443.452,160.530,296.894,-45.018,9229.614,8380.078,-15.056,0.166,0.330,0.031,-0.001,-0.005,0.000,0.000,0.000,-0.015,0.706,0.018,0.708,0.0000000,0.0000000,8396.909,0.000,0.000,0.000,0,00:00:00,-775294,0.000,8396.909,29687.867,-45.020,158.895,0.000,0.373,-15.126,-0.075,-0.004,0.012,-0.006,0.000,0.000
64.226,3,0,-1.169,1.974,8395.106,-0.966,1.929,153.399,-0.404,0.543,-15.048,65.000,65.000,0.0108918,9350.560,9144.000,0.526,0.161,8459.355,159.025,296.207,-45.118,9245.078,8395.541,-15.058,-0.167,0.368,-0.003,0.004,-0.016,0.000,0.000,0.000,-0.016,0.706,0.017,0.708,0.0000000,0.0000000,8412.511,0.000,0.000,0.000,0,00:00:00,-775294,0.000,8412.511,29621.537,-45.117,157.392,0.000,0.309,-15.060,-0.104,0.003,0.008,0.004,0.000,0.000
64.327,3,0,-1.147,1.964,8410.615,-0.958,1.901,151.964,-0.528,0.760,-14.881,65.000,65.000,0.0108918,9351.520,9144.000,0.522,0.140,8475.108,157.537,295.513,-45.220,9260.712,8411.176,-14.901,0.055,0.490,-0.001,-0.002,0.010,0.000,0.000,0.000,-0.016,0.706,0.018,0.708,0.0000000,0.0000000,8427.964,0.000,0.000,0.000,0,00:00:00,-775294,0.000,8427.964,29556.148,-45.213,155.900,0.000,0.289,-14.862,-0.022,0.009,0.006,-0.011,0.000,0.000
64.428,3,0,-1.127,1.953,8423.826,-0.952,1.874,148.921,-0.530,0.763,-14.880,65.000,65.000,0.0108918,9352.710,9144.000,0.517,0.152,8490.713,156.049,295.513,-45.220,9260.712,8411.176,-14.901,0.055,0.490,-0.001,-0.002,0.010,0.000,0.000,0.000,-0.016,0.706,0.018,0.708,0.0000000,0.0000000,8427.964,0.000,0.000,0.000,0,00:00:00,-775294,0.000,8427.964,29556.148,-45.213,155.900,0.000,0.289,-14.862,-0.022,0.009,0.006,-0.011,0.000,0.000
64.529,3,0,-1.107,1.939,8439.114,-0.928,1.828,147.676,-0.342,0.562,-14.715,65.000,65.000,0.0108918,9335.246,9144.000,0.512,0.164,8506.171,154.577,294.190,-45.415,9290.627,8441.091,-14.724,-0.115,0.383,0.016,0.054,0.028,0.000,0.000,0.000,-0.014,0.708,0.018,0.706,0.0000000,0.0000000,8458.425,0.000,0.000,0.000,0,00:00:00,-775294,0.000,8458.425,29416.746,-45.418,152.949,0.000,0.314,-14.783,0.070,0.016,-0.003,0.001,0.000,0.000
64.630,3,0,-1.086,1.923,8454.239,-0.882,1.796,146.409,-0.113,0.690,-14.644,65.000,65.000,0.0108918,9338.239,9144.000,0.507,-0.148,8521.482,153.113,293.533,-45.512,9305.524,8455.988,-14.660,0.010,0.179,-0.005,0.018,-0.036,0.000,0.000,0.000,-0.016,0.708,0.017,0.705,0.0000000,0.0000000,8473.437,0.000,0.000,0.000,0,00:00:00,-775294,0.000,8473.437,29348.693,-45.518,151.489,0.000,0.264,-14.627,-0.065,0.016,-0.009,0.001,0.000,0.000
64.731,3,0,-1.063,1.905,8469.215,-0.847,1.753,145.134,-0.222,0.575,-14.572,65.000,65.000,0.0108918,9340.867,9144.000,0.502,-0.249,8536.648,151.656,292.879,-45.608,9320.364,8470.828,-14.582,-0.120,0.263,-0.013,-0.016,-0.008,0.000,0.000,0.000,-0.016,0.708,0.017,0.706,0.0000000,0.0000000,8488.304,0.000,0.000,0.000,0,00:00:00,-775294,0.000,8488.304,29289.088,-45.606,150.040,0.000,0.284,-14.582,0.026,-0.009,0.017,0.001,0.000,0.000
64.832,3,0,-1.040,1.885,8484.067,-0.822,1.715,143.882,-0.297,0.615,-14.365,65.000,65.000,0.0108918,9343.274,9144.000,0.498,-0.159,8551.670,150.219,292.226,-45.705,9335.237,8485.701,-14.376,-0.065,0.354,0.003,0.013,-0.048,0.000,0.000,0.000,-0.018,0.708,0.016,0.705,0.0000000,0.0000000,8503.026,0.000,0.000,0.000,0,00:00:00,-775294,0.000,8503.026,29222.072,-45.705,148.601,0.000,0.345,-14.463,0.005,-0.015,0.001,0.013,0.000,0.000
64.933,3,0,-1.016,1.863,8498.778,-0.788,1.678,142.627,-0.194,0.613,-14.286,65.000,65.000,0.0108918,9345.829,9144.000,0.493,-0.233,8566.549,148.791,291.584,-45.800,9349.860,8500.323,-14.297,-0.065,0.298,-0.001,0.033,0.015,0.000,0.000,0.000,-0.017,0.709,0.016,0.704,0.0000000,0.0000000,8517.606,0.000,0.000,0.000,0,00:00:00,-775294,0.000,8517.606,29155.654,-45.804,147.172,0.000,0.368,-14.275,-0.019,0.011,0.012,-0.011,0.000,0.000
65.034,3,0,-0.991,1.841,8513.283,-0.749,1.658,141.323,-0.132,0.776,-14.188,65.000,65.000,0.0108918,9348.216,9144.000,0.489,-0.420,8581.286,147.372,290.970,-45.891,9363.873,8514.337,-14.208,0.052,0.215,-0.035,-0.012,-0.037,0.000,0.000,0.000,-0.020,0.709,0.016,0.705,0.0000000,0.0000000,8532.045,0.000,0.000,0.000,0,00:00:00,-775294,0.000,8532.045,29095.836,-45.893,145.753,0.000,0.442,-14.121,0.018,-0.013,0.002,-0.003,0.000,0.000
65.135,3,0,-0.965,1.819,8527.754,-0.707,1.646,140.100,-0.092,0.838,-14.107,65.000,65.000,0.0108918,9349.970,9144.000,0.484,-0.353,8595.882,145.961,290.311,-45.989,9378.945,8529.409,-14.131,0.142,0.175,0.016,-0.001,0.012,0.000,0.000,0.000,-0.019,0.709,0.016,0.705,0.0000000,0.0000000,8546.342,0.000,0.000,0.000,0,00:00:00,-775294,0.000,8546.342,29030.357,-45.990,144.344,0.000,0.331,-14.115,-0.000,0.001,0.013,0.006,0.000,0.000
65.236,3,0,-0.937,1.799,8542.019,-0.667,1.639,138.826,-0.102,0.870,-13.983,65.000,65.000,0.0108918,9352.502,9144.000,0.479,-0.349,8610.338,144.563,289.711,-46.078,9392.698,8543.161,-14.008,0.164,0.224,-0.011,0.027,0.015,0.000,0.000,0.000,-0.019,0.710,0.017,0.704,0.0000000,0.0000000,8560.498,0.000,0.000,0.000,0,00:00:00,-775294,0.000,8560.498,28972.691,-46.076,142.943,0.000,0.408,-14.068,0.059,0.006,-0.012,-0.003,0.000,0.000
65.337,3,0,-0.909,1.779,8556.098,-0.648,1.623,137.511,-0.282,0.784,-13.981,65.000,65.000,0.0108918,9354.351,9144.000,0.475,-0.506,8624.655,143.165,289.113,-46.168,9406.427,8556.890,-14.001,0.061,0.375,-0.013,-0.022,0.013,0.000,0.000,0.000,-0.019,0.709,0.018,0.705,0.0000000,0.0000000,8574.517,0.000,0.000,0.000,0,00:00:00,-775294,0.000,8574.517,28906.234,-46.175,141.552,0.000,0.409,-14.009,0.028,0.011,0.016,-0.001,0.000,0.000
65.438,3,0,-0.882,1.760,8568.090,-0.632,1.611,134.735,-0.312,0.803,-13.980,65.000,65.000,0.0108918,9355.687,9144.000,0.470,-0.381,8638.831,141.767,289.113,-46.168,9406.427,8556.890,-14.001,0.061,0.375,-0.013,-0.022,0.013,0.000,0.000,0.000,-0.019,0.708,0.019,0.705,0.0000000,0.0000000,8574.517,0.000,0.000,0.000,0,00:00:00,-775294,0.000,8574.517,28906.234,-46.175,141.552,0.000,0.409,-14.009,0.028,0.011,0.016,-0.001,0.000,0.000
65.539,3,0,-0.857,1.742,8578.160,-0.621,1.601,130.733,-0.341,0.821,-13.978,65.000,65.000,0.0108918,9340.626,9144.000,0.466,-0.256,8652.868,140.369,289.113,-46.168,9406.427,8556.890,-14.001,0.061,0.375,-0.013,-0.022,0.013,0.000,0.000,0.000,-0.019,0.708,0.020,0.706,0.0000000,0.0000000,8574.517,0.000,0.000,0.000,0,00:00:00,-775294,0.000,8574.517,28906.234,-46.175,141.552,0.000,0.409,-14.009,0.028,0.011,0.016,-0.001,0.000,0.000
65.640,3,0,-0.833,1.724,8592.276,-0.615,1.577,130.104,-0.378,0.669,-13.480,65.000,65.000,0.0108918,9311.993,9144.000,0.461,-0.131,8666.770,139.021,287.315,-46.437,9447.829,8598.293,-13.496,-0.068,0.422,-0.003,0.009,-0.004,0.000,0.000,0.000,-0.019,0.708,0.020,0.706,0.0000000,0.0000000,8615.743,0.000,0.000,0.000,0,00:00:00,-775294,0.000,8615.743,28731.406,-46.437,137.433,0.000,0.351,-13.709,0.097,0.014,-0.009,-0.006,0.000,0.000
65.741,3,0,-0.811,1.706,8606.256,-0.610,1.573,129.420,-0.372,0.858,-13.494,65.000,65.000,0.0108918,9320.232,9144.000,0.457,-0.185,8680.538,137.672,286.729,-46.525,9461.366,8611.829,-13.517,0.142,0.464,0.017,0.033,0.026,0.000,0.000,0.000,-0.017,0.709,0.020,0.704,0.0000000,0.0000000,8629.213,0.000,0.000,0.000,0,00:00:00,-775294,0.000,8629.213,28675.984,-46.520,136.077,0.000,0.291,-13.538,-0.097,-0.009,0.011,-0.010,0.000,0.000
65.842,3,0,-0.790,1.690,8620.015,-0.590,1.567,128.627,-0.224,0.826,-13.447,65.000,65.000,0.0108918,9327.791,9144.000,0.453,-0.376,8694.170,136.327,286.175,-46.608,9474.191,8624.655,-13.470,0.141,0.297,0.021,-0.014,0.012,0.000,0.000,0.000,-0.016,0.709,0.020,0.705,0.0000000,0.0000000,8642.548,0.000,0.000,0.000,0,00:00:00,-775294,0.000,8642.548,28613.498,-46.614,134.729,0.000,0.432,-13.551,0.005,0.000,-0.007,0.005,0.000,0.000
65.943,3,0,-0.769,1.673,8633.671,-0.571,1.530,127.826,-0.210,0.518,-13.348,65.000,65.000,0.0108918,9334.125,9144.000,0.448,-0.294,8707.670,134.992,285.592,-46.696,9487.701,8638.164,-13.356,-0.129,0.292,0.024,0.008,-0.003,0.000,0.000,0.000,-0.016,0.709,0.019,0.705,0.0000000,0.0000000,8655.749,0.000,0.000,0.000,0,00:00:00,-775294,0.000,8655.749,28555.055,-46.703,133.389,0.000,0.324,-13.560,0.038,0.012,-0.007,0.015,0.000,0.000
66.044,3,0,-0.749,1.655,8647.096,-0.574,1.504,126.921,-0.431,0.609,-13.264,65.000,65.000,0.0108918,9340.273,9144.000,0.444,-0.339,8721.036,133.666,285.054,-46.777,9500.204,8650.667,-13.274,-0.060,0.529,-0.019,0.014,-0.017,0.000,0.000,0.000,-0.017,0.709,0.019,0.704,0.0000000,0.0000000,8668.816,0.000,0.000,0.000,0,00:00:00,-775294,0.000,8668.816,28500.963,-46.784,132.058,0.000,0.415,-13.322,0.033,-0.017,0.004,0.010,0.000,0.000
66.145,3,0,-0.730,1.637,8660.406,-0.559,1.509,126.001,-0.228,0.907,-13.249,65.000,65.000,0.0108918,9345.205,9144.000,0.440,-0.416,8734.270,132.341,284.488,-46.863,9513.371,8663.835,-13.275,0.239,0.363,0.000,0.026,0.017,0.000,0.000,0.000,-0.016,0.710,0.019,0.703,0.0000000,0.0000000,8681.751,0.000,0.000,0.000,0,00:00:00,-775294,0.000,8681.751,28448.004,-46.864,130.735,0.000,0.305,-13.342,-0.003,0.003,-0.017,-0.012,0.000,0.000
66.246,3,0,-0.712,1.621,8673.581,-0.538,1.499,125.063,-0.170,0.757,-13.093,65.000,65.000,0.0108918,9349.903,9144.000,0.435,-0.565,8747.373,131.031,283.933,-46.947,9526.281,8676.744,-13.112,0.114,0.289,0.013,-0.011,0.012,0.000,0.000,0.000,-0.015,0.710,0.019,0.704,0.0000000,0.0000000,8694.555,0.000,0.000,0.000,0,00:00:00,-775294,0.000,8694.555,28393.227,-46.947,129.419,0.000,0.332,-13.218,-0.071,0.016,-0.009,0.016,0.000,0.000
66.347,3,0,-0.694,1.605,8686.574,-0.519,1.467,124.046,-0.179,0.523,-13.252,65.000,65.000,0.0108918,9354.351,9144.000,0.431,-0.503,8760.344,129.706,283.399,-47.028,9538.745,8689.209,-13.259,-0.099,0.315,0.021,0.013,-0.010,0.000,0.000,0.000,-0.015,0.711,0.018,0.703,0.0000000,0.0000000,8707.227,0.000,0.000,0.000,0,00:00:00,-775294,0.000,8707.227,28340.641,-47.027,128.111,0.000,0.443,-13.109,0.038,0.014,-0.003,0.010,0.000,0.000
66.448,3,0,-0.676,1.587,8699.403,-0.520,1.441,123.012,-0.363,0.586,-12.940,65.000,65.000,0.0108918,9357.868,9144.000,0.427,-0.579,8773.185,128.412,282.867,-47.109,9551.185,8701.649,-12.950,0.012,0.468,0.027,-0.023,-0.002,0.000,0.000,0.000,-0.014,0.710,0.017,0.704,0.0000000,0.0000000,8719.769,0.000,0.000,0.000,0,00:00:00,-775294,0.000,8719.769,28286.971,-47.109,126.810,0.000,0.224,-13.038,-0.073,0.007,-0.008,0.011,0.000,0.000
66.549,3,0,-0.661,1.570,8712.146,-0.527,1.443,121.990,-0.421,0.838,-12.964,65.000,65.000,0.0108918,9361.127,9144.000,0.423,-0.450,8785.897,127.116,282.317,-47.193,9564.043,8714.507,-12.986,0.265,0.505,0.001,-0.016,-0.011,0.000,0.000,0.000,-0.014,0.709,0.017,0.705,0.0000000,0.0000000,8732.180,0.000,0.000,0.000,0,00:00:00,-775294,0.000,8732.180,28233.482,-47.190,125.517,0.000,0.323,-13.045,0.013,0.032,-0.010,0.008,0.000,0.000
66.650,3,0,-0.646,1.553,8724.691,-0.507,1.405,120.890,-0.139,0.441,-13.048,65.000,65.000,0.0108918,9364.454,9144.000,0.418,-0.360,8798.478,125.811,281.806,-47.270,9576.011,8726.475,-13.054,-0.149,0.202,-0.011,-0.015,-0.026,0.000,0.000,0.000,-0.016,0.709,0.016,0.705,0.0000000,0.0000000,8744.463,0.000,0.000,0.000,0,00:00:00,-775294,0.000,8744.463,28178.617,-47.274,124.231,0.000,0.330,-12.941,-0.065,-0.023,0.006,-0.005,0.000,0.000
66.751,3,0,-0.632,1.535,8737.062,-0.505,1.389,119.764,-0.315,0.647,-12.818,65.000,65.000,0.0108918,9366.848,9144.000,0.414,-0.273,8810.931,124.529,281.296,-47.348,9587.985,8738.449,-12.832,0.056,0.414,-0.009,0.030,-0.007,0.000,0.000,0.000,-0.016,0.710,0.016,0.704,0.0000000,0.0000000,8756.618,0.000,0.000,0.000,0,00:00:00,-775294,0.000,8756.618,28129.865,-47.348,122.951,0.000,0.365,-12.878,-0.020,-0.005,0.005,-0.006,0.000,0.000
66.852,3,0,-0.619,1.518,8749.283,-0.520,1.375,118.612,-0.473,0.659,-12.822,65.000,65.000,0.0108918,9368.867,9144.000,0.410,-0.442,8823.255,123.247,280.785,-47.426,9599.991,8750.454,-12.834,0.070,0.586,0.001,0.010,0.022,0.000,0.000,0.000,-0.015,0.710,0.017,0.704,0.0000000,0.0000000,8768.646,0.000,0.000,0.000,0,00:00:00,-775294,0.000,8768.646,28081.775,-47.421,121.679,0.000,0.340,-12.698,0.020,-0.007,-0.005,0.001,0.000,0.000
66.953,3,0,-0.608,1.500,8761.338,-0.514,1.364,117.425,-0.262,0.682,-12.787,65.000,65.000,0.0108918,9370.548,9144.000,0.406,-0.498,8835.452,121.968,280.287,-47.503,9611.732,8762.195,-12.803,0.064,0.367,-0.023,-0.007,0.003,0.000,0.000,0.000,-0.016,0.710,0.018,0.704,0.0000000,0.0000000,8780.546,0.000,0.000,0.000,0,00:00:00,-775294,0.000,8780.546,28030.062,-47.501,120.414,0.000,0.397,-12.701,0.090,-0.003,0.001,0.005,0.000,0.000
67.054,3,0,-0.598,1.483,8773.260,-0.508,1.341,116.227,-0.255,0.555,-12.808,65.000,65.000,0.0108918,9371.805,9144.000,0.402,-0.461,8847.521,120.687,279.784,-47.580,9623.583,8774.047,-12.818,-0.071,0.334,-0.005,-0.021,0.020,0.000,0.000,0.000,-0.016,0.709,0.019,0.705,0.0000000,0.0000000,8792.320,0.000,0.000,0.000,0,00:00:00,-775294,0.000,8792.320,27976.156,-47.583,119.155,0.000,0.301,-12.629,0.026,0.001,-0.001,-0.001,0.000,0.000
67.155,3,0,-0.588,1.466,8785.001,-0.500,1.321,114.994,-0.229,0.568,-12.698,65.000,65.000,0.0108918,9372.892,9144.000,0.397,-0.343,8859.463,119.418,279.303,-47.654,9634.943,8785.407,-12.709,-0.015,0.313,0.029,0.005,-0.018,0.000,0.000,0.000,-0.015,0.709,0.017,0.705,0.0000000,0.0000000,8803.969,0.000,0.000,0.000,0,00:00:00,-775294,0.000,8803.969,27926.711,-47.659,117.903,0.000,0.381,-12.644,-0.012,-0.010,-0.007,-0.016,0.000,0.000
67.256,3,0,-0.579,1.448,8796.677,-0.500,1.297,113.827,-0.298,0.525,-12.480,65.000,65.000,0.0108918,9373.486,9144.000,0.393,-0.370,8871.280,118.170,278.793,-47.732,9646.986,8797.450,-12.488,0.006,0.401,0.045,0.016,0.028,0.000,0.000,0.000,-0.013,0.710,0.017,0.704,0.0000000,0.0000000,8815.492,0.000,0.000,0.000,0,00:00:00,-775294,0.000,8815.492,27882.193,-47.728,116.658,0.000,0.363,-12.492,0.087,-0.022,-0.004,-0.003,0.000,0.000
67.357,3,0,-0.569,1.429,8808.204,-0.477,1.262,112.632,-0.074,0.412,-12.532,65.000,65.000,0.0108918,9374.696,9144.000,0.389,-0.461,8882.971,116.916,278.314,-47.806,9658.321,8808.784,-12.538,-0.100,0.152,0.006,-0.021,0.010,0.000,0.000,0.000,-0.012,0.709,0.017,0.705,0.0000000,0.0000000,8826.892,0.000,0.000,0.000,0,00:00:00,-775294,0.000,8826.892,27831.918,-47.805,115.418,0.000,0.417,-12.411,0.055,-0.002,-0.017,0.011,0.000,0.000
67.458,3,0,-0.559,1.409,8819.541,-0.478,1.232,111.396,-0.301,0.438,-12.418,65.000,65.000,0.0108918,9375.579,9144.000,0.385,-0.344,8894.539,115.675,277.854,-47.877,9669.223,8819.687,-12.424,-0.025,0.357,0.037,-0.018,0.012,0.000,0.000,0.000,-0.010,0.709,0.016,0.705,0.0000000,0.0000000,8838.167,0.000,0.000,0.000,0,00:00:00,-775294,0.000,8838.167,27783.373,-47.880,114.185,0.000,0.351,-12.466,0.082,-0.009,-0.023,-0.012,0.000,0.000
