State - Time (s),State - Stage,State - Stage,State - PX (m),State - PY (m),State - PZ (m),State - VX (m/s),State - VY (m/s),State - VZ (m/s),State - AX (m/s/s),State - AY (m/s/s),State - AZ (m/s/s),State - Actuation Angle (deg),State - Acutal Angle (deg),State - CdA,State - Est Apo (m),State - Target Apogee (m),State - Mach Number,State - Tilt [deg],State - Pos - Accel Integrated [m],State - Velo - Accel Integrated [m/s],MockBarometer - Pres (hPa),MockBarometer - Temp (C),MockBarometer - Alt ASL (m),MockBarometer - Alt AGL (m),MockIMU - AccX (m/s^2),MockIMU - AccY (m/s^2),MockIMU - AccZ (m/s^2),MockIMU - GyroX (rad/s),MockIMU - GyroY (rad/s),MockIMU - GyroZ (rad/s),MockIMU - MagX (uT),MockIMU - MagY (uT),MockIMU - MagZ (uT),MockIMU - OriX,MockIMU - OriY,MockIMU - OriZ,MockIMU - OriW,MockGPS - Lat,MockGPS - Lon,MockGPS - Alt (m),MockGPS - Disp X (m),MockGPS - Disp Y (m),MockGPS - Disp Z (m),MockGPS - Fix Quality,MockGPS - Time of Day,E5 - Rel Steps,MockBR - Battery Voltage (V),MockBR - ALT (m),MockBR - PRES (Pa),MockBR - TEMP (C),MockBR - VEL (m/s),MockBR - ANG (deg),MockBR - ACCX (m/s^2),MockBR - ACCY (m/s^2),MockBR - ACCZ (m/s^2),MockBR - GYROX (rad/s),MockBR - GYROY (rad/s),MockBR - GYROZ (rad/s),MockBR - ROLL (deg),MockBR - TILT (deg)
24.028,0,0,-2109.210,9.857,-1890.952,-175.563,0.820,-157.396,-7.307,0.034,-6.551,0.000,0.000,0.0116870,0.000,9144.000,0.522,4.000,0.033,0.326,915.217,9.475,849.669,0.000,-9.807,0.034,0.355,-0.016,-0.004,-0.001,0.000,0.000,0.000,0.001,0.374,0.000,0.927,0.0000000,0.0000000,0.000,0.000,0.000,0.000,0,00:00:00,-1019,0.000,0.000,91520.703,9.474,0.000,0.000,0.395,-9.791,0.056,-0.006,0.003,-0.012,0.000,0.000
24.129,0,0,-0.102,0.000,-0.111,1.025,-0.007,0.411,-4.396,0.003,-8.983,0.000,0.000,0.0116870,0.000,9144.000,0.003,46.049,0.073,0.409,915.237,9.476,849.484,-0.092,-9.994,0.009,0.352,0.005,-0.009,0.006,0.000,0.000,0.000,0.001,0.544,0.000,0.839,0.0000000,0.0000000,0.000,0.000,0.000,0.000,0,00:00:00,-1019,0.000,0.000,91535.391,9.483,0.000,0.000,0.339,-9.838,0.068,-0.007,-0.008,0.008,0.000,0.000
24.230,0,0,-0.005,-0.000,-0.037,0.796,-0.007,-0.549,-2.270,-0.003,-9.563,0.000,0.000,0.0116870,0.000,9144.000,0.003,24.059,0.117,0.433,915.220,9.475,849.640,0.042,-9.828,-0.008,0.147,-0.008,-0.011,0.018,0.000,0.000,0.000,0.000,0.626,0.001,0.780,0.0000000,0.0000000,0.000,0.000,0.000,0.000,0,00:00:00,-1019,0.000,0.000,91522.078,9.475,0.000,0.000,0.252,-9.907,0.082,0.008,0.004,0.013,0.000,0.000
24.331,0,0,0.045,-0.001,-0.165,0.644,-0.011,-1.533,-1.490,-0.045,-9.731,0.000,0.000,0.0116870,0.000,9144.000,0.002,12.492,0.161,0.441,915.255,9.477,849.320,-0.208,-9.841,-0.085,0.274,-0.039,-0.023,-0.018,0.000,0.000,0.000,-0.003,0.662,-0.000,0.750,0.0000000,0.0000000,0.000,0.000,0.000,0.000,0,00:00:00,-1019,0.000,0.000,91518.258,9.473,0.000,0.000,0.245,-9.776,-0.041,-0.004,0.010,0.011,0.000,0.000
24.432,0,0,0.078,-0.001,-0.243,0.534,0.000,-2.512,-1.069,0.115,-9.812,0.000,0.000,0.0116870,0.000,9144.000,0.002,7.111,0.205,0.441,915.215,9.475,849.682,0.123,-9.866,0.058,0.300,-0.014,-0.018,0.006,0.000,0.000,0.000,-0.002,0.679,0.002,0.734,0.0000000,0.0000000,0.000,0.000,0.000,0.000,0,00:00:00,-1019,0.000,0.000,91514.078,9.470,0.000,0.000,0.354,-9.814,-0.002,-0.002,0.000,-0.011,0.000,0.000
24.533,0,0,0.100,-0.000,-0.422,0.428,0.007,-3.502,-1.029,0.062,-9.934,0.000,0.000,0.0116870,0.000,9144.000,0.002,4.478,0.248,0.429,915.221,9.475,849.629,0.058,-9.978,0.047,0.429,0.042,0.004,-0.015,0.000,0.000,0.000,0.000,0.685,0.001,0.728,0.0000000,0.0000000,0.000,0.000,0.000,0.000,0,00:00:00,-1019,0.000,0.000,91526.766,9.478,0.000,0.000,0.444,-9.807,0.038,-0.004,-0.005,-0.003,0.000,0.000
24.634,0,0,0.115,0.000,-0.692,0.348,0.004,-4.474,-0.763,-0.028,-9.806,0.000,0.000,0.0116870,0.000,9144.000,0.002,3.458,0.291,0.429,915.236,9.476,849.497,-0.063,-9.830,-0.024,0.311,0.017,-0.003,-0.012,0.000,0.000,0.000,-0.000,0.691,-0.000,0.723,0.0000000,0.0000000,0.000,0.000,0.000,0.000,0,00:00:00,-1019,0.000,0.000,91520.945,9.474,0.000,0.000,0.444,-9.808,-0.004,0.007,0.011,-0.007,0.000,0.000
24.735,0,0,0.124,0.001,-1.029,0.256,0.026,-5.434,-0.893,0.216,-9.785,0.000,0.000,0.0116870,0.000,9144.000,0.001,2.641,0.334,0.432,915.244,9.476,849.423,-0.120,-9.816,0.221,0.449,0.006,0.007,-0.012,0.000,0.000,0.000,0.004,0.691,0.003,0.723,0.0000000,0.0000000,0.000,0.000,0.000,0.000,0,00:00:00,-1019,0.000,0.000,91529.836,9.480,0.000,0.000,0.323,-9.868,0.000,-0.011,-0.002,0.005,0.000,0.000
24.836,0,0,0.127,0.004,-1.440,0.184,0.038,-6.378,-0.692,0.125,-9.743,0.000,0.000,0.0116870,0.000,9144.000,0.001,2.609,0.378,0.438,915.263,9.478,849.251,-0.259,-9.762,0.144,0.315,0.014,0.002,0.038,0.000,0.000,0.000,0.006,0.693,0.004,0.721,0.0000000,0.0000000,0.000,0.000,0.000,0.000,0,00:00:00,-1019,0.000,0.000,91519.141,9.473,0.000,0.000,0.262,-9.855,-0.008,-0.008,0.002,0.004,0.000,0.000
24.937,0,0,0.124,0.007,-1.836,0.092,0.041,-7.272,-0.889,0.025,-9.645,0.000,0.000,0.0116870,0.000,9144.000,0.001,2.223,0.423,0.455,915.207,9.474,849.760,0.224,-9.675,0.072,0.460,0.031,-0.024,-0.010,0.000,0.000,0.000,0.006,0.691,0.002,0.723,0.0000000,0.0000000,0.000,0.000,0.000,0.000,0,00:00:00,-1020,0.000,0.000,91522.461,9.475,0.000,0.000,0.395,-9.767,0.024,-0.009,0.001,0.000,0.000,0.000
25.038,0,0,0.116,0.010,-2.328,0.021,0.035,-8.154,-0.682,-0.055,-9.701,0.000,0.000,0.0116870,0.000,9144.000,0.001,2.542,0.470,0.466,915.249,9.477,849.381,-0.155,-9.720,-0.011,0.307,-0.009,-0.011,-0.009,0.000,0.000,0.000,0.003,0.693,-0.000,0.721,0.0000000,0.0000000,0.000,0.000,0.000,0.000,0,00:00:00,-1020,0.000,0.000,91517.266,9.472,0.000,0.000,0.323,-9.864,-0.063,-0.003,0.024,0.005,0.000,0.000
25.139,0,0,0.102,0.011,-2.836,-0.063,0.012,-9.011,-0.815,-0.223,-9.946,0.000,0.000,0.0116870,0.000,9144.000,0.001,2.207,0.515,0.452,915.227,9.475,849.576,0.041,-9.972,-0.158,0.408,0.014,-0.028,-0.039,0.000,0.000,0.000,-0.001,0.692,-0.005,0.721,0.0000000,0.0000000,0.000,0.000,0.000,0.000,0,00:00:00,-1020,0.000,0.000,91523.008,9.476,0.000,0.000,0.356,-9.717,0.013,0.007,-0.004,0.005,0.000,0.000
25.240,0,0,0.083,0.010,-3.409,-0.134,0.002,-9.832,-0.687,-0.096,-9.936,0.000,0.000,0.0116870,0.000,9144.000,0.001,2.355,0.559,0.439,915.261,9.477,849.268,-0.267,-9.955,-0.006,0.320,0.030,-0.004,0.040,0.000,0.000,0.000,0.002,0.694,-0.004,0.720,0.0000000,0.0000000,0.000,0.000,0.000,0.000,0,00:00:00,-1020,0.000,0.000,91514.797,9.471,0.000,0.000,0.330,-9.777,0.063,0.007,-0.004,-0.007,0.000,0.000
25.341,0,0,0.060,0.009,-3.996,-0.219,-0.010,-10.591,-0.832,-0.126,-9.956,0.000,0.000,0.0116870,0.000,9144.000,0.001,2.113,0.601,0.425,915.258,9.477,849.299,-0.237,-9.982,-0.030,0.433,0.002,0.001,-0.045,0.000,0.000,0.000,0.002,0.693,-0.005,0.721,0.0000000,0.0000000,0.000,0.000,0.000,0.000,0,00:00:00,-1020,0.000,0.000,91529.719,9.480,0.000,0.000,0.331,-9.838,0.013,-0.008,-0.015,-0.016,0.000,0.000
25.442,0,0,0.032,0.007,-4.552,-0.278,-0.025,-11.258,-0.577,-0.138,-9.965,0.000,0.000,0.0116870,0.000,9144.000,0.001,2.296,0.642,0.409,915.222,9.475,849.619,0.084,-9.980,-0.025,0.248,0.019,-0.012,0.000,0.000,0.000,0.000,0.003,0.695,-0.005,0.719,0.0000000,0.0000000,0.000,0.000,0.000,0.000,0,00:00:00,-1020,0.000,0.000,91530.859,9.480,0.000,0.000,0.259,-9.715,-0.009,0.011,0.011,-0.016,0.000,0.000
25.543,0,0,0.001,0.003,-5.101,-0.332,-0.041,-11.846,-0.542,-0.157,-9.967,0.000,0.000,0.0116870,0.000,9144.000,0.002,1.894,0.682,0.394,915.222,9.475,849.619,0.084,-9.980,-0.025,0.248,0.019,-0.012,0.000,0.000,0.000,0.000,0.004,0.697,-0.006,0.717,0.0000000,0.0000000,0.000,0.000,0.000,0.000,0,00:00:00,-1020,0.000,0.000,91530.859,9.480,0.000,0.000,0.259,-9.715,-0.009,0.011,0.011,-0.016,0.000,0.000
25.644,0,0,-0.033,-0.001,-5.650,-0.394,-0.035,-12.330,-0.619,0.052,-9.610,0.000,0.000,0.0116870,0.000,9144.000,0.002,1.693,0.723,0.414,915.245,9.477,849.416,-0.119,-9.623,0.180,0.318,0.003,-0.001,-0.019,0.000,0.000,0.000,0.007,0.696,-0.002,0.718,0.0000000,0.0000000,0.000,0.000,0.000,0.000,0,00:00:00,-1020,0.000,0.000,91523.047,9.476,0.000,0.000,0.385,-9.799,0.010,0.002,0.002,-0.018,0.000,0.000
25.745,0,0,-0.070,-0.005,-6.153,-0.462,-0.057,-12.742,-0.687,-0.220,-9.849,0.000,0.000,0.0116870,0.000,9144.000,0.002,1.795,0.764,0.410,915.233,9.476,849.518,-0.017,-9.869,-0.062,0.358,0.027,0.011,0.036,0.000,0.000,0.000,0.006,0.695,-0.005,0.719,0.0000000,0.0000000,0.000,0.000,0.000,0.000,0,00:00:00,-1020,0.000,0.000,91529.727,9.480,0.000,0.000,0.499,-9.801,0.024,0.017,-0.000,0.003,0.000,0.000
25.846,0,0,-0.111,-0.010,-6.649,-0.525,-0.055,-13.081,-0.653,0.018,-9.685,0.000,0.000,0.0116870,0.000,9144.000,0.002,1.905,0.806,0.422,915.269,9.478,849.197,-0.339,-9.700,0.147,0.327,-0.024,-0.002,0.007,0.000,0.000,0.000,0.008,0.695,-0.002,0.719,0.0000000,0.0000000,0.000,0.000,0.000,0.000,0,00:00:00,-1020,0.000,0.000,91517.312,9.472,0.000,0.000,0.285,-9.777,0.077,0.014,-0.007,0.024,0.000,0.000
25.947,0,0,-0.154,-0.015,-7.075,-0.582,-0.067,-13.336,-0.611,-0.120,-9.822,0.000,0.000,0.0116870,0.000,9144.000,0.002,1.925,0.848,0.421,915.253,9.477,849.344,-0.192,-9.837,0.021,0.294,0.010,-0.006,0.023,0.000,0.000,0.000,0.007,0.696,-0.003,0.718,0.0000000,0.0000000,0.000,0.000,0.000,0.000,0,00:00:00,-1020,0.000,0.000,91512.953,9.470,0.000,0.000,0.376,-9.814,-0.003,-0.001,-0.007,0.015,0.000,0.000
26.048,0,0,-0.200,-0.020,-7.415,-0.650,-0.070,-13.489,-0.743,-0.037,-9.798,0.000,0.000,0.0116870,0.000,9144.000,0.002,1.838,0.891,0.422,915.229,9.476,849.560,0.053,-9.818,0.076,0.394,-0.027,0.011,0.014,0.000,0.000,0.000,0.007,0.694,-0.002,0.720,0.0000000,0.0000000,0.000,0.000,0.000,0.000,0,00:00:00,-1020,0.000,0.000,91523.477,9.476,0.000,0.000,0.336,-9.784,-0.012,-0.020,0.004,-0.013,0.000,0.000
26.149,0,0,-0.250,-0.025,-7.716,-0.737,-0.059,-13.593,-0.946,0.105,-9.824,0.000,0.000,0.0116870,0.000,9144.000,0.003,2.038,0.933,0.421,915.242,9.476,849.441,-0.075,-9.854,0.203,0.524,-0.012,0.026,-0.015,0.000,0.000,0.000,0.009,0.692,0.001,0.722,0.0000000,0.0000000,0.000,0.000,0.000,0.000,0,00:00:00,-1020,0.000,0.000,91517.570,9.472,0.000,0.000,0.380,-9.782,-0.011,0.007,-0.002,-0.017,0.000,0.000
26.250,0,0,-0.303,-0.028,-7.920,-0.787,-0.063,-13.606,-0.598,-0.058,-9.787,0.000,0.000,0.0116870,0.000,9144.000,0.003,2.464,0.975,0.423,915.211,9.475,849.720,0.241,-9.802,-0.014,0.254,-0.057,-0.012,0.055,0.000,0.000,0.000,0.005,0.695,0.001,0.719,0.0000000,0.0000000,0.000,0.000,0.000,0.000,0,00:00:00,-1020,0.000,0.000,91521.438,9.475,0.000,0.000,0.348,-9.786,-0.064,-0.004,-0.007,-0.010,0.000,0.000
26.351,0,0,-0.355,-0.032,-8.073,-0.830,-0.062,-13.578,-0.559,-0.001,-9.790,0.000,0.000,0.0116870,0.000,9144.000,0.003,2.010,1.018,0.425,915.211,9.475,849.720,0.243,-9.802,-0.014,0.254,-0.057,-0.012,0.055,0.000,0.000,0.000,0.002,0.696,0.003,0.718,0.0000000,0.0000000,0.000,0.000,0.000,0.000,0,00:00:00,-1020,0.000,0.000,91521.438,9.475,0.000,0.000,0.348,-9.786,-0.064,-0.004,-0.007,-0.010,0.000,0.000
26.452,0,0,-0.410,-0.036,-8.234,-0.914,-0.073,-13.553,-0.996,-0.120,-9.698,0.000,0.000,0.0116870,0.000,9144.000,0.003,1.782,1.061,0.436,915.255,9.477,849.324,-0.147,-9.733,-0.112,0.556,0.017,-0.024,-0.011,0.000,0.000,0.000,-0.001,0.691,-0.001,0.723,0.0000000,0.0000000,0.000,0.000,0.000,0.000,0,00:00:00,-1020,0.000,0.000,91525.172,9.477,0.000,0.000,0.291,-9.795,-0.014,-0.008,-0.002,0.005,0.000,0.000
26.553,0,0,-0.465,-0.039,-8.332,-0.946,-0.057,-13.497,-0.511,0.139,-9.830,0.000,0.000,0.0116870,0.000,9144.000,0.003,2.595,1.105,0.434,915.237,9.476,849.482,0.012,-9.841,0.138,0.191,-0.005,-0.005,0.022,0.000,0.000,0.000,0.002,0.695,0.002,0.719,0.0000000,0.0000000,0.000,0.000,0.000,0.000,0,00:00:00,-1020,0.000,0.000,91520.109,9.474,0.000,0.000,0.338,-9.820,0.050,0.003,0.005,0.006,0.000,0.000
26.654,0,0,-0.518,-0.041,-8.387,-0.996,-0.045,-13.420,-0.719,0.101,-9.846,0.000,0.000,0.0116870,0.000,9144.000,0.003,1.869,1.148,0.431,915.230,9.476,849.546,0.084,-9.866,0.076,0.366,-0.022,-0.023,0.012,0.000,0.000,0.000,0.002,0.694,0.003,0.720,0.0000000,0.0000000,0.000,0.000,0.000,0.000,0,00:00:00,-1020,0.000,0.000,91522.188,9.475,0.000,0.000,0.319,-9.777,0.012,0.015,0.006,-0.011,0.000,0.000
26.755,0,0,-0.572,-0.042,-8.464,-1.056,-0.048,-13.351,-0.848,-0.046,-9.616,0.000,0.000,0.0116870,0.000,9144.000,0.003,2.061,1.193,0.450,915.268,9.478,849.207,-0.264,-9.642,-0.094,0.465,-0.027,0.046,0.012,0.000,0.000,0.000,-0.002,0.693,0.002,0.721,0.0000000,0.0000000,0.000,0.000,0.000,0.000,0,00:00:00,-1020,0.000,0.000,91526.297,9.478,0.000,0.000,0.307,-9.863,0.056,-0.002,0.011,-0.004,0.000,0.000
26.856,0,0,-0.626,-0.042,-8.457,-1.109,-0.028,-13.252,-0.810,0.176,-9.854,0.000,0.000,0.0116870,0.000,9144.000,0.004,2.280,1.237,0.446,915.222,9.475,849.619,0.153,-9.879,0.119,0.412,-0.004,0.007,0.012,0.000,0.000,0.000,0.000,0.693,0.004,0.721,0.0000000,0.0000000,0.000,0.000,0.000,0.000,0,00:00:00,-1020,0.000,0.000,91516.211,9.472,0.000,0.000,0.364,-9.771,0.013,-0.012,0.005,0.009,0.000,0.000
26.957,0,0,-0.680,-0.040,-8.430,-1.158,-0.008,-13.153,-0.813,0.182,-9.853,0.000,0.000,0.0116870,0.000,9144.000,0.004,2.316,1.281,0.441,915.222,9.475,849.619,0.195,-9.879,0.119,0.412,-0.004,0.007,0.012,0.000,0.000,0.000,0.001,0.693,0.006,0.721,0.0000000,0.0000000,0.000,0.000,0.000,0.000,0,00:00:00,-1020,0.000,0.000,91516.211,9.472,0.000,0.000,0.364,-9.771,0.013,-0.012,0.005,0.009,0.000,0.000
27.058,0,0,-0.732,-0.037,-8.407,-1.196,0.002,-13.063,-0.732,0.081,-9.766,0.000,0.000,0.0116870,0.000,9144.000,0.004,2.334,1.326,0.446,915.231,9.476,849.539,0.097,-9.787,0.007,0.359,-0.014,0.011,-0.000,0.000,0.000,0.000,-0.001,0.693,0.004,0.720,0.0000000,0.0000000,0.000,0.000,0.000,0.000,0,00:00:00,-1020,0.000,0.000,91517.195,9.472,0.000,0.000,0.347,-9.782,-0.068,-0.017,0.010,0.007,0.000,0.000
27.159,0,0,-0.782,-0.034,-8.336,-1.241,-0.010,-12.941,-0.836,-0.133,-9.686,0.000,0.000,0.0116870,0.000,9144.000,0.004,2.186,1.372,0.458,915.201,9.474,849.810,0.382,-9.712,-0.167,0.427,0.033,-0.024,-0.029,0.000,0.000,0.000,-0.004,0.692,-0.001,0.722,0.0000000,0.0000000,0.000,0.000,0.000,0.000,0,00:00:00,-1020,0.000,0.000,91528.141,9.479,0.000,0.000,0.288,-9.741,0.001,0.007,0.001,-0.009,0.000,0.000
27.260,0,0,-0.830,-0.032,-8.299,-1.270,0.009,-12.865,-0.710,0.166,-9.736,0.000,0.000,0.0116870,0.000,9144.000,0.004,2.421,1.418,0.466,915.224,9.475,849.604,0.130,-9.756,0.131,0.338,0.002,0.004,-0.033,0.000,0.000,0.000,-0.001,0.693,0.002,0.720,0.0000000,0.0000000,0.000,0.000,0.000,0.000,0,00:00:00,-1020,0.000,0.000,91528.156,9.479,0.000,0.000,0.327,-9.922,0.008,-0.012,0.003,-0.003,0.000,0.000
27.361,0,0,-0.876,-0.028,-8.282,-1.309,0.008,-12.820,-0.842,-0.024,-9.790,0.000,0.000,0.0116870,0.000,9144.000,0.004,2.190,1.465,0.468,915.236,9.476,849.491,-0.025,-9.816,-0.058,0.441,-0.002,0.012,-0.012,0.000,0.000,0.000,-0.002,0.692,0.000,0.721,0.0000000,0.0000000,0.000,0.000,0.000,0.000,0,00:00:00,-1020,0.000,0.000,91528.016,9.479,0.000,0.000,0.383,-9.743,-0.002,0.013,0.012,0.016,0.000,0.000
27.462,0,0,-0.921,-0.025,-8.288,-1.336,0.015,-12.791,-0.752,0.057,-9.706,0.000,0.000,0.0116870,0.000,9144.000,0.004,2.347,1.513,0.478,915.258,9.477,849.293,-0.193,-9.728,0.010,0.369,-0.009,-0.000,0.040,0.000,0.000,0.000,-0.001,0.693,0.002,0.721,0.0000000,0.0000000,0.000,0.000,0.000,0.000,0,00:00:00,-1020,0.000,0.000,91516.555,9.472,0.000,0.000,0.213,-9.793,-0.046,0.007,-0.006,-0.010,0.000,0.000
27.563,0,0,-0.961,-0.020,-8.269,-1.347,0.026,-12.745,-0.627,0.098,-9.670,0.000,0.000,0.0116870,0.000,9144.000,0.004,2.260,1.562,0.492,915.242,9.476,849.437,-0.035,-9.686,0.022,0.286,-0.032,-0.015,-0.027,0.000,0.000,0.000,-0.003,0.695,0.003,0.719,0.0000000,0.0000000,0.000,0.000,0.000,0.000,0,00:00:00,-1020,0.000,0.000,91522.375,9.475,0.000,0.000,0.345,-9.762,0.035,-0.001,-0.011,-0.002,0.000,0.000
27.664,0,0,-0.999,-0.016,-8.226,-1.371,0.028,-12.705,-0.767,0.017,-9.846,0.000,0.000,0.0116870,0.000,9144.000,0.004,2.019,1.611,0.488,915.221,9.475,849.628,0.143,-9.867,-0.030,0.406,0.029,0.033,-0.020,0.000,0.000,0.000,-0.003,0.694,0.001,0.720,0.0000000,0.0000000,0.000,0.000,0.000,0.000,0,00:00:00,-1020,0.000,0.000,91519.555,9.474,0.000,0.000,0.309,-9.842,-0.055,-0.018,0.006,-0.025,0.000,0.000
27.765,0,0,-1.034,-0.012,-8.227,-1.373,0.019,-12.688,-0.577,-0.095,-9.703,0.000,0.000,0.0116870,0.000,9144.000,0.004,2.094,1.661,0.499,915.257,9.477,849.309,-0.145,-9.716,-0.119,0.270,0.021,0.012,-0.005,0.000,0.000,0.000,-0.004,0.696,-0.002,0.718,0.0000000,0.0000000,0.000,0.000,0.000,0.000,0,00:00:00,-1020,0.000,0.000,91522.844,9.476,0.000,0.000,0.408,-9.802,0.025,-0.019,0.007,0.005,0.000,0.000
27.866,0,0,-1.065,-0.010,-8.234,-1.370,0.008,-12.679,-0.552,-0.116,-9.704,0.000,0.000,0.0116870,0.000,9144.000,0.004,1.811,1.712,0.510,915.257,9.477,849.309,-0.187,-9.716,-0.119,0.270,0.021,0.012,-0.005,0.000,0.000,0.000,-0.004,0.697,-0.003,0.717,0.0000000,0.0000000,0.000,0.000,0.000,0.000,0,00:00:00,-1020,0.000,0.000,91522.844,9.476,0.000,0.000,0.408,-9.802,0.025,-0.019,0.007,0.005,0.000,0.000
27.967,0,0,-1.092,-0.008,-8.147,-1.378,0.011,-12.596,-0.671,0.021,-9.637,0.000,0.000,0.0116870,0.000,9144.000,0.004,1.669,1.765,0.527,915.180,9.473,850.000,0.476,-9.654,0.036,0.360,0.020,0.020,-0.008,0.000,0.000,0.000,-0.001,0.696,-0.002,0.718,0.0000000,0.0000000,0.000,0.000,0.000,0.000,0,00:00:00,-1020,0.000,0.000,91522.445,9.475,0.000,0.000,0.337,-9.804,-0.079,-0.002,0.007,-0.018,0.000,0.000
28.068,0,0,-1.118,-0.007,-8.140,-1.409,0.010,-12.578,-0.917,-0.014,-9.636,0.000,0.000,0.0116870,0.000,9144.000,0.004,1.846,1.819,0.544,915.238,9.476,849.480,-0.041,-9.667,0.010,0.507,0.009,-0.005,-0.008,0.000,0.000,0.000,0.000,0.692,-0.001,0.722,0.0000000,0.0000000,0.000,0.000,0.000,0.000,0,00:00:00,-1020,0.000,0.000,91525.812,9.477,0.000,0.000,0.335,-9.833,0.031,0.009,0.003,-0.006,0.000,0.000
28.169,0,0,-1.145,-0.005,-8.083,-1.458,0.007,-12.550,-1.114,-0.033,-9.884,0.000,0.000,0.0116870,0.000,9144.000,0.005,2.437,1.873,0.537,915.192,9.473,849.888,0.329,-9.929,0.010,0.590,0.017,-0.038,-0.030,0.000,0.000,0.000,0.001,0.688,-0.002,0.726,0.0000000,0.0000000,0.000,0.000,0.000,0.000,0,00:00:00,-1020,0.000,0.000,91526.555,9.478,0.000,0.000,0.289,-9.850,-0.000,0.012,-0.012,-0.002,0.000,0.000
28.270,0,0,-1.170,-0.004,-8.084,-1.456,-0.002,-12.571,-0.621,-0.085,-9.921,0.000,0.000,0.0116870,0.000,9144.000,0.005,3.028,1.925,0.526,915.234,9.476,849.509,-0.038,-9.937,0.018,0.245,0.062,0.018,-0.003,0.000,0.000,0.000,0.004,0.694,-0.004,0.720,0.0000000,0.0000000,0.000,0.000,0.000,0.000,0,00:00:00,-1020,0.000,0.000,91529.789,9.480,0.000,0.000,0.411,-9.781,0.035,-0.005,0.003,-0.010,0.000,0.000
28.371,0,0,-1.194,-0.005,-8.090,-1.465,-0.019,-12.575,-0.739,-0.178,-9.731,0.000,0.000,0.0116870,0.000,9144.000,0.005,2.168,1.979,0.534,915.239,9.476,849.465,-0.059,-9.754,-0.103,0.364,-0.030,-0.021,-0.015,0.000,0.000,0.000,0.000,0.693,-0.005,0.721,0.0000000,0.0000000,0.000,0.000,0.000,0.000,0,00:00:00,-1020,0.000,0.000,91522.914,9.476,0.000,0.000,0.426,-9.826,-0.023,-0.011,0.004,0.001,0.000,0.000
28.472,0,0,-1.216,-0.006,-8.072,-1.483,-0.023,-12.550,-0.847,-0.042,-9.618,0.000,0.000,0.0116870,0.000,9144.000,0.005,2.213,2.034,0.553,915.220,9.475,849.637,0.116,-9.644,0.024,0.452,-0.006,0.034,0.004,0.000,0.000,0.000,0.002,0.692,-0.003,0.721,0.0000000,0.0000000,0.000,0.000,0.000,0.000,0,00:00:00,-1020,0.000,0.000,91519.297,9.473,0.000,0.000,0.290,-9.800,-0.020,0.002,0.000,-0.000,0.000,0.000
28.573,0,0,-1.236,-0.008,-8.091,-1.485,-0.017,-12.562,-0.685,0.061,-9.688,0.000,0.000,0.0116870,0.000,9144.000,0.005,2.350,2.091,0.565,915.249,9.477,849.373,-0.143,-9.706,0.104,0.329,-0.025,0.015,-0.056,0.000,0.000,0.000,0.002,0.694,-0.001,0.720,0.0000000,0.0000000,0.000,0.000,0.000,0.000,0,00:00:00,-1020,0.000,0.000,91515.250,9.471,0.000,0.000,0.315,-9.802,0.021,0.002,0.012,0.011,0.000,0.000
28.674,0,0,-1.254,-0.009,-8.081,-1.463,-0.028,-12.567,-0.470,-0.119,-9.857,0.000,0.000,0.0116870,0.000,9144.000,0.005,2.104,2.147,0.561,915.225,9.475,849.593,0.068,-9.867,-0.062,0.192,0.011,-0.002,-0.033,0.000,0.000,0.000,0.001,0.697,-0.003,0.717,0.0000000,0.0000000,0.000,0.000,0.000,0.000,0,00:00:00,-1020,0.000,0.000,91517.578,9.472,0.000,0.000,0.356,-9.805,0.023,-0.003,-0.019,-0.009,0.000,0.000
28.775,0,0,-1.268,-0.011,-8.075,-1.437,-0.041,-12.574,-0.428,-0.131,-9.859,0.000,0.000,0.0116870,0.000,9144.000,0.005,1.616,2.202,0.556,915.225,9.475,849.593,0.058,-9.867,-0.062,0.192,0.011,-0.002,-0.033,0.000,0.000,0.000,0.000,0.699,-0.005,0.716,0.0000000,0.0000000,0.000,0.000,0.000,0.000,0,00:00:00,-1020,0.000,0.000,91517.578,9.472,0.000,0.000,0.356,-9.805,0.023,-0.003,-0.019,-0.009,0.000,0.000
28.876,0,0,-1.278,-0.014,-8.084,-1.433,-0.038,-12.576,-0.657,0.016,-9.684,0.000,0.000,0.0116870,0.000,9144.000,0.005,1.372,2.259,0.568,915.240,9.476,849.457,-0.047,-9.699,0.092,0.368,0.010,0.022,0.014,0.000,0.000,0.000,0.004,0.696,-0.002,0.718,0.0000000,0.0000000,0.000,0.000,0.000,0.000,0,00:00:00,-1020,0.000,0.000,91521.125,9.475,0.000,0.000,0.229,-9.763,0.015,0.001,-0.002,0.008,0.000,0.000
28.977,0,0,-1.289,-0.017,-8.035,-1.446,-0.055,-12.522,-0.820,-0.174,-9.571,0.000,0.000,0.0116870,0.000,9144.000,0.005,1.708,2.318,0.592,915.191,9.473,849.900,0.358,-9.597,-0.097,0.445,-0.004,-0.022,-0.059,0.000,0.000,0.000,0.000,0.693,-0.005,0.721,0.0000000,0.0000000,0.000,0.000,0.000,0.000,0,00:00:00,-1020,0.000,0.000,91520.328,9.474,0.000,0.000,0.345,-9.761,0.057,-0.001,-0.004,0.016,0.000,0.000
29.078,0,0,-1.299,-0.020,-8.027,-1.446,-0.059,-12.531,-0.695,-0.046,-9.863,0.000,0.000,0.0116870,0.000,9144.000,0.005,2.247,2.377,0.587,915.220,9.475,849.635,0.099,-9.882,0.027,0.327,-0.005,-0.021,-0.018,0.000,0.000,0.000,0.001,0.694,-0.004,0.720,0.0000000,0.0000000,0.000,0.000,0.000,0.000,0,00:00:00,-1020,0.000,0.000,91515.844,9.471,0.000,0.000,0.377,-9.801,-0.079,0.016,-0.002,0.003,0.000,0.000
29.179,0,0,-1.307,-0.023,-8.015,-1.428,-0.052,-12.526,-0.524,0.056,-9.761,0.000,0.000,0.0116870,0.000,9144.000,0.005,2.133,2.436,0.592,915.216,9.475,849.677,0.133,-9.772,0.104,0.226,-0.024,-0.007,-0.007,0.000,0.000,0.000,0.003,0.696,-0.001,0.718,0.0000000,0.0000000,0.000,0.000,0.000,0.000,0,00:00:00,-1020,0.000,0.000,91519.117,9.473,0.000,0.000,0.352,-9.830,0.022,-0.010,-0.011,0.001,0.000,0.000
29.280,0,0,-1.312,-0.026,-8.034,-1.407,-0.046,-12.554,-0.503,0.046,-9.851,0.000,0.000,0.0116870,0.000,9144.000,0.005,1.748,2.495,0.588,915.240,9.476,849.459,-0.075,-9.860,0.095,0.235,0.001,-0.002,-0.012,0.000,0.000,0.000,0.004,0.697,0.000,0.717,0.0000000,0.0000000,0.000,0.000,0.000,0.000,0,00:00:00,-1020,0.000,0.000,91530.648,9.480,0.000,0.000,0.360,-9.793,0.006,0.015,0.010,-0.001,0.000,0.000
29.381,0,0,-1.315,-0.027,-8.052,-1.386,-0.040,-12.578,-0.487,0.044,-9.852,0.000,0.000,0.0116870,0.000,9144.000,0.004,1.560,2.553,0.584,915.240,9.476,849.459,-0.072,-9.860,0.095,0.235,0.001,-0.002,-0.012,0.000,0.000,0.000,0.004,0.698,0.001,0.716,0.0000000,0.0000000,0.000,0.000,0.000,0.000,0,00:00:00,-1020,0.000,0.000,91530.648,9.480,0.000,0.000,0.360,-9.793,0.006,0.015,0.010,-0.001,0.000,0.000
29.482,0,0,-1.317,-0.029,-8.040,-1.382,-0.047,-12.562,-0.669,-0.088,-9.683,0.000,0.000,0.0116870,0.000,9144.000,0.004,1.466,2.613,0.596,915.213,9.475,849.704,0.138,-9.700,-0.066,0.362,-0.029,-0.005,0.028,0.000,0.000,0.000,0.001,0.696,-0.000,0.718,0.0000000,0.0000000,0.000,0.000,0.000,0.000,0,00:00:00,-1020,0.000,0.000,91524.570,9.477,0.000,0.000,0.345,-9.818,0.003,0.002,0.013,0.001,0.000,0.000
29.583,0,0,-1.319,-0.031,-8.038,-1.374,-0.065,-12.556,-0.621,-0.197,-9.713,0.000,0.000,0.0116870,0.000,9144.000,0.004,1.816,2.674,0.606,915.221,9.475,849.629,0.069,-9.728,-0.153,0.317,0.021,0.015,0.006,0.000,0.000,0.000,-0.001,0.696,-0.004,0.718,0.0000000,0.0000000,0.000,0.000,0.000,0.000,0,00:00:00,-1020,0.000,0.000,91525.258,9.477,0.000,0.000,0.353,-9.760,-0.050,0.001,-0.008,-0.015,0.000,0.000
29.684,0,0,-1.319,-0.034,-8.032,-1.361,-0.069,-12.565,-0.570,-0.054,-9.881,0.000,0.000,0.0116870,0.000,9144.000,0.004,1.799,2.733,0.599,915.218,9.475,849.659,0.103,-9.893,-0.012,0.279,-0.003,0.009,0.006,0.000,0.000,0.000,0.000,0.697,-0.003,0.717,0.0000000,0.0000000,0.000,0.000,0.000,0.000,0,00:00:00,-1020,0.000,0.000,91518.766,9.473,0.000,0.000,0.447,-9.841,-0.070,0.022,0.009,-0.015,0.000,0.000
29.785,0,0,-1.319,-0.038,-7.964,-1.365,-0.077,-12.528,-0.741,-0.099,-9.902,0.000,0.000,0.0116870,0.000,9144.000,0.004,1.682,2.792,0.590,915.165,9.472,850.135,0.551,-9.923,-0.057,0.392,-0.000,-0.017,-0.009,0.000,0.000,0.000,-0.000,0.695,-0.003,0.719,0.0000000,0.0000000,0.000,0.000,0.000,0.000,0,00:00:00,-1020,0.000,0.000,91510.633,9.468,0.000,0.000,0.242,-9.824,-0.007,0.001,0.010,-0.010,0.000,0.000
29.886,0,0,-1.319,-0.041,-7.981,-1.364,-0.083,-12.540,-0.684,-0.081,-9.715,0.000,0.000,0.0116870,0.000,9144.000,0.004,2.021,2.852,0.599,915.226,9.475,849.583,-0.017,-9.733,-0.036,0.342,0.005,-0.001,0.040,0.000,0.000,0.000,0.001,0.695,-0.002,0.719,0.0000000,0.0000000,0.000,0.000,0.000,0.000,0,00:00:00,-1020,0.000,0.000,91517.859,9.473,0.000,0.000,0.313,-9.765,0.017,0.007,0.011,-0.003,0.000,0.000
29.987,0,0,-1.319,-0.045,-7.996,-1.362,-0.089,-12.549,-0.684,-0.084,-9.715,0.000,0.000,0.0116870,0.000,9144.000,0.004,2.019,2.913,0.609,915.226,9.475,849.583,-0.007,-9.733,-0.036,0.342,0.005,-0.001,0.040,0.000,0.000,0.000,0.001,0.695,-0.002,0.719,0.0000000,0.0000000,0.000,0.000,0.000,0.000,0,00:00:00,-1020,0.000,0.000,91517.859,9.473,0.000,0.000,0.313,-9.765,0.017,0.007,0.011,-0.003,0.000,0.000
30.088,0,0,-1.319,-0.050,-8.023,-1.364,-0.110,-12.576,-0.709,-0.235,-9.815,0.000,0.000,0.0116870,0.000,9144.000,0.004,2.017,2.974,0.608,915.235,9.476,849.506,-0.099,-9.835,-0.219,0.347,-0.036,-0.037,0.008,0.000,0.000,0.000,-0.004,0.694,-0.004,0.720,0.0000000,0.0000000,0.000,0.000,0.000,0.000,0,00:00:00,-1020,0.000,0.000,91526.875,9.478,0.000,0.000,0.342,-9.763,0.015,0.006,-0.005,-0.022,0.000,0.000
30.189,0,0,-1.321,-0.056,-8.067,-1.390,-0.112,-12.606,-0.954,-0.053,-9.730,0.000,0.000,0.0116870,0.000,9144.000,0.005,2.126,3.036,0.616,915.253,9.477,849.342,-0.241,-9.763,-0.041,0.522,-0.006,0.016,-0.013,0.000,0.000,0.000,-0.003,0.691,-0.003,0.723,0.0000000,0.0000000,0.000,0.000,0.000,0.000,0,00:00:00,-1020,0.000,0.000,91521.547,9.475,0.000,0.000,0.372,-9.870,-0.089,-0.005,-0.002,-0.013,0.000,0.000
30.290,0,0,-1.325,-0.060,-8.043,-1.424,-0.108,-12.570,-1.035,0.014,-9.602,0.000,0.000,0.0116870,0.000,9144.000,0.005,2.546,3.099,0.637,915.203,9.474,849.795,0.216,-9.642,0.016,0.548,-0.006,0.001,0.022,0.000,0.000,0.000,-0.001,0.689,-0.001,0.725,0.0000000,0.0000000,0.000,0.000,0.000,0.000,0,00:00:00,-1020,0.000,0.000,91522.945,9.476,0.000,0.000,0.342,-9.789,0.036,-0.001,0.014,-0.004,0.000,0.000
30.391,0,0,-1.331,-0.064,-8.031,-1.436,-0.090,-12.575,-0.817,0.145,-9.904,0.000,0.000,0.0116870,0.000,9144.000,0.005,2.897,3.162,0.628,915.211,9.475,849.721,0.142,-9.930,0.141,0.376,-0.004,-0.007,-0.009,0.000,0.000,0.000,0.002,0.691,0.002,0.723,0.0000000,0.0000000,0.000,0.000,0.000,0.000,0,00:00:00,-1020,0.000,0.000,91518.867,9.473,0.000,0.000,0.399,-9.755,-0.046,-0.003,-0.016,0.002,0.000,0.000
30.492,0,0,-1.336,-0.067,-8.023,-1.416,-0.102,-12.571,-0.512,-0.159,-9.790,0.000,0.000,0.0116870,0.000,9144.000,0.005,2.553,3.225,0.630,915.211,9.475,849.716,0.131,-9.801,-0.154,0.192,0.007,-0.013,0.018,0.000,0.000,0.000,-0.001,0.695,-0.002,0.719,0.0000000,0.0000000,0.000,0.000,0.000,0.000,0,00:00:00,-1020,0.000,0.000,91520.500,9.474,0.000,0.000,0.306,-9.838,-0.024,-0.008,0.015,-0.004,0.000,0.000
30.593,0,0,-1.340,-0.070,-8.072,-1.410,-0.111,-12.615,-0.639,-0.122,-9.847,0.000,0.000,0.0116870,0.000,9144.000,0.005,1.874,3.288,0.626,915.253,9.477,849.338,-0.273,-9.862,-0.104,0.323,0.013,0.014,0.029,0.000,0.000,0.000,-0.002,0.696,-0.003,0.718,0.0000000,0.0000000,0.000,0.000,0.000,0.000,0,00:00:00,-1020,0.000,0.000,91520.547,9.474,0.000,0.000,0.411,-9.796,0.004,0.007,0.015,-0.012,0.000,0.000
30.694,0,0,-1.343,-0.073,-8.094,-1.410,-0.103,-12.632,-0.713,0.044,-9.790,0.000,0.000,0.0116870,0.000,9144.000,0.005,1.837,3.350,0.628,915.235,9.476,849.506,-0.111,-9.809,0.060,0.373,0.001,0.008,0.006,0.000,0.000,0.000,0.001,0.695,-0.000,0.719,0.0000000,0.0000000,0.000,0.000,0.000,0.000,0,00:00:00,-1020,0.000,0.000,91526.758,9.478,0.000,0.000,0.342,-9.767,0.003,-0.005,0.013,0.006,0.000,0.000
30.795,0,0,-1.345,-0.075,-8.143,-1.398,-0.098,-12.649,-0.589,0.010,-9.613,0.000,0.000,0.0116870,0.000,9144.000,0.005,1.986,3.415,0.648,915.251,9.477,849.357,-0.314,-9.627,0.021,0.287,-0.005,0.015,-0.013,0.000,0.000,0.000,0.001,0.696,-0.000,0.718,0.0000000,0.0000000,0.000,0.000,0.000,0.000,0,00:00:00,-1020,0.000,0.000,91524.117,9.476,0.000,0.000,0.352,-9.774,-0.017,-0.000,-0.004,0.013,0.000,0.000
30.896,0,0,-1.346,-0.078,-8.179,-1.387,-0.121,-12.683,-0.592,-0.274,-9.893,0.000,0.000,0.0116870,0.000,9144.000,0.005,1.801,3.479,0.639,915.243,9.476,849.433,-0.251,-9.908,-0.241,0.291,0.018,-0.007,0.005,0.000,0.000,0.000,-0.003,0.696,-0.005,0.718,0.0000000,0.0000000,0.000,0.000,0.000,0.000,0,00:00:00,-1020,0.000,0.000,91523.188,9.476,0.000,0.000,0.278,-9.813,0.053,-0.002,-0.017,-0.008,0.000,0.000
30.997,0,0,-1.346,-0.082,-8.186,-1.368,-0.123,-12.688,-0.519,-0.063,-9.853,0.000,0.000,0.0116870,0.000,9144.000,0.004,1.761,3.543,0.635,915.225,9.475,849.594,-0.058,-9.864,-0.013,0.237,0.021,-0.025,0.015,0.000,0.000,0.000,-0.000,0.697,-0.004,0.717,0.0000000,0.0000000,0.000,0.000,0.000,0.000,0,00:00:00,-1020,0.000,0.000,91531.609,9.481,0.000,0.000,0.452,-9.838,-0.047,-0.008,-0.004,0.005,0.000,0.000
31.098,0,0,-1.344,-0.086,-8.179,-1.362,-0.119,-12.689,-0.643,-0.008,-9.909,0.000,0.000,0.0116870,0.000,9144.000,0.004,1.641,3.605,0.625,915.216,9.475,849.675,0.036,-9.924,0.055,0.341,0.013,0.019,-0.015,0.000,0.000,0.000,0.002,0.696,-0.003,0.718,0.0000000,0.0000000,0.000,0.000,0.000,0.000,0,00:00:00,-1020,0.000,0.000,91523.477,9.476,0.000,0.000,0.293,-9.741,-0.051,-0.011,-0.015,0.008,0.000,0.000
31.199,0,0,-1.343,-0.088,-8.223,-1.371,-0.112,-12.724,-0.799,0.028,-9.874,0.000,0.000,0.0116870,0.000,9144.000,0.004,1.750,3.667,0.619,915.260,9.477,849.281,-0.325,-9.896,0.092,0.444,0.003,0.036,-0.018,0.000,0.000,0.000,0.004,0.694,-0.001,0.720,0.0000000,0.0000000,0.000,0.000,0.000,0.000,0,00:00:00,-1020,0.000,0.000,91527.531,9.478,0.000,0.000,0.420,-9.829,0.064,0.006,-0.001,0.008,0.000,0.000
31.300,0,0,-1.343,-0.090,-8.217,-1.379,-0.106,-12.720,-0.779,0.012,-9.889,0.000,0.000,0.0116870,0.000,9144.000,0.004,2.058,3.728,0.611,915.218,9.475,849.653,0.013,-9.911,0.072,0.401,-0.005,0.002,-0.020,0.000,0.000,0.000,0.004,0.693,-0.001,0.720,0.0000000,0.0000000,0.000,0.000,0.000,0.000,0,00:00:00,-1020,0.000,0.000,91523.484,9.476,0.000,0.000,0.353,-9.824,-0.012,0.001,0.002,0.013,0.000,0.000
31.401,0,0,-1.341,-0.092,-8.250,-1.341,-0.124,-12.746,-0.335,-0.223,-9.896,0.000,0.000,0.0116870,0.000,9144.000,0.004,2.184,3.788,0.602,915.245,9.477,849.410,-0.256,-9.902,-0.170,0.094,-0.008,-0.012,0.014,0.000,0.000,0.000,-0.000,0.698,-0.004,0.716,0.0000000,0.0000000,0.000,0.000,0.000,0.000,0,00:00:00,-1020,0.000,0.000,91525.820,9.477,0.000,0.000,0.394,-9.738,0.028,-0.001,-0.001,-0.006,0.000,0.000
31.502,0,0,-1.338,-0.094,-8.216,-1.333,-0.111,-12.725,-0.624,0.073,-9.940,0.000,0.000,0.0116870,0.000,9144.000,0.004,1.398,3.847,0.589,915.195,9.474,849.867,0.201,-9.953,0.117,0.331,-0.008,-0.014,0.000,0.000,0.000,0.000,0.003,0.697,-0.001,0.717,0.0000000,0.0000000,0.000,0.000,0.000,0.000,0,00:00:00,-1020,0.000,0.000,91522.719,9.475,0.000,0.000,0.364,-9.733,-0.087,0.006,0.011,-0.002,0.000,0.000
31.603,0,0,-1.334,-0.095,-8.181,-1.328,-0.098,-12.705,-0.650,0.083,-9.938,0.000,0.000,0.0116870,0.000,9144.000,0.004,1.692,3.905,0.577,915.195,9.474,849.867,0.230,-9.953,0.117,0.331,-0.008,-0.014,0.000,0.000,0.000,0.000,0.004,0.696,0.001,0.718,0.0000000,0.0000000,0.000,0.000,0.000,0.000,0,00:00:00,-1020,0.000,0.000,91522.719,9.475,0.000,0.000,0.364,-9.733,-0.087,0.006,0.011,-0.002,0.000,0.000
31.704,0,0,-1.330,-0.094,-8.216,-1.320,-0.083,-12.713,-0.615,0.095,-9.679,0.000,0.000,0.0116870,0.000,9144.000,0.004,1.839,3.964,0.590,915.250,9.477,849.370,-0.252,-9.694,0.110,0.301,-0.018,-0.019,0.015,0.000,0.000,0.000,0.004,0.696,0.003,0.719,0.0000000,0.0000000,0.000,0.000,0.000,0.000,0,00:00:00,-1020,0.000,0.000,91514.078,9.470,0.000,0.000,0.405,-9.829,-0.045,-0.009,0.004,0.006,0.000,0.000
31.805,0,0,-1.326,-0.093,-8.161,-1.315,-0.080,-12.684,-0.644,-0.018,-9.994,0.000,0.000,0.0116870,0.000,9144.000,0.004,1.863,4.021,0.571,915.190,9.473,849.911,0.366,-10.010,0.004,0.307,0.005,-0.043,-0.014,0.000,0.000,0.000,0.002,0.695,0.001,0.719,0.0000000,0.0000000,0.000,0.000,0.000,0.000,0,00:00:00,-1020,0.000,0.000,91526.234,9.478,0.000,0.000,0.315,-9.837,-0.043,0.015,-0.010,0.008,0.000,0.000
31.906,0,0,-1.322,-0.092,-8.172,-1.321,-0.088,-12.694,-0.761,-0.131,-9.874,0.000,0.000,0.0116870,0.000,9144.000,0.004,1.932,4.078,0.565,915.240,9.476,849.459,-0.070,-9.895,-0.135,0.389,-0.032,-0.022,-0.035,0.000,0.000,0.000,-0.003,0.694,-0.002,0.720,0.0000000,0.0000000,0.000,0.000,0.000,0.000,0,00:00:00,-1020,0.000,0.000,91528.008,9.479,0.000,0.000,0.362,-9.747,0.004,-0.002,0.013,-0.004,0.000,0.000
32.007,0,0,-1.318,-0.091,-8.198,-1.308,-0.092,-12.705,-0.558,-0.082,-9.762,0.000,0.000,0.0116870,0.000,9144.000,0.004,2.157,4.135,0.570,915.253,9.477,849.344,-0.187,-9.775,-0.075,0.248,0.012,-0.007,-0.016,0.000,0.000,0.000,-0.003,0.696,-0.003,0.718,0.0000000,0.0000000,0.000,0.000,0.000,0.000,0,00:00:00,-1020,0.000,0.000,91523.859,9.476,0.000,0.000,0.348,-9.781,0.036,-0.003,0.006,-0.002,0.000,0.000
32.108,0,0,-1.314,-0.091,-8.224,-1.292,-0.096,-12.714,-0.530,-0.094,-9.763,0.000,0.000,0.0116870,0.000,9144.000,0.004,1.825,4.192,0.574,915.253,9.477,849.344,-0.204,-9.775,-0.075,0.248,0.012,-0.007,-0.016,0.000,0.000,0.000,-0.002,0.697,-0.004,0.717,0.0000000,0.0000000,0.000,0.000,0.000,0.000,0,00:00:00,-1020,0.000,0.000,91523.859,9.476,0.000,0.000,0.348,-9.781,0.036,-0.003,0.006,-0.002,0.000,0.000
32.209,0,0,-1.309,-0.092,-8.204,-1.293,-0.098,-12.696,-0.698,-0.068,-9.836,0.000,0.000,0.0116870,0.000,9144.000,0.004,1.660,4.249,0.572,915.220,9.475,849.641,0.100,-9.853,-0.085,0.379,-0.038,0.024,-0.005,0.000,0.000,0.000,-0.004,0.696,-0.002,0.718,0.0000000,0.0000000,0.000,0.000,0.000,0.000,0,00:00:00,-1020,0.000,0.000,91517.922,9.473,0.000,0.000,0.274,-9.839,-0.021,0.004,0.008,0.001,0.000,0.000
32.310,0,0,-1.304,-0.092,-8.186,-1.292,-0.096,-12.678,-0.680,-0.023,-9.812,0.000,0.000,0.0116870,0.000,9144.000,0.004,1.861,4.306,0.572,915.221,9.475,849.629,0.102,-9.829,-0.039,0.348,0.004,0.002,0.031,0.000,0.000,0.000,-0.002,0.695,-0.001,0.719,0.0000000,0.0000000,0.000,0.000,0.000,0.000,0,00:00:00,-1020,0.000,0.000,91520.562,9.474,0.000,0.000,0.459,-9.695,0.050,0.009,-0.000,0.004,0.000,0.000
32.411,0,0,-1.300,-0.092,-8.194,-1.290,-0.089,-12.665,-0.663,0.019,-9.652,0.000,0.000,0.0116870,0.000,9144.000,0.004,1.938,4.365,0.587,915.245,9.477,849.414,-0.083,-9.669,-0.018,0.341,-0.020,0.025,0.024,0.000,0.000,0.000,-0.002,0.695,0.001,0.719,0.0000000,0.0000000,0.000,0.000,0.000,0.000,0,00:00:00,-1020,0.000,0.000,91526.977,9.478,0.000,0.000,0.351,-9.904,0.000,-0.002,-0.013,0.017,0.000,0.000
32.512,0,0,-1.296,-0.090,-8.205,-1.277,-0.068,-12.667,-0.551,0.158,-9.759,0.000,0.000,0.0116870,0.000,9144.000,0.004,1.908,4.424,0.592,915.248,9.477,849.387,-0.124,-9.771,0.141,0.250,0.023,-0.028,-0.005,0.000,0.000,0.000,0.002,0.696,0.003,0.718,0.0000000,0.0000000,0.000,0.000,0.000,0.000,0,00:00:00,-1020,0.000,0.000,91522.953,9.476,0.000,0.000,0.307,-9.834,-0.041,-0.002,0.009,-0.000,0.000,0.000
32.613,0,0,-1.291,-0.087,-8.172,-1.279,-0.038,-12.633,-0.697,0.252,-9.750,0.000,0.000,0.0116870,0.000,9144.000,0.004,1.769,4.484,0.598,915.207,9.474,849.754,0.189,-9.768,0.269,0.362,0.037,-0.014,-0.030,0.000,0.000,0.000,0.006,0.695,0.004,0.719,0.0000000,0.0000000,0.000,0.000,0.000,0.000,0,00:00:00,-1020,0.000,0.000,91527.633,9.478,0.000,0.000,0.289,-9.815,-0.014,0.002,0.003,0.002,0.000,0.000
32.714,0,0,-1.287,-0.081,-8.220,-1.274,-0.016,-12.680,-0.628,0.183,-9.923,0.000,0.000,0.0116870,0.000,9144.000,0.004,1.987,4.543,0.587,915.272,9.478,849.173,-0.378,-9.939,0.153,0.301,-0.049,-0.014,-0.008,0.000,0.000,0.000,0.004,0.695,0.006,0.719,0.0000000,0.0000000,0.000,0.000,0.000,0.000,0,00:00:00,-1020,0.000,0.000,91532.180,9.481,0.000,0.000,0.407,-9.826,-0.020,0.015,-0.010,0.013,0.000,0.000
32.815,0,0,-1.282,-0.074,-8.273,-1.269,0.012,-12.728,-0.621,0.230,-9.922,0.000,0.000,0.0116870,0.000,9144.000,0.004,1.904,4.600,0.576,915.272,9.478,849.173,-0.433,-9.939,0.153,0.301,-0.049,-0.014,-0.008,0.000,0.000,0.000,0.003,0.696,0.008,0.718,0.0000000,0.0000000,0.000,0.000,0.000,0.000,0,00:00:00,-1020,0.000,0.000,91532.180,9.481,0.000,0.000,0.407,-9.826,-0.020,0.015,-0.010,0.013,0.000,0.000
32.916,0,0,-1.278,-0.066,-8.269,-1.260,0.016,-12.716,-0.592,0.004,-9.798,0.000,0.000,0.0116870,0.000,9144.000,0.004,1.862,4.658,0.577,915.229,9.476,849.560,-0.049,-9.812,-0.058,0.276,0.010,-0.037,-0.020,0.000,0.000,0.000,-0.001,0.696,0.003,0.718,0.0000000,0.0000000,0.000,0.000,0.000,0.000,0,00:00:00,-1020,0.000,0.000,91523.234,9.476,0.000,0.000,0.429,-9.750,-0.006,-0.006,0.004,0.013,0.000,0.000
33.017,0,0,-1.274,-0.057,-8.278,-1.270,0.035,-12.721,-0.761,0.160,-9.854,0.000,0.000,0.0116870,0.000,9144.000,0.004,1.843,4.715,0.573,915.242,9.476,849.442,-0.142,-9.876,0.085,0.402,-0.014,0.000,-0.042,0.000,0.000,0.000,-0.001,0.694,0.004,0.720,0.0000000,0.0000000,0.000,0.000,0.000,0.000,0,00:00:00,-1020,0.000,0.000,91521.742,9.475,0.000,0.000,0.287,-9.759,0.008,0.006,-0.000,0.005,0.000,0.000
33.118,0,0,-1.270,-0.048,-8.243,-1.261,0.047,-12.687,-0.578,0.096,-9.790,0.000,0.000,0.0116870,0.000,9144.000,0.004,2.088,4.773,0.575,915.212,9.475,849.707,0.157,-9.803,0.065,0.267,0.044,0.000,-0.007,0.000,0.000,0.000,0.001,0.696,0.003,0.718,0.0000000,0.0000000,0.000,0.000,0.000,0.000,0,00:00:00,-1020,0.000,0.000,91524.227,9.476,0.000,0.000,0.286,-9.751,-0.038,0.006,0.010,-0.009,0.000,0.000
33.219,0,0,-1.266,-0.039,-8.216,-1.250,0.054,-12.660,-0.556,0.053,-9.791,0.000,0.000,0.0116870,0.000,9144.000,0.004,1.823,4.831,0.577,915.212,9.475,849.707,0.121,-9.803,0.065,0.267,0.044,0.000,-0.007,0.000,0.000,0.000,0.002,0.697,0.001,0.717,0.0000000,0.0000000,0.000,0.000,0.000,0.000,0,00:00:00,-1020,0.000,0.000,91524.227,9.476,0.000,0.000,0.286,-9.751,-0.038,0.006,0.010,-0.009,0.000,0.000
33.320,0,0,-1.261,-0.030,-8.190,-1.238,0.057,-12.637,-0.545,0.010,-9.792,0.000,0.000,0.0116870,0.000,9144.000,0.004,1.691,4.888,0.578,915.212,9.475,849.707,0.123,-9.803,0.065,0.267,0.044,0.000,-0.007,0.000,0.000,0.000,0.004,0.697,-0.000,0.717,0.0000000,0.0000000,0.000,0.000,0.000,0.000,0,00:00:00,-1020,0.000,0.000,91524.227,9.476,0.000,0.000,0.286,-9.751,-0.038,0.006,0.010,-0.009,0.000,0.000
33.421,0,0,-1.255,-0.022,-8.161,-1.224,0.055,-12.621,-0.525,-0.037,-9.870,0.000,0.000,0.0116870,0.000,9144.000,0.004,1.625,4.946,0.572,915.209,9.474,849.742,0.157,-9.881,0.028,0.255,0.010,-0.004,0.032,0.000,0.000,0.000,0.004,0.697,-0.000,0.717,0.0000000,0.0000000,0.000,0.000,0.000,0.000,0,00:00:00,-1020,0.000,0.000,91525.859,9.477,0.000,0.000,0.386,-9.735,-0.105,0.000,0.011,0.012,0.000,0.000
33.522,0,0,-1.249,-0.016,-8.160,-1.213,0.039,-12.626,-0.543,-0.161,-9.861,0.000,0.000,0.0116870,0.000,9144.000,0.004,1.563,5.002,0.567,915.234,9.476,849.513,-0.024,-9.873,-0.115,0.274,-0.022,0.004,-0.025,0.000,0.000,0.000,0.000,0.697,-0.003,0.717,0.0000000,0.0000000,0.000,0.000,0.000,0.000,0,00:00:00,-1020,0.000,0.000,91517.953,9.473,0.000,0.000,0.456,-9.805,0.086,0.010,-0.018,0.004,0.000,0.000
33.623,0,0,-1.242,-0.011,-8.158,-1.201,0.026,-12.631,-0.542,-0.141,-9.861,0.000,0.000,0.0116870,0.000,9144.000,0.004,1.565,5.059,0.562,915.234,9.476,849.513,-0.013,-9.873,-0.115,0.274,-0.022,0.004,-0.025,0.000,0.000,0.000,-0.002,0.697,-0.004,0.717,0.0000000,0.0000000,0.000,0.000,0.000,0.000,0,00:00:00,-1020,0.000,0.000,91517.953,9.473,0.000,0.000,0.456,-9.805,0.086,0.010,-0.018,0.004,0.000,0.000
33.724,0,0,-1.236,-0.008,-8.120,-1.217,0.025,-12.591,-0.804,-0.004,-9.688,0.000,0.000,0.0116870,0.000,9144.000,0.004,1.566,5.116,0.574,915.208,9.474,849.746,0.240,-9.711,0.020,0.452,-0.001,0.015,0.008,0.000,0.000,0.000,-0.000,0.694,-0.002,0.720,0.0000000,0.0000000,0.000,0.000,0.000,0.000,0,00:00:00,-1020,0.000,0.000,91526.453,9.478,0.000,0.000,0.268,-9.806,0.007,-0.007,-0.010,-0.002,0.000,0.000
33.825,0,0,-1.233,-0.005,-8.140,-1.242,0.019,-12.607,-0.895,-0.068,-9.781,0.000,0.000,0.0116870,0.000,9144.000,0.004,2.074,5.174,0.577,915.260,9.477,849.275,-0.157,-9.810,-0.035,0.480,0.007,0.001,-0.031,0.000,0.000,0.000,-0.001,0.692,-0.003,0.722,0.0000000,0.0000000,0.000,0.000,0.000,0.000,0,00:00:00,-1020,0.000,0.000,91531.820,9.481,0.000,0.000,0.313,-9.830,0.052,-0.019,0.018,-0.007,0.000,0.000
33.926,0,0,-1.230,-0.003,-8.147,-1.235,0.008,-12.617,-0.580,-0.107,-9.843,0.000,0.000,0.0116870,0.000,9144.000,0.004,2.434,5.231,0.574,915.249,9.477,849.376,-0.066,-9.857,-0.107,0.248,-0.035,-0.001,-0.026,0.000,0.000,0.000,-0.003,0.695,-0.003,0.719,0.0000000,0.0000000,0.000,0.000,0.000,0.000,0,00:00:00,-1020,0.000,0.000,91520.328,9.474,0.000,0.000,0.331,-9.754,0.022,-0.022,0.007,0.016,0.000,0.000
34.027,0,0,-1.228,-0.003,-8.097,-1.234,-0.002,-12.582,-0.630,-0.104,-9.825,0.000,0.000,0.0116870,0.000,9144.000,0.004,1.940,5.288,0.572,915.204,9.474,849.784,0.332,-9.840,-0.129,0.313,-0.026,0.010,0.013,0.000,0.000,0.000,-0.005,0.696,-0.003,0.718,0.0000000,0.0000000,0.000,0.000,0.000,0.000,0,00:00:00,-1020,0.000,0.000,91532.578,9.481,0.000,0.000,0.322,-9.746,-0.098,0.012,0.001,-0.007,0.000,0.000
34.128,0,0,-1.227,-0.003,-8.045,-1.259,-0.002,-12.548,-0.897,-0.005,-9.812,0.000,0.000,0.0116870,0.000,9144.000,0.004,1.852,5.346,0.572,915.195,9.474,849.865,0.377,-9.840,-0.049,0.501,-0.021,0.027,-0.004,0.000,0.000,0.000,-0.005,0.693,-0.001,0.721,0.0000000,0.0000000,0.000,0.000,0.000,0.000,0,00:00:00,-1020,0.000,0.000,91519.953,9.474,0.000,0.000,0.396,-9.773,0.000,-0.026,0.009,0.014,0.000,0.000
34.229,0,0,-1.228,-0.003,-7.999,-1.288,-0.001,-12.519,-0.936,0.016,-9.809,0.000,0.000,0.0116870,0.000,9144.000,0.004,2.306,5.403,0.572,915.195,9.474,849.865,0.370,-9.840,-0.049,0.501,-0.021,0.027,-0.004,0.000,0.000,0.000,-0.005,0.691,0.000,0.723,0.0000000,0.0000000,0.000,0.000,0.000,0.000,0,00:00:00,-1020,0.000,0.000,91519.953,9.474,0.000,0.000,0.396,-9.773,0.000,-0.026,0.009,0.014,0.000,0.000
34.330,0,0,-1.231,-0.002,-8.029,-1.297,0.019,-12.537,-0.732,0.193,-9.664,0.000,0.000,0.0116870,0.000,9144.000,0.004,2.533,5.462,0.587,915.252,9.477,849.348,-0.154,-9.686,0.146,0.352,0.022,0.019,-0.004,0.000,0.000,0.000,-0.000,0.693,0.003,0.721,0.0000000,0.0000000,0.000,0.000,0.000,0.000,0,00:00:00,-1020,0.000,0.000,91535.430,9.483,0.000,0.000,0.373,-9.752,-0.004,-0.014,0.001,0.001,0.000,0.000
34.431,0,0,-1.235,0.001,-8.002,-1.308,0.031,-12.524,-0.759,0.114,-9.812,0.000,0.000,0.0116870,0.000,9144.000,0.004,2.254,5.520,0.587,915.205,9.474,849.775,0.239,-9.835,0.062,0.374,-0.006,-0.011,-0.039,0.000,0.000,0.000,-0.001,0.693,0.003,0.721,0.0000000,0.0000000,0.000,0.000,0.000,0.000,0,00:00:00,-1020,0.000,0.000,91513.547,9.470,0.000,0.000,0.392,-9.759,-0.029,-0.001,-0.003,-0.006,0.000,0.000
34.532,0,0,-1.239,0.004,-8.021,-1.324,0.040,-12.543,-0.811,0.096,-9.770,0.000,0.000,0.0116870,0.000,9144.000,0.004,2.246,5.579,0.591,915.238,9.476,849.475,-0.073,-9.795,0.027,0.405,-0.020,-0.023,-0.026,0.000,0.000,0.000,-0.002,0.692,0.003,0.722,0.0000000,0.0000000,0.000,0.000,0.000,0.000,0,00:00:00,-1020,0.000,0.000,91530.047,9.480,0.000,0.000,0.343,-9.798,0.050,0.002,-0.008,-0.013,0.000,0.000
34.633,0,0,-1.244,0.008,-8.036,-1.315,0.047,-12.561,-0.568,0.076,-9.814,0.000,0.000,0.0116870,0.000,9144.000,0.004,2.373,5.638,0.590,915.238,9.476,849.477,-0.047,-9.827,-0.000,0.247,-0.007,0.012,0.006,0.000,0.000,0.000,-0.002,0.695,0.003,0.719,0.0000000,0.0000000,0.000,0.000,0.000,0.000,0,00:00:00,-1020,0.000,0.000,91515.977,9.472,0.000,0.000,0.339,-9.802,-0.046,0.004,0.010,-0.008,0.000,0.000
34.734,0,0,-1.247,0.013,-8.046,-1.318,0.077,-12.586,-0.682,0.304,-9.938,0.000,0.000,0.0116870,0.000,9144.000,0.004,1.872,5.696,0.578,915.227,9.476,849.571,-0.010,-9.957,0.215,0.347,-0.009,-0.005,-0.018,0.000,0.000,0.000,0.001,0.695,0.007,0.719,0.0000000,0.0000000,0.000,0.000,0.000,0.000,0,00:00:00,-1020,0.000,0.000,91526.086,9.477,0.000,0.000,0.305,-9.812,0.112,-0.009,-0.009,-0.004,0.000,0.000
34.835,0,0,-1.251,0.019,-8.090,-1.327,0.089,-12.631,-0.747,0.126,-9.891,0.000,0.000,0.0116870,0.000,9144.000,0.004,1.948,5.753,0.570,915.253,9.477,849.336,-0.255,-9.912,0.044,0.383,0.005,-0.010,-0.014,0.000,0.000,0.000,-0.000,0.694,0.005,0.720,0.0000000,0.0000000,0.000,0.000,0.000,0.000,0,00:00:00,-1020,0.000,0.000,91527.133,9.478,0.000,0.000,0.256,-9.676,0.091,0.012,-0.006,-0.010,0.000,0.000
34.936,0,0,-1.255,0.026,-8.095,-1.322,0.096,-12.654,-0.609,0.082,-10.004,0.000,0.000,0.0116870,0.000,9144.000,0.004,2.109,5.808,0.550,915.226,9.475,849.587,0.014,-10.019,-0.022,0.276,-0.025,-0.020,-0.025,0.000,0.000,0.000,-0.003,0.695,0.004,0.719,0.0000000,0.0000000,0.000,0.000,0.000,0.000,0,00:00:00,-1020,0.000,0.000,91519.852,9.474,0.000,0.000,0.495,-9.827,-0.023,-0.006,0.003,0.003,0.000,0.000
35.037,0,0,-1.259,0.032,-8.166,-1.338,0.098,-12.697,-0.820,0.042,-9.727,0.000,0.000,0.0116870,0.000,9144.000,0.004,1.903,5.864,0.559,915.274,9.478,849.154,-0.453,-9.751,-0.041,0.441,0.016,0.005,-0.018,0.000,0.000,0.000,-0.004,0.693,0.002,0.721,0.0000000,0.0000000,0.000,0.000,0.000,0.000,0,00:00:00,-1020,0.000,0.000,91517.875,9.473,0.000,0.000,0.279,-9.798,-0.051,0.003,-0.001,0.000,0.000,0.000
35.138,0,0,-1.262,0.039,-8.181,-1.319,0.123,-12.694,-0.480,0.264,-9.711,0.000,0.000,0.0116870,0.000,9144.000,0.004,2.232,5.921,0.568,915.233,9.476,849.519,-0.103,-9.723,0.198,0.192,0.020,-0.009,-0.011,0.000,0.000,0.000,0.001,0.696,0.005,0.718,0.0000000,0.0000000,0.000,0.000,0.000,0.000,0,00:00:00,-1020,0.000,0.000,91524.477,9.477,0.000,0.000,0.393,-9.731,-0.032,-0.003,-0.014,-0.006,0.000,0.000
35.239,0,0,-1.265,0.047,-8.190,-1.322,0.122,-12.705,-0.700,0.019,-9.893,0.000,0.000,0.0116870,0.000,9144.000,0.004,1.709,5.977,0.560,915.228,9.476,849.567,-0.071,-9.911,-0.017,0.364,0.034,-0.015,0.046,0.000,0.000,0.000,0.001,0.695,0.003,0.719,0.0000000,0.0000000,0.000,0.000,0.000,0.000,0,00:00:00,-1020,0.000,0.000,91524.531,9.477,0.000,0.000,0.305,-9.821,0.001,0.004,0.003,0.007,0.000,0.000
35.340,0,0,-1.267,0.054,-8.183,-1.310,0.134,-12.698,-0.543,0.145,-9.856,0.000,0.000,0.0116870,0.000,9144.000,0.004,1.948,6.032,0.555,915.219,9.475,849.646,0.044,-9.869,0.081,0.256,-0.029,0.017,0.018,0.000,0.000,0.000,0.001,0.697,0.005,0.717,0.0000000,0.0000000,0.000,0.000,0.000,0.000,0,00:00:00,-1020,0.000,0.000,91519.398,9.474,0.000,0.000,0.346,-9.748,-0.016,-0.018,-0.009,-0.016,0.000,0.000
35.441,0,0,-1.268,0.062,-8.159,-1.311,0.150,-12.672,-0.681,0.188,-9.775,0.000,0.000,0.0116870,0.000,9144.000,0.004,1.671,6.088,0.559,915.206,9.474,849.768,0.162,-9.793,0.095,0.366,-0.028,0.018,0.019,0.000,0.000,0.000,0.000,0.696,0.007,0.718,0.0000000,0.0000000,0.000,0.000,0.000,0.000,0,00:00:00,-1020,0.000,0.000,91520.453,9.474,0.000,0.000,0.273,-9.854,-0.065,0.005,0.013,0.002,0.000,0.000
35.542,0,0,-1.269,0.071,-8.136,-1.314,0.168,-12.649,-0.697,0.217,-9.773,0.000,0.000,0.0116870,0.000,9144.000,0.004,1.855,6.145,0.563,915.206,9.474,849.768,0.165,-9.793,0.095,0.366,-0.028,0.018,0.019,0.000,0.000,0.000,-0.000,0.695,0.008,0.719,0.0000000,0.0000000,0.000,0.000,0.000,0.000,0,00:00:00,-1020,0.000,0.000,91520.453,9.474,0.000,0.000,0.273,-9.854,-0.065,0.005,0.013,0.002,0.000,0.000
35.643,0,0,-1.269,0.079,-8.155,-1.300,0.154,-12.653,-0.522,-0.093,-9.724,0.000,0.000,0.0116870,0.000,9144.000,0.004,1.948,6.202,0.571,915.239,9.476,849.471,-0.127,-9.733,-0.250,0.247,-0.042,0.028,0.020,0.000,0.000,0.000,-0.008,0.697,0.004,0.717,0.0000000,0.0000000,0.000,0.000,0.000,0.000,0,00:00:00,-1020,0.000,0.000,91514.188,9.470,0.000,0.000,0.353,-9.870,0.025,0.001,-0.004,0.017,0.000,0.000
35.744,0,0,-1.267,0.086,-8.178,-1.261,0.160,-12.667,-0.280,0.104,-9.782,0.000,0.000,0.0116870,0.000,9144.000,0.004,1.621,6.259,0.574,915.246,9.477,849.404,-0.177,-9.786,-0.068,0.092,-0.014,-0.006,-0.013,0.000,0.000,0.000,-0.009,0.700,0.004,0.714,0.0000000,0.0000000,0.000,0.000,0.000,0.000,0,00:00:00,-1020,0.000,0.000,91531.047,9.480,0.000,0.000,0.295,-9.774,-0.091,0.004,0.011,-0.000,0.000,0.000
35.845,0,0,-1.264,0.094,-8.166,-1.274,0.181,-12.641,-0.797,0.257,-9.665,0.000,0.000,0.0116870,0.000,9144.000,0.004,1.097,6.318,0.589,915.219,9.475,849.646,0.059,-9.689,0.094,0.472,0.009,0.006,0.007,0.000,0.000,0.000,-0.005,0.695,0.007,0.719,0.0000000,0.0000000,0.000,0.000,0.000,0.000,0,00:00:00,-1020,0.000,0.000,91524.492,9.477,0.000,0.000,0.373,-9.790,0.099,0.005,-0.003,-0.008,0.000,0.000
35.946,0,0,-1.263,0.101,-8.177,-1.290,0.176,-12.653,-0.825,0.001,-9.849,0.000,0.000,0.0116870,0.000,9144.000,0.004,1.926,6.376,0.585,915.235,9.476,849.506,-0.102,-9.872,-0.195,0.433,-0.034,-0.019,0.015,0.000,0.000,0.000,-0.010,0.693,0.004,0.721,0.0000000,0.0000000,0.000,0.000,0.000,0.000,0,00:00:00,-1020,0.000,0.000,91530.852,9.480,0.000,0.000,0.402,-9.788,-0.110,0.002,-0.005,0.003,0.000,0.000
36.047,0,0,-1.263,0.108,-8.148,-1.303,0.177,-12.611,-0.794,0.068,-9.617,0.000,0.000,0.0116870,0.000,9144.000,0.004,2.274,6.437,0.604,915.211,9.475,849.716,0.170,-9.641,-0.134,0.396,-0.013,-0.018,-0.005,0.000,0.000,0.000,-0.012,0.692,0.004,0.722,0.0000000,0.0000000,0.000,0.000,0.000,0.000,0,00:00:00,-1020,0.000,0.000,91508.609,9.467,0.000,0.000,0.427,-9.878,0.008,-0.002,0.004,0.001,0.000,0.000
36.148,0,0,-1.265,0.115,-8.123,-1.320,0.201,-12.591,-0.828,0.294,-9.777,0.000,0.000,0.0116870,0.000,9144.000,0.004,2.363,6.497,0.607,915.217,9.475,849.662,0.151,-9.807,0.074,0.412,-0.009,-0.019,0.027,0.000,0.000,0.000,-0.008,0.692,0.008,0.722,0.0000000,0.0000000,0.000,0.000,0.000,0.000,0,00:00:00,-1020,0.000,0.000,91536.867,9.484,0.000,0.000,0.266,-9.808,0.052,0.008,0.018,0.007,0.000,0.000
36.249,0,0,-1.267,0.123,-8.090,-1.333,0.213,-12.553,-0.791,0.187,-9.644,0.000,0.000,0.0116870,0.000,9144.000,0.004,2.437,6.560,0.624,915.214,9.475,849.696,0.215,-9.671,-0.020,0.387,0.010,-0.013,0.000,0.000,0.000,0.000,-0.008,0.692,0.007,0.722,0.0000000,0.0000000,0.000,0.000,0.000,0.000,0,00:00:00,-1020,0.000,0.000,91519.023,9.473,0.000,0.000,0.410,-9.823,-0.016,-0.012,0.009,0.010,0.000,0.000
36.350,0,0,-1.271,0.131,-8.147,-1.344,0.218,-12.596,-0.779,0.120,-9.742,0.000,0.000,0.0116870,0.000,9144.000,0.004,2.401,6.623,0.631,915.280,9.479,849.098,-0.413,-9.767,-0.081,0.373,0.005,-0.031,-0.033,0.000,0.000,0.000,-0.010,0.692,0.005,0.722,0.0000000,0.0000000,0.000,0.000,0.000,0.000,0,00:00:00,-1020,0.000,0.000,91518.523,9.473,0.000,0.000,0.363,-9.695,-0.068,-0.000,0.004,0.011,0.000,0.000
36.451,0,0,-1.276,0.139,-8.163,-1.367,0.230,-12.596,-0.897,0.188,-9.668,0.000,0.000,0.0116870,0.000,9144.000,0.005,2.383,6.687,0.645,915.251,9.477,849.359,-0.151,-9.700,-0.013,0.456,-0.005,-0.023,-0.039,0.000,0.000,0.000,-0.009,0.691,0.006,0.723,0.0000000,0.0000000,0.000,0.000,0.000,0.000,0,00:00:00,-1020,0.000,0.000,91519.898,9.474,0.000,0.000,0.435,-9.911,-0.012,0.010,0.004,-0.006,0.000,0.000
36.552,0,0,-1.282,0.148,-8.180,-1.391,0.241,-12.598,-0.915,0.192,-9.666,0.000,0.000,0.0116870,0.000,9144.000,0.005,2.602,6.753,0.659,915.251,9.477,849.359,-0.180,-9.700,-0.013,0.456,-0.005,-0.023,-0.039,0.000,0.000,0.000,-0.009,0.690,0.006,0.724,0.0000000,0.0000000,0.000,0.000,0.000,0.000,0,00:00:00,-1020,0.000,0.000,91519.898,9.474,0.000,0.000,0.435,-9.911,-0.012,0.010,0.004,-0.006,0.000,0.000
36.653,0,0,-1.289,0.157,-8.168,-1.389,0.260,-12.603,-0.661,0.265,-9.930,0.000,0.000,0.0116870,0.000,9144.000,0.005,2.711,6.818,0.647,915.228,9.476,849.566,0.027,-9.951,0.055,0.288,0.002,0.013,-0.029,0.000,0.000,0.000,-0.008,0.694,0.007,0.720,0.0000000,0.0000000,0.000,0.000,0.000,0.000,0,00:00:00,-1020,0.000,0.000,91537.633,9.484,0.000,0.000,0.305,-9.811,0.050,-0.007,-0.017,0.001,0.000,0.000
36.754,0,0,-1.295,0.166,-8.112,-1.388,0.263,-12.580,-0.668,0.115,-9.970,0.000,0.000,0.0116870,0.000,9144.000,0.005,2.147,6.881,0.631,915.194,9.474,849.871,0.349,-9.986,-0.149,0.327,-0.057,0.021,-0.015,0.000,0.000,0.000,-0.013,0.695,0.006,0.719,0.0000000,0.0000000,0.000,0.000,0.000,0.000,0,00:00:00,-1020,0.000,0.000,91524.594,9.477,0.000,0.000,0.391,-9.724,-0.067,-0.002,-0.012,-0.002,0.000,0.000
36.855,0,0,-1.301,0.176,-8.063,-1.400,0.292,-12.536,-0.801,0.382,-9.691,0.000,0.000,0.0116870,0.000,9144.000,0.005,1.953,6.945,0.643,915.192,9.473,849.891,0.338,-9.721,0.144,0.426,0.023,0.005,-0.019,0.000,0.000,0.000,-0.008,0.693,0.009,0.721,0.0000000,0.0000000,0.000,0.000,0.000,0.000,0,00:00:00,-1020,0.000,0.000,91526.586,9.478,0.000,0.000,0.330,-9.767,0.034,-0.003,-0.006,-0.007,0.000,0.000
36.956,0,0,-1.307,0.188,-8.070,-1.396,0.325,-12.553,-0.653,0.431,-9.856,0.000,0.000,0.0116870,0.000,9144.000,0.005,2.218,7.009,0.638,915.235,9.476,849.506,-0.039,-9.881,0.146,0.313,-0.043,0.008,-0.027,0.000,0.000,0.000,-0.007,0.695,0.013,0.719,0.0000000,0.0000000,0.000,0.000,0.000,0.000,0,00:00:00,-1020,0.000,0.000,91519.438,9.474,0.000,0.000,0.338,-9.850,0.075,0.024,-0.012,-0.009,0.000,0.000
37.057,0,0,-1.312,0.201,-8.079,-1.393,0.351,-12.564,-0.654,0.363,-9.787,0.000,0.000,0.0116870,0.000,9144.000,0.005,1.992,7.073,0.641,915.230,9.476,849.552,-0.049,-9.810,0.061,0.323,-0.020,-0.001,-0.011,0.000,0.000,0.000,-0.008,0.695,0.013,0.719,0.0000000,0.0000000,0.000,0.000,0.000,0.000,0,00:00:00,-1020,0.000,0.000,91521.523,9.475,0.000,0.000,0.295,-9.768,0.017,0.007,0.008,-0.010,0.000,0.000
37.158,0,0,-1.317,0.215,-8.109,-1.405,0.366,-12.578,-0.813,0.255,-9.672,0.000,0.000,0.0116870,0.000,9144.000,0.005,1.944,7.139,0.655,915.245,9.477,849.410,-0.205,-9.699,-0.030,0.441,0.011,0.024,-0.012,0.000,0.000,0.000,-0.010,0.693,0.011,0.720,0.0000000,0.0000000,0.000,0.000,0.000,0.000,0,00:00:00,-1020,0.000,0.000,91535.727,9.483,0.000,0.000,0.394,-9.755,0.034,-0.010,0.011,-0.019,0.000,0.000
37.259,0,0,-1.321,0.229,-8.177,-1.400,0.382,-12.618,-0.645,0.278,-9.659,0.000,0.000,0.0116870,0.000,9144.000,0.005,2.204,7.206,0.670,915.276,9.478,849.130,-0.499,-9.679,-0.009,0.305,-0.002,-0.004,0.009,0.000,0.000,0.000,-0.010,0.694,0.011,0.719,0.0000000,0.0000000,0.000,0.000,0.000,0.000,0,00:00:00,-1020,0.000,0.000,91523.953,9.476,0.000,0.000,0.316,-9.867,0.004,0.003,-0.009,0.003,0.000,0.000
37.360,0,0,-1.325,0.243,-8.232,-1.393,0.397,-12.646,-0.629,0.279,-9.660,0.000,0.000,0.0116870,0.000,9144.000,0.005,2.016,7.274,0.685,915.276,9.478,849.130,-0.444,-9.679,-0.009,0.305,-0.002,-0.004,0.009,0.000,0.000,0.000,-0.010,0.695,0.011,0.719,0.0000000,0.0000000,0.000,0.000,0.000,0.000,0,00:00:00,-1020,0.000,0.000,91523.953,9.476,0.000,0.000,0.316,-9.867,0.004,0.003,-0.009,0.003,0.000,0.000
37.461,0,0,-1.328,0.258,-8.209,-1.387,0.417,-12.625,-0.639,0.331,-9.777,0.000,0.000,0.0116870,0.000,9144.000,0.005,1.922,7.343,0.688,915.224,9.475,849.604,0.072,-9.798,0.032,0.316,-0.008,-0.004,-0.014,0.000,0.000,0.000,-0.010,0.695,0.011,0.719,0.0000000,0.0000000,0.000,0.000,0.000,0.000,0,00:00:00,-1020,0.000,0.000,91525.609,9.477,0.000,0.000,0.344,-9.751,0.090,0.007,0.008,0.000,0.000,0.000
37.562,0,0,-1.330,0.273,-8.179,-1.381,0.440,-12.593,-0.641,0.379,-9.709,0.000,0.000,0.0116870,0.000,9144.000,0.005,1.895,7.413,0.698,915.221,9.475,849.628,0.136,-9.732,0.095,0.320,0.015,-0.005,0.000,0.000,0.000,0.000,-0.008,0.695,0.012,0.719,0.0000000,0.0000000,0.000,0.000,0.000,0.000,0,00:00:00,-1020,0.000,0.000,91530.742,9.480,0.000,0.000,0.294,-9.790,0.032,0.006,0.009,0.003,0.000,0.000
37.663,0,0,-1.332,0.288,-8.143,-1.386,0.456,-12.566,-0.755,0.304,-9.777,0.000,0.000,0.0116870,0.000,9144.000,0.005,1.903,7.483,0.701,915.215,9.475,849.686,0.185,-9.803,0.029,0.395,0.013,-0.006,0.040,0.000,0.000,0.000,-0.007,0.694,0.012,0.720,0.0000000,0.0000000,0.000,0.000,0.000,0.000,0,00:00:00,-1020,0.000,0.000,91522.172,9.475,0.000,0.000,0.349,-9.717,-0.068,-0.004,-0.018,-0.020,0.000,0.000
37.764,0,0,-1.334,0.303,-8.098,-1.395,0.457,-12.537,-0.791,0.175,-9.809,0.000,0.000,0.0116870,0.000,9144.000,0.005,2.121,7.553,0.702,915.200,9.474,849.823,0.275,-9.834,-0.075,0.395,0.023,-0.036,-0.012,0.000,0.000,0.000,-0.009,0.693,0.009,0.721,0.0000000,0.0000000,0.000,0.000,0.000,0.000,0,00:00:00,-1020,0.000,0.000,91519.758,9.474,0.000,0.000,0.333,-9.791,-0.031,0.014,0.004,-0.008,0.000,0.000
37.865,0,0,-1.336,0.317,-8.070,-1.385,0.471,-12.527,-0.595,0.297,-9.835,0.000,0.000,0.0116870,0.000,9144.000,0.005,2.311,7.623,0.699,915.208,9.474,849.745,0.173,-9.853,0.052,0.275,0.005,0.030,-0.024,0.000,0.000,0.000,-0.008,0.695,0.009,0.718,0.0000000,0.0000000,0.000,0.000,0.000,0.000,0,00:00:00,-1020,0.000,0.000,91517.188,9.472,0.000,0.000,0.333,-9.771,-0.040,0.006,0.005,-0.006,0.000,0.000
37.966,0,0,-1.337,0.331,-8.046,-1.370,0.483,-12.519,-0.557,0.292,-9.837,0.000,0.000,0.0116870,0.000,9144.000,0.005,1.869,7.693,0.696,915.208,9.474,849.745,0.173,-9.853,0.052,0.275,0.005,0.030,-0.024,0.000,0.000,0.000,-0.008,0.697,0.009,0.717,0.0000000,0.0000000,0.000,0.000,0.000,0.000,0,00:00:00,-1020,0.000,0.000,91517.188,9.472,0.000,0.000,0.333,-9.771,-0.040,0.006,0.005,-0.006,0.000,0.000
38.067,0,0,-1.337,0.344,-8.063,-1.368,0.482,-12.540,-0.687,0.175,-9.807,0.000,0.000,0.0116870,0.000,9144.000,0.005,1.647,7.762,0.697,915.240,9.476,849.454,-0.102,-9.825,-0.057,0.357,0.006,-0.020,0.005,0.000,0.000,0.000,-0.009,0.695,0.008,0.719,0.0000000,0.0000000,0.000,0.000,0.000,0.000,0,00:00:00,-1020,0.000,0.000,91520.180,9.474,0.000,0.000,0.369,-9.760,-0.057,-0.014,0.001,-0.002,0.000,0.000
38.168,0,0,-1.336,0.356,-8.081,-1.353,0.484,-12.565,-0.548,0.210,-9.849,0.000,0.000,0.0116870,0.000,9144.000,0.005,1.922,7.832,0.693,915.245,9.477,849.417,-0.114,-9.863,-0.010,0.253,0.014,-0.005,-0.016,0.000,0.000,0.000,-0.009,0.696,0.007,0.718,0.0000000,0.0000000,0.000,0.000,0.000,0.000,0,00:00:00,-1020,0.000,0.000,91530.391,9.480,0.000,0.000,0.400,-9.769,-0.013,-0.006,-0.000,0.020,0.000,0.000
38.269,0,0,-1.334,0.367,-8.081,-1.343,0.502,-12.560,-0.601,0.367,-9.714,0.000,0.000,0.0116870,0.000,9144.000,0.005,1.712,7.902,0.702,915.237,9.476,849.487,0.013,-9.734,0.147,0.299,-0.001,-0.021,0.014,0.000,0.000,0.000,-0.005,0.696,0.011,0.718,0.0000000,0.0000000,0.000,0.000,0.000,0.000,0,00:00:00,-1020,0.000,0.000,91514.367,9.471,0.000,0.000,0.369,-9.801,0.008,-0.016,-0.005,0.011,0.000,0.000
38.370,0,0,-1.330,0.379,-8.110,-1.320,0.509,-12.582,-0.474,0.268,-9.746,0.000,0.000,0.0116870,0.000,9144.000,0.005,1.795,7.973,0.709,915.260,9.477,849.275,-0.202,-9.758,0.032,0.221,-0.018,0.020,-0.034,0.000,0.000,0.000,-0.007,0.698,0.010,0.716,0.0000000,0.0000000,0.000,0.000,0.000,0.000,0,00:00:00,-1020,0.000,0.000,91532.008,9.481,0.000,0.000,0.263,-9.735,0.027,-0.008,0.002,-0.003,0.000,0.000
38.471,0,0,-1.326,0.390,-8.072,-1.307,0.504,-12.560,-0.568,0.154,-9.846,0.000,0.000,0.0116870,0.000,9144.000,0.005,1.491,8.043,0.705,915.205,9.474,849.771,0.269,-9.859,-0.091,0.287,-0.008,-0.019,0.025,0.000,0.000,0.000,-0.009,0.697,0.008,0.717,0.0000000,0.0000000,0.000,0.000,0.000,0.000,0,00:00:00,-1020,0.000,0.000,91519.750,9.474,0.000,0.000,0.411,-9.819,-0.051,-0.008,0.006,-0.009,0.000,0.000
38.572,0,0,-1.320,0.399,-8.096,-1.300,0.494,-12.603,-0.632,0.116,-9.994,0.000,0.000,0.0116870,0.000,9144.000,0.005,1.634,8.112,0.687,915.249,9.477,849.376,-0.153,-10.008,-0.153,0.332,-0.022,0.018,-0.004,0.000,0.000,0.000,-0.013,0.696,0.007,0.718,0.0000000,0.0000000,0.000,0.000,0.000,0.000,0,00:00:00,-1020,0.000,0.000,91520.820,9.474,0.000,0.000,0.410,-9.798,0.054,0.000,-0.003,-0.002,0.000,0.000
38.673,0,0,-1.315,0.406,-8.119,-1.286,0.482,-12.628,-0.553,0.092,-9.872,0.000,0.000,0.0116870,0.000,9144.000,0.005,1.715,8.180,0.681,915.247,9.477,849.398,-0.143,-9.882,-0.182,0.273,-0.011,0.012,-0.041,0.000,0.000,0.000,-0.015,0.697,0.005,0.717,0.0000000,0.0000000,0.000,0.000,0.000,0.000,0,00:00:00,-1020,0.000,0.000,91523.055,9.476,0.000,0.000,0.329,-9.849,-0.004,0.005,-0.000,0.020,0.000,0.000
38.774,0,0,-1.309,0.413,-8.129,-1.283,0.490,-12.633,-0.658,0.296,-9.779,0.000,0.000,0.0116870,0.000,9144.000,0.005,1.615,8.248,0.684,915.238,9.476,849.477,-0.059,-9.799,0.018,0.348,-0.005,0.008,-0.008,0.000,0.000,0.000,-0.013,0.696,0.008,0.718,0.0000000,0.0000000,0.000,0.000,0.000,0.000,0,00:00:00,-1020,0.000,0.000,91525.836,9.477,0.000,0.000,0.282,-9.796,-0.030,-0.004,-0.004,0.009,0.000,0.000
38.875,0,0,-1.304,0.419,-8.136,-1.282,0.498,-12.635,-0.673,0.302,-9.777,0.000,0.000,0.0116870,0.000,9144.000,0.005,1.800,8.317,0.687,915.238,9.476,849.477,-0.044,-9.799,0.018,0.348,-0.005,0.008,-0.008,0.000,0.000,0.000,-0.011,0.695,0.009,0.719,0.0000000,0.0000000,0.000,0.000,0.000,0.000,0,00:00:00,-1020,0.000,0.000,91525.836,9.477,0.000,0.000,0.282,-9.796,-0.030,-0.004,-0.004,0.009,0.000,0.000
38.976,0,0,-1.300,0.425,-8.127,-1.312,0.499,-12.640,-0.978,0.231,-9.936,0.000,0.000,0.0116870,0.000,9144.000,0.005,1.893,8.385,0.674,915.222,9.475,849.619,0.073,-9.972,-0.055,0.546,0.000,0.010,-0.005,0.000,0.000,0.000,-0.012,0.692,0.009,0.722,0.0000000,0.0000000,0.000,0.000,0.000,0.000,0,00:00:00,-1020,0.000,0.000,91519.125,9.473,0.000,0.000,0.341,-9.793,0.071,-0.019,-0.011,-0.006,0.000,0.000
39.077,0,0,-1.300,0.431,-8.117,-1.347,0.499,-12.645,-1.030,0.230,-9.931,0.000,0.000,0.0116870,0.000,9144.000,0.005,2.483,8.451,0.662,915.222,9.475,849.619,0.083,-9.972,-0.055,0.546,0.000,0.010,-0.005,0.000,0.000,0.000,-0.012,0.690,0.009,0.724,0.0000000,0.0000000,0.000,0.000,0.000,0.000,0,00:00:00,-1020,0.000,0.000,91519.125,9.473,0.000,0.000,0.341,-9.793,0.071,-0.019,-0.011,-0.006,0.000,0.000
