State - Time (s),State - Stage,State - Stage,State - PX (m),State - PY (m),State - PZ (m),State - VX (m/s),State - VY (m/s),State - VZ (m/s),State - AX (m/s/s),State - AY (m/s/s),State - AZ (m/s/s),State - Actuation Angle (deg),State - Acutal Angle (deg),State - CdA,State - Est Apo (m),State - Target Apogee (m),State - Mach Number,State - Tilt [deg],State - Pos - Accel Integrated [m],State - Velo - Accel Integrated [m/s],DPS368 - Pres (hPa),DPS368 - Temp (C),DPS368 - Alt ASL (m),DPS368 - Alt AGL (m),BMI088andLIS3MDL - AccX (m/s^2),BMI088andLIS3MDL - AccY (m/s^2),BMI088andLIS3MDL - AccZ (m/s^2),BMI088andLIS3MDL - GyroX (rad/s),BMI088andLIS3MDL - GyroY (rad/s),BMI088andLIS3MDL - GyroZ (rad/s),BMI088andLIS3MDL - MagX (uT),BMI088andLIS3MDL - MagY (uT),BMI088andLIS3MDL - MagZ (uT),BMI088andLIS3MDL - OriX,BMI088andLIS3MDL - OriY,BMI088andLIS3MDL - OriZ,BMI088andLIS3MDL - OriW,MAX-M10S - Lat,MAX-M10S - Lon,MAX-M10S - Alt (m),MAX-M10S - Disp X (m),MAX-M10S - Disp Y (m),MAX-M10S - Disp Z (m),MAX-M10S - Fix Quality,MAX-M10S - Time of Day,E5 - Rel Steps,BR - Battery Voltage (V),BR - ALT (m),BR - PRES (Pa),BR - TEMP (C),BR - VEL (m/s),BR - ANG (deg),BR - ACCX (m/s^2),BR - ACCY (m/s^2),BR - ACCZ (m/s^2),BR - GYROX (rad/s),BR - GYROY (rad/s),BR - GYROZ (rad/s),BR - ROLL (deg),BR - TILT (deg)
14.553,0,0,55.351,-282.516,-1028.233,7.607,-38.826,-141.309,0.523,-2.668,-9.710,0.000,0.000,0.0116870,0.000,9144.000,0.114,4.000,0.001,0.010,918.276,28.154,822.065,0.000,10.078,-0.129,0.316,-0.032,-0.019,0.000,4198.000,-1273.000,-13988.000,0.082,-0.693,0.097,0.710,0.0000000,0.0000000,0.000,0.000,0.000,0.000,0,00:00:00,0,0.000,0.000,0.000,0.000,0.000,0.000,0.000,0.000,0.000,0.000,0.000,0.000,0.000,0.000
14.654,0,0,0.020,-0.102,-0.059,-0.046,0.259,0.991,0.564,-2.652,-9.593,0.000,0.000,0.0116870,0.000,9144.000,0.001,1.501,0.004,0.032,918.273,28.157,822.095,0.015,9.963,-0.165,0.316,-0.021,0.023,-0.034,4273.000,-1268.000,-13967.000,0.082,-0.692,0.096,0.711,0.0000000,0.0000000,0.000,0.000,0.000,0.000,0,00:00:00,0,0.000,-0.305,91871.383,27.339,0.000,0.000,-0.128,9.830,-0.157,-0.001,0.002,-0.001,0.000,0.000
14.755,0,0,0.009,-0.044,0.002,-0.002,-0.003,0.015,0.453,-2.658,-9.677,0.000,0.000,0.0116870,0.000,9144.000,0.000,1.725,0.009,0.045,918.272,28.154,822.098,0.012,10.042,-0.165,0.215,-0.009,0.040,-0.079,4227.000,-1284.000,-13979.000,0.083,-0.692,0.094,0.711,0.0000000,0.0000000,0.000,0.000,0.000,0.000,0,00:00:00,0,0.000,0.000,91871.383,27.339,0.000,0.000,-0.059,9.790,-0.128,-0.001,0.001,-0.001,0.000,0.000
14.856,0,0,0.007,-0.038,-0.026,0.040,-0.266,-0.956,0.420,-2.622,-9.645,0.000,0.000,0.0116870,0.000,9144.000,0.001,1.593,0.015,0.061,918.272,28.158,822.103,0.013,9.999,-0.244,0.237,-0.113,0.011,0.166,4238.000,-1291.000,-13891.000,0.074,-0.694,0.095,0.710,0.0000000,0.0000000,0.000,0.000,0.000,0.000,0,00:00:00,0,0.000,0.610,91861.242,27.339,0.000,0.000,-0.137,9.859,-0.196,-0.001,0.002,-0.001,0.000,0.000
14.957,0,0,0.009,-0.058,-0.122,0.068,-0.526,-1.922,0.280,-2.607,-9.638,0.000,0.000,0.0116870,0.000,9144.000,0.002,1.499,0.023,0.079,918.270,28.152,822.116,0.020,9.984,-0.223,0.165,0.015,-0.085,-0.102,4213.000,-1320.000,-13929.000,0.078,-0.697,0.093,0.707,0.0000000,0.0000000,0.000,0.000,0.000,0.000,0,00:00:00,0,0.000,0.000,91871.383,27.339,0.000,0.000,-0.069,9.761,-0.137,-0.001,0.001,-0.001,0.000,0.000
15.058,0,0,0.014,-0.098,-0.288,0.106,-0.779,-2.894,0.380,-2.537,-9.742,0.000,0.000,0.0116870,0.000,9144.000,0.002,0.980,0.031,0.085,918.272,28.155,822.097,0.001,10.070,-0.129,0.259,0.000,-0.119,-0.098,4232.000,-1269.000,-13956.000,0.081,-0.697,0.090,0.707,0.0000000,0.0000000,0.000,0.000,0.000,0.000,0,00:00:00,0,0.000,-0.305,91871.383,27.339,0.000,0.000,-0.128,9.702,-0.167,-0.001,0.002,-0.002,0.000,0.000
15.159,0,0,0.022,-0.156,-0.516,0.144,-1.033,-3.849,0.382,-2.563,-9.654,0.000,0.000,0.0116870,0.000,9144.000,0.003,0.884,0.041,0.101,918.272,28.154,822.098,0.002,9.991,-0.165,0.266,0.011,-0.126,-0.072,4198.000,-1295.000,-13929.000,0.081,-0.697,0.090,0.707,0.0000000,0.0000000,0.000,0.000,0.000,0.000,0,00:00:00,0,0.000,-0.305,91881.508,27.344,0.000,0.000,-0.059,9.790,-0.137,-0.000,0.002,-0.001,0.000,0.000
15.260,0,0,0.032,-0.231,-0.804,0.169,-1.286,-4.794,0.257,-2.564,-9.671,0.000,0.000,0.0116870,0.000,9144.000,0.004,0.844,0.053,0.115,918.273,28.157,822.095,-0.001,10.006,-0.201,0.158,-0.038,-0.017,0.009,4204.000,-1301.000,-13958.000,0.078,-0.698,0.090,0.706,0.0000000,0.0000000,0.000,0.000,0.000,0.000,0,00:00:00,0,0.000,-0.305,91871.383,27.339,0.000,0.000,-0.039,9.820,-0.108,-0.001,0.002,0.000,0.000,0.000
15.361,0,0,0.044,-0.322,-1.149,0.210,-1.538,-5.719,0.417,-2.572,-9.631,0.000,0.000,0.0116870,0.000,9144.000,0.004,0.824,0.066,0.133,918.273,28.159,822.086,-0.008,9.970,-0.294,0.237,-0.081,0.128,0.053,4185.000,-1282.000,-13956.000,0.071,-0.694,0.091,0.710,0.0000000,0.0000000,0.000,0.000,0.000,0.000,0,00:00:00,0,0.000,0.000,91871.383,27.339,0.000,0.000,-0.078,9.859,-0.157,-0.000,0.001,-0.001,0.000,0.000
15.462,0,0,0.059,-0.430,-1.544,0.240,-1.788,-6.630,0.314,-2.577,-9.719,0.000,0.000,0.0116870,0.000,9144.000,0.005,1.455,0.080,0.142,918.273,28.157,822.095,0.000,10.056,-0.187,0.187,0.092,-0.038,0.100,4226.000,-1279.000,-13907.000,0.074,-0.696,0.095,0.708,0.0000000,0.0000000,0.000,0.000,0.000,0.000,0,00:00:00,0,0.000,0.000,91871.383,27.339,0.000,0.000,-0.078,9.859,-0.157,-0.000,0.001,-0.001,0.000,0.000
15.563,0,0,0.075,-0.552,-1.988,0.266,-2.033,-7.506,0.275,-2.542,-9.655,0.000,0.000,0.0116870,0.000,9144.000,0.006,1.157,0.096,0.157,918.274,28.163,822.083,-0.012,9.984,-0.208,0.158,-0.038,0.009,0.002,4216.000,-1268.000,-13981.000,0.074,-0.697,0.092,0.708,0.0000000,0.0000000,0.000,0.000,0.000,0.000,0,00:00:00,0,0.000,0.305,91861.242,27.339,0.000,0.000,-0.078,9.771,-0.206,-0.001,0.001,-0.000,0.000,0.000
15.664,0,0,0.093,-0.689,-2.469,0.314,-2.273,-8.348,0.489,-2.527,-9.695,0.000,0.000,0.0116870,0.000,9144.000,0.007,1.053,0.113,0.169,918.273,28.158,822.095,-0.000,10.027,-0.122,0.259,0.066,0.075,-0.202,4209.000,-1269.000,-13933.000,0.082,-0.693,0.089,0.711,0.0000000,0.0000000,0.000,0.000,0.000,0.000,0,00:00:00,0,0.000,0.305,91861.242,27.339,0.000,0.000,-0.078,9.771,-0.206,-0.001,0.001,-0.000,0.000,0.000
15.765,0,0,0.115,-0.840,-2.982,0.369,-2.523,-9.142,0.576,-2.670,-9.672,0.000,0.000,0.0116870,0.000,9144.000,0.007,1.481,0.131,0.183,918.275,28.169,822.069,-0.025,10.042,-0.208,0.366,0.053,-0.115,-0.015,4268.000,-1254.000,-13986.000,0.081,-0.693,0.093,0.710,0.0000000,0.0000000,0.000,0.000,0.000,0.000,0,00:00:00,0,0.000,-0.305,91871.383,27.339,0.000,0.000,-0.137,9.810,-0.078,-0.001,0.001,-0.001,0.000,0.000
15.866,0,0,0.140,-1.004,-3.512,0.410,-2.772,-9.881,0.434,-2.694,-9.691,0.000,0.000,0.0116870,0.000,9144.000,0.008,1.457,0.151,0.195,918.272,28.162,822.099,0.004,10.063,-0.180,0.251,0.051,-0.060,-0.064,4208.000,-1264.000,-13914.000,0.084,-0.694,0.094,0.709,0.0000000,0.0000000,0.000,0.000,0.000,0.000,0,00:00:00,0,0.000,-0.305,91871.383,27.339,0.000,0.000,-0.137,9.810,-0.078,-0.001,0.001,-0.001,0.000,0.000
15.967,0,0,0.167,-1.181,-4.052,0.446,-3.006,-10.547,0.396,-2.608,-9.611,0.000,0.000,0.0116870,0.000,9144.000,0.009,1.274,0.172,0.214,918.274,28.162,822.084,-0.011,9.963,-0.144,0.237,-0.026,-0.072,-0.060,4217.000,-1279.000,-13907.000,0.084,-0.695,0.093,0.708,0.0000000,0.0000000,0.000,0.000,0.000,0.000,0,00:00:00,0,0.000,0.000,91871.383,27.344,0.000,0.000,-0.098,9.879,-0.088,-0.001,0.001,-0.001,0.000,0.000
16.068,0,0,0.195,-1.369,-4.587,0.475,-3.240,-11.144,0.343,-2.662,-9.637,0.000,0.000,0.0116870,0.000,9144.000,0.009,1.110,0.195,0.232,918.273,28.164,822.090,-0.005,9.999,-0.223,0.223,-0.036,-0.058,0.066,4242.000,-1268.000,-13902.000,0.079,-0.696,0.095,0.707,0.0000000,0.0000000,0.000,0.000,0.000,0.000,0,00:00:00,0,0.000,0.000,91871.383,27.344,0.000,0.000,-0.098,9.879,-0.088,-0.001,0.001,-0.001,0.000,0.000
16.169,0,0,0.224,-1.566,-5.105,0.499,-3.456,-11.668,0.289,-2.557,-9.672,0.000,0.000,0.0116870,0.000,9144.000,0.010,1.027,0.220,0.246,918.272,28.176,822.096,0.001,10.006,-0.136,0.158,-0.021,0.013,-0.038,4242.000,-1269.000,-13877.000,0.080,-0.696,0.092,0.707,0.0000000,0.0000000,0.000,0.000,0.000,0.000,0,00:00:00,0,0.000,0.000,91871.383,27.344,0.000,0.000,-0.108,9.790,-0.177,0.000,0.001,0.000,0.000,0.000
16.270,0,0,0.254,-1.771,-5.597,0.538,-3.666,-12.114,0.463,-2.576,-9.700,0.000,0.000,0.0116870,0.000,9144.000,0.011,1.001,0.246,0.257,918.273,28.170,822.094,-0.001,10.042,-0.122,0.309,0.021,-0.085,0.028,4265.000,-1289.000,-13965.000,0.081,-0.695,0.093,0.708,0.0000000,0.0000000,0.000,0.000,0.000,0.000,0,00:00:00,0,0.000,0.000,91871.383,27.344,0.000,0.000,-0.108,9.790,-0.177,0.000,0.001,0.000,0.000,0.000
16.371,0,0,0.285,-1.981,-6.051,0.563,-3.859,-12.476,0.333,-2.496,-9.664,0.000,0.000,0.0116870,0.000,9144.000,0.011,1.138,0.273,0.271,918.270,28.173,822.115,0.020,9.984,-0.151,0.187,-0.098,0.021,0.094,4233.000,-1288.000,-13910.000,0.076,-0.696,0.091,0.708,0.0000000,0.0000000,0.000,0.000,0.000,0.000,0,00:00:00,0,0.000,0.610,91861.242,27.344,0.000,0.000,-0.167,9.800,-0.088,-0.000,0.001,0.000,0.000,0.000
16.549,0,0,0.361,-2.492,-7.397,0.623,-4.223,-13.412,0.402,-2.487,-9.694,0.000,0.000,0.0116870,0.000,9144.000,0.012,1.160,0.301,0.283,918.271,28.166,822.112,0.017,10.013,-0.129,0.215,0.006,0.047,-0.015,4236.000,-1285.000,-13957.000,0.077,-0.695,0.090,0.710,0.0000000,0.0000000,0.000,0.000,0.000,0.000,0,00:00:00,0,0.000,0.610,91861.242,27.344,0.000,0.000,-0.167,9.800,-0.088,-0.000,0.001,0.000,0.000,0.000
16.650,0,0,0.390,-2.686,-7.577,0.636,-4.383,-13.419,0.264,-2.562,-9.657,0.000,0.000,0.0116870,0.000,9144.000,0.013,1.331,0.331,0.298,918.268,28.166,822.135,0.039,9.991,-0.194,0.144,0.019,-0.036,-0.009,4282.000,-1291.000,-13974.000,0.078,-0.697,0.091,0.707,0.0000000,0.0000000,0.000,0.000,0.000,0.000,0,00:00:00,0,0.000,-0.305,91871.383,27.339,0.000,0.000,-0.147,9.820,-0.206,-0.001,0.001,-0.001,0.000,0.000
16.751,0,0,0.418,-2.880,-7.722,0.652,-4.529,-13.387,0.318,-2.556,-9.643,0.000,0.000,0.0116870,0.000,9144.000,0.013,0.974,0.362,0.315,918.270,28.165,822.122,0.025,9.977,-0.215,0.180,-0.023,0.019,-0.075,4203.000,-1263.000,-14030.000,0.077,-0.696,0.090,0.708,0.0000000,0.0000000,0.000,0.000,0.000,0.000,0,00:00:00,0,0.000,-0.305,91871.383,27.339,0.000,0.000,-0.147,9.820,-0.206,-0.001,0.001,-0.001,0.000,0.000
16.852,0,0,0.445,-3.071,-7.834,0.679,-4.654,-13.326,0.449,-2.479,-9.615,0.000,0.000,0.0116870,0.000,9144.000,0.014,1.057,0.396,0.334,918.272,28.171,822.100,0.006,9.934,-0.180,0.266,-0.036,0.021,0.017,4163.000,-1255.000,-14040.000,0.075,-0.695,0.090,0.710,0.0000000,0.0000000,0.000,0.000,0.000,0.000,0,00:00:00,0,0.000,-1.219,91891.641,27.344,0.000,0.000,-0.039,9.800,-0.147,-0.000,0.001,-0.000,0.000,0.000
16.953,0,0,0.472,-3.255,-7.914,0.699,-4.761,-13.256,0.394,-2.430,-9.745,0.000,0.000,0.0116870,0.000,9144.000,0.014,1.354,0.430,0.341,918.271,28.174,822.106,0.013,10.049,-0.129,0.172,-0.023,0.119,-0.015,4236.000,-1280.000,-13971.000,0.075,-0.694,0.088,0.711,0.0000000,0.0000000,0.000,0.000,0.000,0.000,0,00:00:00,0,0.000,-1.219,91891.641,27.344,0.000,0.000,-0.039,9.800,-0.147,-0.000,0.001,-0.000,0.000,0.000
17.054,0,0,0.499,-3.432,-7.968,0.718,-4.864,-13.162,0.413,-2.513,-9.615,0.000,0.000,0.0116870,0.000,9144.000,0.014,1.509,0.466,0.360,918.273,28.168,822.086,-0.004,9.941,-0.230,0.244,0.004,-0.028,0.121,4191.000,-1313.000,-14010.000,0.072,-0.695,0.091,0.710,0.0000000,0.0000000,0.000,0.000,0.000,0.000,0,00:00:00,0,0.000,-0.305,91881.508,27.344,0.000,0.000,-0.069,9.820,-0.137,-0.000,0.001,0.000,0.000,0.000
17.155,0,0,0.525,-3.601,-8.000,0.731,-4.960,-13.069,0.364,-2.580,-9.673,0.000,0.000,0.0116870,0.000,9144.000,0.014,1.379,0.503,0.374,918.274,28.171,822.085,-0.005,10.013,-0.208,0.251,0.072,-0.143,-0.011,4196.000,-1277.000,-13958.000,0.076,-0.697,0.093,0.707,0.0000000,0.0000000,0.000,0.000,0.000,0.000,0,00:00:00,0,0.000,-0.305,91881.508,27.344,0.000,0.000,-0.069,9.820,-0.137,-0.000,0.001,0.000,0.000,0.000
17.256,0,0,0.548,-3.761,-8.013,0.737,-5.035,-12.969,0.313,-2.506,-9.627,0.000,0.000,0.0116870,0.000,9144.000,0.015,1.005,0.542,0.392,918.273,28.168,822.095,0.005,9.948,-0.172,0.237,-0.023,-0.179,-0.104,4216.000,-1269.000,-13982.000,0.078,-0.699,0.089,0.706,0.0000000,0.0000000,0.000,0.000,0.000,0.000,0,00:00:00,0,0.000,0.000,91871.383,27.339,0.000,0.000,-0.108,9.790,-0.020,-0.000,0.000,-0.000,0.000,0.000
17.357,0,0,0.571,-3.910,-8.012,0.755,-5.105,-12.879,0.459,-2.573,-9.686,0.000,0.000,0.0116870,0.000,9144.000,0.015,0.671,0.583,0.405,918.273,28.168,822.094,0.005,10.027,-0.215,0.259,0.006,0.130,-0.017,4211.000,-1258.000,-13938.000,0.077,-0.694,0.091,0.710,0.0000000,0.0000000,0.000,0.000,0.000,0.000,0,00:00:00,0,0.000,0.000,91871.383,27.339,0.000,0.000,-0.108,9.790,-0.020,-0.000,0.000,-0.000,0.000,0.000
17.458,0,0,0.592,-4.048,-8.003,0.769,-5.161,-12.793,0.423,-2.553,-9.633,0.000,0.000,0.0116870,0.000,9144.000,0.015,1.446,0.625,0.422,918.273,28.166,822.089,-0.003,9.970,-0.223,0.215,-0.013,0.060,-0.028,4185.000,-1243.000,-13922.000,0.076,-0.694,0.091,0.711,0.0000000,0.0000000,0.000,0.000,0.000,0.000,0,00:00:00,0,0.000,0.000,91871.383,27.339,0.000,0.000,-0.108,9.790,-0.020,-0.000,0.000,-0.000,0.000,0.000
17.559,0,0,0.612,-4.174,-7.991,0.776,-5.204,-12.717,0.381,-2.525,-9.626,0.000,0.000,0.0116870,0.000,9144.000,0.015,1.512,0.669,0.441,918.276,28.179,822.062,-0.031,9.955,-0.194,0.201,0.006,-0.006,-0.053,4209.000,-1251.000,-13945.000,0.077,-0.695,0.090,0.709,0.0000000,0.0000000,0.000,0.000,0.000,0.000,0,00:00:00,0,0.000,0.914,91861.242,27.344,0.000,0.000,-0.128,9.732,-0.137,0.000,0.001,0.000,0.000,0.000
17.660,0,0,0.630,-4.288,-7.973,0.786,-5.246,-12.645,0.427,-2.624,-9.585,0.000,0.000,0.0116870,0.000,9144.000,0.015,1.317,0.716,0.463,918.274,28.182,822.083,-0.016,9.941,-0.223,0.244,0.072,0.040,0.117,4223.000,-1248.000,-13963.000,0.076,-0.694,0.096,0.710,0.0000000,0.0000000,0.000,0.000,0.000,0.000,0,00:00:00,0,0.000,0.914,91861.242,27.344,0.000,0.000,-0.128,9.732,-0.137,0.000,0.001,0.000,0.000,0.000
17.761,0,0,0.647,-4.391,-7.954,0.803,-5.270,-12.592,0.504,-2.528,-9.667,0.000,0.000,0.0116870,0.000,9144.000,0.015,1.482,0.763,0.478,918.273,28.175,822.089,-0.013,9.999,-0.201,0.280,-0.094,0.053,0.032,4234.000,-1240.000,-13933.000,0.073,-0.693,0.092,0.711,0.0000000,0.0000000,0.000,0.000,0.000,0.000,0,00:00:00,0,0.000,-0.305,91881.508,27.344,0.000,0.000,-0.059,9.839,-0.167,-0.000,0.001,-0.001,0.000,0.000
17.862,0,0,0.663,-4.483,-7.933,0.800,-5.287,-12.543,0.318,-2.541,-9.632,0.000,0.000,0.0116870,0.000,9144.000,0.015,1.689,0.813,0.495,918.271,28.173,822.107,0.002,9.963,-0.244,0.136,-0.013,0.049,-0.092,4206.000,-1247.000,-13945.000,0.074,-0.695,0.090,0.710,0.0000000,0.0000000,0.000,0.000,0.000,0.000,0,00:00:00,0,0.000,-0.305,91881.508,27.344,0.000,0.000,-0.059,9.839,-0.167,-0.000,0.001,-0.001,0.000,0.000
17.963,0,0,0.676,-4.562,-7.951,0.801,-5.287,-12.536,0.372,-2.443,-9.670,0.000,0.000,0.0116870,0.000,9144.000,0.015,1.376,0.864,0.509,918.300,28.181,821.852,-0.254,9.977,-0.180,0.201,-0.036,-0.023,-0.124,4243.000,-1290.000,-13979.000,0.075,-0.696,0.086,0.709,0.0000000,0.0000000,0.000,0.000,0.000,0.000,0,00:00:00,0,0.000,-0.610,91881.508,27.339,0.000,0.000,-0.118,9.722,-0.216,0.000,0.001,-0.000,0.000,0.000
18.064,0,0,0.688,-4.630,-8.063,0.798,-5.282,-12.605,0.349,-2.460,-9.674,0.000,0.000,0.0116870,0.000,9144.000,0.015,1.197,0.916,0.523,918.372,28.183,821.203,-0.903,9.984,-0.215,0.201,-0.023,0.006,0.094,4229.000,-1272.000,-13966.000,0.071,-0.696,0.089,0.709,0.0000000,0.0000000,0.000,0.000,0.000,0.000,0,00:00:00,0,0.000,-0.610,91881.508,27.339,0.000,0.000,-0.118,9.722,-0.216,0.000,0.001,-0.000,0.000,0.000
18.165,0,0,0.697,-4.688,-8.150,0.786,-5.275,-12.657,0.256,-2.483,-9.721,0.000,0.000,0.0116870,0.000,9144.000,0.015,1.192,0.969,0.532,918.357,28.173,821.330,-0.775,10.034,-0.136,0.122,0.094,0.030,-0.017,4175.000,-1271.000,-13938.000,0.077,-0.696,0.090,0.708,0.0000000,0.0000000,0.000,0.000,0.000,0.000,0,00:00:00,0,0.000,-1.219,91891.641,27.344,0.000,0.000,-0.069,9.771,-0.088,-0.001,0.001,-0.000,0.000,0.000
18.266,0,0,0.705,-4.737,-8.225,0.791,-5.276,-12.697,0.437,-2.604,-9.701,0.000,0.000,0.0116870,0.000,9144.000,0.015,1.036,1.024,0.543,918.352,28.172,821.380,-0.725,10.049,-0.158,0.266,0.098,-0.013,-0.019,4200.000,-1285.000,-13893.000,0.080,-0.695,0.093,0.709,0.0000000,0.0000000,0.000,0.000,0.000,0.000,0,00:00:00,0,0.000,-1.219,91891.641,27.344,0.000,0.000,-0.069,9.771,-0.088,-0.001,0.001,-0.000,0.000,0.000
18.367,0,0,0.712,-4.779,-8.260,0.792,-5.284,-12.700,0.399,-2.697,-9.640,0.000,0.000,0.0116870,0.000,9144.000,0.015,1.243,1.080,0.560,918.325,28.173,821.627,-0.478,10.013,-0.208,0.237,0.053,-0.015,0.009,4202.000,-1300.000,-13910.000,0.081,-0.695,0.096,0.708,0.0000000,0.0000000,0.000,0.000,0.000,0.000,0,00:00:00,0,0.000,-0.305,91881.508,27.344,0.000,0.000,-0.078,9.810,-0.137,-0.001,0.002,-0.000,0.000,0.000
18.468,0,0,0.717,-4.814,-8.266,0.781,-5.272,-12.678,0.290,-2.538,-9.594,0.000,0.000,0.0116870,0.000,9144.000,0.015,1.259,1.138,0.581,918.303,28.174,821.818,-0.284,9.927,-0.108,0.108,-0.036,0.126,-0.019,4215.000,-1311.000,-13924.000,0.081,-0.694,0.093,0.709,0.0000000,0.0000000,0.000,0.000,0.000,0.000,0,00:00:00,0,0.000,-0.305,91881.508,27.344,0.000,0.000,-0.078,9.810,-0.137,-0.001,0.002,-0.000,0.000,0.000
18.569,0,0,0.721,-4.843,-8.234,0.780,-5.269,-12.630,0.384,-2.638,-9.581,0.000,0.000,0.0116870,0.000,9144.000,0.015,1.299,1.198,0.604,918.274,28.175,822.080,-0.017,9.941,-0.187,0.187,0.021,0.077,-0.036,4230.000,-1314.000,-13898.000,0.082,-0.694,0.094,0.710,0.0000000,0.0000000,0.000,0.000,0.000,0.000,0,00:00:00,0,0.000,0.000,91871.383,27.344,0.000,0.000,-0.059,9.751,-0.088,0.000,0.001,-0.001,0.000,0.000
18.670,0,0,0.725,-4.868,-8.159,0.791,-5.274,-12.559,0.505,-2.731,-9.633,0.000,0.000,0.0116870,0.000,9144.000,0.015,1.408,1.260,0.622,918.238,28.178,822.407,0.314,10.020,-0.215,0.244,0.049,0.132,-0.070,4188.000,-1289.000,-13942.000,0.083,-0.691,0.096,0.712,0.0000000,0.0000000,0.000,0.000,0.000,0.000,0,00:00:00,0,0.000,0.000,91871.383,27.344,0.000,0.000,-0.059,9.751,-0.088,0.000,0.001,-0.001,0.000,0.000
18.771,0,0,0.728,-4.889,-8.088,0.791,-5.282,-12.501,0.400,-2.780,-9.676,0.000,0.000,0.0116870,0.000,9144.000,0.015,1.782,1.324,0.636,918.236,28.177,822.424,0.335,10.070,-0.251,0.187,0.004,0.047,-0.038,4200.000,-1284.000,-13884.000,0.082,-0.693,0.097,0.710,0.0000000,0.0000000,0.000,0.000,0.000,0.000,0,00:00:00,0,0.000,0.000,91871.383,27.344,0.000,0.000,-0.059,9.751,-0.088,0.000,0.001,-0.001,0.000,0.000
18.872,0,0,0.731,-4.907,-8.032,0.791,-5.263,-12.454,0.402,-2.518,-9.627,0.000,0.000,0.0116870,0.000,9144.000,0.015,1.556,1.389,0.654,918.242,28.179,822.374,0.284,9.955,-0.172,0.215,-0.164,0.009,0.049,4212.000,-1277.000,-13904.000,0.076,-0.694,0.092,0.710,0.0000000,0.0000000,0.000,0.000,0.000,0.000,0,00:00:00,0,0.000,0.914,91861.242,27.350,0.000,0.000,-0.177,9.800,-0.147,-0.001,0.001,0.000,0.000,0.000
18.973,0,0,0.734,-4.920,-7.975,0.781,-5.240,-12.418,0.308,-2.475,-9.700,0.000,0.000,0.0116870,0.000,9144.000,0.015,1.413,1.456,0.665,918.239,28.181,822.396,0.332,10.013,-0.187,0.144,-0.068,0.036,-0.049,4213.000,-1273.000,-13959.000,0.075,-0.696,0.088,0.709,0.0000000,0.0000000,0.000,0.000,0.000,0.000,0,00:00:00,0,0.000,0.914,91861.242,27.350,0.000,0.000,-0.177,9.800,-0.147,-0.001,0.001,0.000,0.000,0.000
19.074,0,0,0.735,-4.930,-7.925,0.774,-5.217,-12.382,0.338,-2.477,-9.625,0.000,0.000,0.0116870,0.000,9144.000,0.015,1.218,1.524,0.683,918.250,28.182,822.300,0.324,9.941,-0.172,0.187,0.032,0.006,0.017,4216.000,-1270.000,-13863.000,0.075,-0.696,0.090,0.709,0.0000000,0.0000000,0.000,0.000,0.000,0.000,0,00:00:00,0,0.000,0.610,91871.383,27.344,0.000,0.000,-0.128,9.771,-0.216,-0.000,0.000,-0.000,0.000,0.000
19.175,0,0,0.735,-4.936,-7.884,0.762,-5.210,-12.357,0.277,-2.629,-9.642,0.000,0.000,0.0116870,0.000,9144.000,0.015,1.167,1.594,0.700,918.260,28.181,822.205,0.304,9.991,-0.330,0.158,-0.013,0.021,-0.013,4237.000,-1254.000,-13934.000,0.072,-0.697,0.092,0.708,0.0000000,0.0000000,0.000,0.000,0.000,0.000,0,00:00:00,0,0.000,0.610,91871.383,27.344,0.000,0.000,-0.128,9.771,-0.216,-0.000,0.000,-0.000,0.000,0.000
19.276,0,0,0.735,-4.941,-7.842,0.770,-5.199,-12.340,0.484,-2.581,-9.722,0.000,0.000,0.0116870,0.000,9144.000,0.015,1.097,1.665,0.709,918.264,28.177,822.176,0.347,10.063,-0.223,0.309,0.034,0.006,0.077,4245.000,-1270.000,-13946.000,0.073,-0.694,0.094,0.710,0.0000000,0.0000000,0.000,0.000,0.000,0.000,0,00:00:00,0,0.000,0.610,91871.383,27.344,0.000,0.000,-0.147,9.830,-0.128,-0.000,0.000,0.000,0.000,0.000
19.377,0,0,0.735,-4.944,-7.797,0.767,-5.184,-12.315,0.373,-2.548,-9.644,0.000,0.000,0.0116870,0.000,9144.000,0.015,1.448,1.737,0.726,918.262,28.179,822.190,0.408,9.977,-0.187,0.230,0.026,-0.075,-0.036,4192.000,-1269.000,-14035.000,0.076,-0.696,0.093,0.708,0.0000000,0.0000000,0.000,0.000,0.000,0.000,0,00:00:00,0,0.000,0.610,91871.383,27.344,0.000,0.000,-0.147,9.830,-0.128,-0.000,0.000,0.000,0.000,0.000
19.478,0,0,0.735,-4.945,-7.755,0.763,-5.163,-12.298,0.359,-2.473,-9.685,0.000,0.000,0.0116870,0.000,9144.000,0.015,1.172,1.811,0.738,918.264,28.183,822.170,0.415,9.999,-0.144,0.215,-0.038,-0.034,-0.004,4181.000,-1267.000,-13991.000,0.076,-0.696,0.090,0.708,0.0000000,0.0000000,0.000,0.000,0.000,0.000,0,00:00:00,0,0.000,0.000,91871.383,27.344,0.000,0.000,-0.255,9.692,-0.118,-0.001,0.001,-0.001,0.000,0.000
19.579,0,0,0.734,-4.945,-7.715,0.743,-5.151,-12.285,0.199,-2.559,-9.703,0.000,0.000,0.0116870,0.000,9144.000,0.015,1.103,1.886,0.749,918.261,28.198,822.198,0.441,10.034,-0.180,0.108,0.045,0.000,0.077,4187.000,-1241.000,-13914.000,0.076,-0.698,0.093,0.706,0.0000000,0.0000000,0.000,0.000,0.000,0.000,0,00:00:00,0,0.000,0.000,91871.383,27.344,0.000,0.000,-0.255,9.692,-0.118,-0.001,0.001,-0.001,0.000,0.000
19.680,0,0,0.731,-4.945,-7.679,0.737,-5.144,-12.266,0.327,-2.600,-9.603,0.000,0.000,0.0116870,0.000,9144.000,0.015,0.862,1.963,0.769,918.257,28.190,822.238,0.449,9.948,-0.251,0.230,-0.013,-0.058,-0.019,4175.000,-1253.000,-13942.000,0.076,-0.697,0.093,0.707,0.0000000,0.0000000,0.000,0.000,0.000,0.000,0,00:00:00,0,0.000,0.000,91871.383,27.339,0.000,0.000,-0.108,9.712,-0.157,-0.001,0.000,-0.000,0.000,0.000
19.781,0,0,0.729,-4.943,-7.639,0.726,-5.130,-12.262,0.292,-2.516,-9.787,0.000,0.000,0.0116870,0.000,9144.000,0.015,0.927,2.040,0.772,918.246,28.188,822.334,0.511,10.106,-0.172,0.158,-0.045,0.087,0.115,4222.000,-1272.000,-13964.000,0.073,-0.696,0.092,0.708,0.0000000,0.0000000,0.000,0.000,0.000,0.000,0,00:00:00,0,0.000,0.000,91871.383,27.339,0.000,0.000,-0.108,9.712,-0.157,-0.001,0.000,-0.000,0.000,0.000
19.882,0,0,0.725,-4.941,-7.593,0.721,-5.118,-12.240,0.336,-2.539,-9.631,0.000,0.000,0.0116870,0.000,9144.000,0.015,1.158,2.119,0.790,918.235,28.188,822.431,0.581,9.963,-0.194,0.180,0.036,0.075,0.053,4201.000,-1291.000,-13935.000,0.074,-0.695,0.094,0.709,0.0000000,0.0000000,0.000,0.000,0.000,0.000,0,00:00:00,0,0.000,0.000,91871.383,27.339,0.000,0.000,-0.108,9.712,-0.157,-0.001,0.000,-0.000,0.000,0.000
19.983,0,0,0.723,-4.939,-7.517,0.724,-5.113,-12.194,0.419,-2.592,-9.608,0.000,0.000,0.0116870,0.000,9144.000,0.015,1.312,2.200,0.810,918.201,28.184,822.738,0.834,9.955,-0.201,0.237,0.051,0.011,-0.081,4192.000,-1287.000,-13923.000,0.078,-0.694,0.093,0.709,0.0000000,0.0000000,0.000,0.000,0.000,0.000,0,00:00:00,0,0.000,0.305,91871.383,27.350,0.000,0.000,-0.157,9.918,-0.186,0.000,0.001,-0.001,0.000,0.000
20.084,0,0,0.720,-4.938,-7.521,0.717,-5.122,-12.209,0.316,-2.728,-9.589,0.000,0.000,0.0116870,0.000,9144.000,0.015,1.371,2.283,0.832,918.247,28.187,822.327,0.313,9.970,-0.237,0.194,0.102,-0.064,-0.009,4193.000,-1253.000,-13890.000,0.081,-0.696,0.097,0.707,0.0000000,0.0000000,0.000,0.000,0.000,0.000,0,00:00:00,0,0.000,0.305,91871.383,27.350,0.000,0.000,-0.157,9.918,-0.186,0.000,0.001,-0.001,0.000,0.000
20.185,0,0,0.717,-4.938,-7.561,0.709,-5.127,-12.256,0.298,-2.677,-9.647,0.000,0.000,0.0116870,0.000,9144.000,0.015,1.065,2.368,0.848,918.265,28.194,822.162,0.061,10.013,-0.172,0.187,-0.002,0.004,0.145,4226.000,-1306.000,-13836.000,0.079,-0.696,0.099,0.707,0.0000000,0.0000000,0.000,0.000,0.000,0.000,0,00:00:00,0,0.000,0.305,91871.383,27.344,0.000,0.000,-0.108,9.800,-0.186,-0.001,0.001,-0.001,0.000,0.000
20.286,0,0,0.713,-4.939,-7.604,0.699,-5.135,-12.297,0.285,-2.709,-9.602,0.000,0.000,0.0116870,0.000,9144.000,0.015,1.079,2.455,0.869,918.260,28.191,822.204,0.023,9.977,-0.201,0.194,0.013,-0.055,0.028,4201.000,-1328.000,-13895.000,0.080,-0.697,0.099,0.706,0.0000000,0.0000000,0.000,0.000,0.000,0.000,0,00:00:00,0,0.000,0.305,91871.383,27.344,0.000,0.000,-0.108,9.800,-0.186,-0.001,0.001,-0.001,0.000,0.000
20.387,0,0,0.709,-4.942,-7.669,0.692,-5.146,-12.353,0.304,-2.730,-9.633,0.000,0.000,0.0116870,0.000,9144.000,0.015,0.938,2.544,0.887,918.273,28.198,822.095,-0.142,10.013,-0.194,0.187,0.019,0.023,0.021,4177.000,-1241.000,-13895.000,0.081,-0.696,0.099,0.707,0.0000000,0.0000000,0.000,0.000,0.000,0.000,0,00:00:00,0,0.000,0.305,91871.383,27.344,0.000,0.000,-0.128,9.790,-0.147,-0.000,0.001,0.000,0.000,0.000
20.488,0,0,0.705,-4.945,-7.741,0.689,-5.147,-12.406,0.345,-2.629,-9.576,0.000,0.000,0.0116870,0.000,9144.000,0.015,1.072,2.635,0.910,918.278,28.193,822.044,-0.229,9.934,-0.122,0.201,-0.013,0.019,0.038,4181.000,-1286.000,-13914.000,0.082,-0.695,0.098,0.708,0.0000000,0.0000000,0.000,0.000,0.000,0.000,0,00:00:00,0,0.000,0.305,91871.383,27.344,0.000,0.000,-0.128,9.790,-0.147,-0.000,0.001,0.000,0.000,0.000
20.589,0,0,0.702,-4.949,-7.824,0.689,-5.161,-12.470,0.371,-2.754,-9.654,0.000,0.000,0.0116870,0.000,9144.000,0.015,1.170,2.727,0.926,918.289,28.187,821.943,-0.340,10.042,-0.208,0.201,0.017,0.051,-0.040,4208.000,-1258.000,-13896.000,0.083,-0.694,0.098,0.708,0.0000000,0.0000000,0.000,0.000,0.000,0.000,0,00:00:00,0,0.000,0.000,91871.383,27.350,0.000,0.000,-0.118,9.722,-0.118,0.000,0.000,0.000,0.000,0.000
20.690,0,0,0.698,-4.954,-7.888,0.677,-5.177,-12.516,0.247,-2.785,-9.662,0.000,0.000,0.0116870,0.000,9144.000,0.015,1.306,2.821,0.941,918.281,28.196,822.016,-0.251,10.056,-0.187,0.136,0.051,-0.021,0.034,4185.000,-1324.000,-13924.000,0.084,-0.696,0.100,0.706,0.0000000,0.0000000,0.000,0.000,0.000,0.000,0,00:00:00,0,0.000,0.000,91871.383,27.350,0.000,0.000,-0.118,9.722,-0.118,0.000,0.000,0.000,0.000,0.000
20.791,0,0,0.694,-4.961,-7.940,0.685,-5.206,-12.546,0.449,-2.902,-9.632,0.000,0.000,0.0116870,0.000,9144.000,0.015,0.983,2.917,0.958,918.277,28.186,822.056,-0.202,10.063,-0.251,0.273,0.049,0.066,0.032,4191.000,-1266.000,-13971.000,0.084,-0.693,0.104,0.709,0.0000000,0.0000000,0.000,0.000,0.000,0.000,0,00:00:00,0,0.000,-0.914,91881.508,27.339,0.000,0.000,-0.128,9.888,-0.147,-0.000,0.001,-0.000,0.000,0.000
20.892,0,0,0.691,-4.971,-7.992,0.680,-5.225,-12.569,0.316,-2.805,-9.574,0.000,0.000,0.0116870,0.000,9144.000,0.015,1.461,3.015,0.982,918.280,28.181,822.028,-0.236,9.977,-0.194,0.215,-0.019,-0.121,0.038,4191.000,-1251.000,-13986.000,0.084,-0.696,0.102,0.706,0.0000000,0.0000000,0.000,0.000,0.000,0.000,0,00:00:00,0,0.000,-0.914,91881.508,27.339,0.000,0.000,-0.128,9.888,-0.147,-0.000,0.001,-0.000,0.000,0.000
20.993,0,0,0.688,-4.980,-8.043,0.672,-5.230,-12.590,0.281,-2.684,-9.586,0.000,0.000,0.0116870,0.000,9144.000,0.015,1.000,3.116,1.004,918.280,28.191,822.029,-0.269,9.955,-0.180,0.151,-0.107,0.107,0.143,4201.000,-1261.000,-13889.000,0.079,-0.695,0.100,0.708,0.0000000,0.0000000,0.000,0.000,0.000,0.000,0,00:00:00,0,0.000,0.000,91871.383,27.344,0.000,0.000,-0.108,9.781,-0.177,0.000,0.000,-0.000,0.000,0.000
21.094,0,0,0.685,-4.990,-8.087,0.676,-5.235,-12.602,0.401,-2.677,-9.563,0.000,0.000,0.0116870,0.000,9144.000,0.015,1.229,3.219,1.029,918.278,28.193,822.044,-0.257,9.934,-0.187,0.244,-0.013,0.015,0.058,4213.000,-1233.000,-13924.000,0.079,-0.694,0.100,0.708,0.0000000,0.0000000,0.000,0.000,0.000,0.000,0,00:00:00,0,0.000,0.000,91871.383,27.344,0.000,0.000,-0.108,9.781,-0.177,0.000,0.000,-0.000,0.000,0.000
21.195,0,0,0.682,-4.999,-8.124,0.674,-5.236,-12.610,0.341,-2.632,-9.584,0.000,0.000,0.0116870,0.000,9144.000,0.015,1.360,3.324,1.052,918.277,28.186,822.056,-0.240,9.941,-0.208,0.180,-0.066,0.040,-0.038,4167.000,-1239.000,-13893.000,0.078,-0.695,0.096,0.709,0.0000000,0.0000000,0.000,0.000,0.000,0.000,0,00:00:00,0,0.000,0.000,91871.383,27.344,0.000,0.000,-0.108,9.781,-0.177,0.000,0.000,-0.000,0.000,0.000
21.296,0,0,0.680,-5.008,-8.159,0.674,-5.240,-12.624,0.354,-2.675,-9.662,0.000,0.000,0.0116870,0.000,9144.000,0.016,1.309,3.431,1.066,918.279,28.187,822.039,-0.260,10.027,-0.223,0.208,0.009,-0.023,-0.040,4170.000,-1248.000,-13896.000,0.079,-0.695,0.095,0.708,0.0000000,0.0000000,0.000,0.000,0.000,0.000,0,00:00:00,0,0.000,-0.914,91881.508,27.344,0.000,0.000,-0.059,9.800,-0.147,-0.000,0.000,0.000,0.000,0.000
21.397,0,0,0.678,-5.017,-8.187,0.677,-5.243,-12.637,0.387,-2.671,-9.728,0.000,0.000,0.0116870,0.000,9144.000,0.016,1.183,3.538,1.075,918.277,28.184,822.057,-0.232,10.092,-0.158,0.230,0.043,0.000,0.055,4220.000,-1246.000,-13957.000,0.081,-0.695,0.097,0.708,0.0000000,0.0000000,0.000,0.000,0.000,0.000,0,00:00:00,0,0.000,-0.914,91881.508,27.344,0.000,0.000,-0.059,9.800,-0.147,-0.000,0.000,0.000,0.000,0.000
21.498,0,0,0.676,-5.025,-8.212,0.678,-5.241,-12.639,0.363,-2.618,-9.639,0.000,0.000,0.0116870,0.000,9144.000,0.016,1.246,3.647,1.092,918.278,28.184,822.042,-0.235,9.991,-0.136,0.215,-0.006,-0.045,-0.036,4213.000,-1283.000,-13939.000,0.082,-0.695,0.095,0.708,0.0000000,0.0000000,0.000,0.000,0.000,0.000,0,00:00:00,0,0.000,0.000,91871.383,27.350,0.000,0.000,-0.108,9.810,-0.255,-0.000,0.001,-0.000,0.000,0.000
21.599,0,0,0.674,-5.032,-8.227,0.671,-5.240,-12.628,0.290,-2.641,-9.584,0.000,0.000,0.0116870,0.000,9144.000,0.016,1.112,3.759,1.114,918.276,28.192,822.067,-0.184,9.941,-0.201,0.201,-0.030,-0.102,0.040,4215.000,-1260.000,-13849.000,0.080,-0.697,0.095,0.706,0.0000000,0.0000000,0.000,0.000,0.000,0.000,0,00:00:00,0,0.000,0.000,91871.383,27.350,0.000,0.000,-0.108,9.810,-0.255,-0.000,0.001,-0.000,0.000,0.000
21.700,0,0,0.672,-5.039,-8.237,0.673,-5.243,-12.618,0.370,-2.678,-9.624,0.000,0.000,0.0116870,0.000,9144.000,0.016,0.841,3.872,1.133,918.277,28.189,822.053,-0.176,9.991,-0.215,0.244,0.009,-0.017,-0.009,4187.000,-1250.000,-13909.000,0.080,-0.696,0.096,0.707,0.0000000,0.0000000,0.000,0.000,0.000,0.000,0,00:00:00,0,0.000,-0.305,91871.383,27.339,0.000,0.000,0.020,9.830,-0.226,0.001,0.001,0.001,0.000,0.000
21.801,0,0,0.671,-5.045,-8.245,0.675,-5.238,-12.607,0.368,-2.595,-9.623,0.000,0.000,0.0116870,0.000,9144.000,0.016,1.072,3.987,1.152,918.280,28.194,822.026,-0.175,9.970,-0.136,0.215,0.000,0.002,-0.009,4158.000,-1276.000,-13902.000,0.081,-0.695,0.095,0.708,0.0000000,0.0000000,0.000,0.000,0.000,0.000,0,00:00:00,0,0.000,-0.305,91871.383,27.339,0.000,0.000,0.020,9.830,-0.226,0.001,0.001,0.001,0.000,0.000
21.902,0,0,0.670,-5.051,-8.240,0.679,-5.242,-12.594,0.397,-2.694,-9.700,0.000,0.000,0.0116870,0.000,9144.000,0.016,1.161,4.103,1.163,918.276,28.181,822.068,-0.093,10.070,-0.201,0.237,0.011,0.000,0.026,4177.000,-1265.000,-13885.000,0.080,-0.695,0.096,0.708,0.0000000,0.0000000,0.000,0.000,0.000,0.000,0,00:00:00,0,0.000,-0.305,91881.508,27.350,0.000,0.000,-0.157,9.849,-0.098,-0.000,0.000,-0.000,0.000,0.000
22.003,0,0,0.669,-5.056,-8.228,0.687,-5.235,-12.569,0.429,-2.588,-9.615,0.000,0.000,0.0116870,0.000,9144.000,0.016,1.255,4.222,1.182,918.278,28.181,822.044,-0.047,9.963,-0.172,0.237,-0.053,0.043,0.000,4195.000,-1252.000,-13936.000,0.079,-0.694,0.094,0.710,0.0000000,0.0000000,0.000,0.000,0.000,0.000,0,00:00:00,0,0.000,-0.305,91881.508,27.350,0.000,0.000,-0.157,9.849,-0.098,-0.000,0.000,-0.000,0.000,0.000
22.104,0,0,0.670,-5.060,-8.214,0.689,-5.227,-12.544,0.369,-2.583,-9.604,0.000,0.000,0.0116870,0.000,9144.000,0.016,1.428,4.342,1.203,918.281,28.189,822.022,-0.040,9.948,-0.187,0.187,-0.017,0.066,0.089,4213.000,-1256.000,-13889.000,0.077,-0.694,0.095,0.710,0.0000000,0.0000000,0.000,0.000,0.000,0.000,0,00:00:00,0,0.000,0.914,91861.242,27.344,0.000,0.000,-0.108,9.781,-0.147,-0.000,0.001,-0.000,0.000,0.000
22.205,0,0,0.670,-5.064,-8.197,0.683,-5.228,-12.524,0.295,-2.665,-9.660,0.000,0.000,0.0116870,0.000,9144.000,0.016,1.440,4.464,1.218,918.280,28.189,822.030,-0.022,10.020,-0.273,0.165,-0.019,0.009,0.060,4209.000,-1252.000,-13874.000,0.074,-0.696,0.096,0.708,0.0000000,0.0000000,0.000,0.000,0.000,0.000,0,00:00:00,0,0.000,0.914,91861.242,27.344,0.000,0.000,-0.108,9.781,-0.147,-0.000,0.001,-0.000,0.000,0.000
22.400,0,0,0.734,-5.543,-9.312,0.745,-5.436,-13.279,0.517,-2.573,-9.661,0.000,0.000,0.0116870,0.000,9144.000,0.016,1.215,4.587,1.233,918.284,28.197,821.992,-0.043,10.006,-0.172,0.294,0.006,0.075,0.004,4215.000,-1259.000,-13872.000,0.076,-0.693,0.095,0.711,0.0000000,0.0000000,0.000,0.000,0.000,0.000,0,00:00:00,0,0.000,-0.305,91881.508,27.350,0.000,0.000,-0.078,9.781,-0.167,0.000,0.001,0.000,0.000,0.000
22.501,0,0,0.727,-5.468,-9.012,0.740,-5.388,-12.979,0.371,-2.694,-9.614,0.000,0.000,0.0116870,0.000,9144.000,0.016,1.664,4.712,1.252,918.280,28.196,822.032,0.001,9.984,-0.323,0.172,-0.013,0.075,-0.111,4235.000,-1272.000,-13821.000,0.076,-0.693,0.094,0.710,0.0000000,0.0000000,0.000,0.000,0.000,0.000,0,00:00:00,0,0.000,-0.305,91881.508,27.350,0.000,0.000,-0.078,9.781,-0.167,0.000,0.001,0.000,0.000,0.000
22.602,0,0,0.720,-5.400,-8.763,0.743,-5.325,-12.734,0.450,-2.485,-9.598,0.000,0.000,0.0116870,0.000,9144.000,0.016,1.540,4.840,1.273,918.282,28.188,822.007,-0.024,9.920,-0.180,0.266,-0.060,-0.045,0.013,4164.000,-1250.000,-13884.000,0.074,-0.694,0.091,0.710,0.0000000,0.0000000,0.000,0.000,0.000,0.000,0,00:00:00,0,0.000,0.000,91871.383,27.344,0.000,0.000,-0.108,9.810,-0.128,-0.000,0.000,0.000,0.000,0.000
22.703,0,0,0.715,-5.338,-8.558,0.731,-5.266,-12.545,0.282,-2.467,-9.694,0.000,0.000,0.0116870,0.000,9144.000,0.016,1.405,4.968,1.285,918.284,28.193,821.995,-0.049,10.006,-0.101,0.144,0.045,-0.026,0.000,4213.000,-1272.000,-13927.000,0.078,-0.696,0.090,0.708,0.0000000,0.0000000,0.000,0.000,0.000,0.000,0,00:00:00,0,0.000,0.000,91871.383,27.344,0.000,0.000,-0.108,9.810,-0.128,-0.000,0.000,0.000,0.000,0.000
22.804,0,0,0.709,-5.281,-8.379,0.704,-5.226,-12.384,0.144,-2.612,-9.639,0.000,0.000,0.0116870,0.000,9144.000,0.016,1.043,5.098,1.302,918.279,28.190,822.037,-0.010,9.984,-0.251,0.093,0.002,-0.026,0.132,4215.000,-1231.000,-13944.000,0.074,-0.699,0.094,0.705,0.0000000,0.0000000,0.000,0.000,0.000,0.000,0,00:00:00,0,0.000,0.610,91861.242,27.350,0.000,0.000,-0.020,9.800,-0.137,-0.000,0.001,0.000,0.000,0.000
22.905,0,0,0.702,-5.229,-8.231,0.709,-5.181,-12.263,0.440,-2.518,-9.701,0.000,0.000,0.0116870,0.000,9144.000,0.016,0.716,5.230,1.313,918.282,28.195,822.009,-0.035,10.027,-0.165,0.273,-0.021,0.019,-0.156,4168.000,-1308.000,-13911.000,0.078,-0.695,0.089,0.709,0.0000000,0.0000000,0.000,0.000,0.000,0.000,0,00:00:00,0,0.000,0.610,91861.242,27.350,0.000,0.000,-0.020,9.800,-0.137,-0.000,0.001,0.000,0.000,0.000
23.006,0,0,0.698,-5.181,-8.100,0.730,-5.131,-12.163,0.603,-2.424,-9.679,0.000,0.000,0.0116870,0.000,9144.000,0.015,1.191,5.362,1.326,918.278,28.189,822.045,-0.003,9.991,-0.115,0.287,-0.036,0.213,-0.034,4189.000,-1265.000,-13915.000,0.077,-0.690,0.088,0.714,0.0000000,0.0000000,0.000,0.000,0.000,0.000,0,00:00:00,0,0.000,0.000,91871.383,27.344,0.000,0.000,-0.049,9.869,-0.167,-0.001,0.000,-0.001,0.000,0.000
23.107,0,0,0.696,-5.135,-7.998,0.738,-5.091,-12.095,0.469,-2.497,-9.697,0.000,0.000,0.0116870,0.000,9144.000,0.015,2.028,5.496,1.337,918.284,28.193,821.995,-0.055,10.020,-0.122,0.251,0.064,-0.109,-0.045,4170.000,-1263.000,-13942.000,0.080,-0.694,0.089,0.710,0.0000000,0.0000000,0.000,0.000,0.000,0.000,0,00:00:00,0,0.000,0.000,91871.383,27.344,0.000,0.000,-0.049,9.869,-0.167,-0.001,0.000,-0.001,0.000,0.000
23.208,0,0,0.695,-5.094,-7.911,0.738,-5.065,-12.040,0.394,-2.586,-9.655,0.000,0.000,0.0116870,0.000,9144.000,0.015,1.423,5.631,1.353,918.283,28.193,822.003,-0.044,9.999,-0.230,0.201,-0.013,0.049,0.049,4213.000,-1288.000,-13960.000,0.076,-0.694,0.092,0.710,0.0000000,0.0000000,0.000,0.000,0.000,0.000,0,00:00:00,0,0.000,0.914,91861.242,27.344,0.000,0.000,-0.196,9.751,-0.059,-0.001,0.000,-0.001,0.000,0.000
23.309,0,0,0.690,-5.057,-7.830,0.650,-5.060,-11.939,-0.489,-2.776,-9.074,0.000,0.000,0.0116870,0.000,9144.000,0.015,1.427,5.774,1.427,918.278,28.194,822.042,-0.002,9.481,-0.532,-0.330,0.045,-0.064,-0.134,4186.000,-1245.000,-13932.000,0.075,-0.706,0.096,0.698,0.0000000,0.0000000,0.000,0.000,0.000,0.000,0,00:00:00,0,0.000,0.914,91861.242,27.344,0.000,0.000,-0.196,9.751,-0.059,-0.001,0.000,-0.001,0.000,0.000
23.410,0,0,0.680,-5.025,-7.764,0.606,-5.073,-11.907,-0.055,-2.921,-9.573,0.000,0.000,0.0116870,0.000,9144.000,0.015,-0.464,5.919,1.450,918.281,28.196,822.016,-0.024,9.999,-0.453,0.072,0.085,-0.038,-0.038,4192.000,-1258.000,-14009.000,0.076,-0.704,0.101,0.699,0.0000000,0.0000000,0.000,0.000,0.000,0.000,0,00:00:00,0,0.000,-0.610,91881.508,27.344,0.000,0.000,0.020,9.967,-0.314,-0.004,0.002,0.001,0.000,0.000
23.511,0,0,0.668,-4.999,-7.707,0.567,-5.085,-11.881,-0.018,-2.882,-9.527,0.000,0.000,0.0116870,0.000,9144.000,0.015,-0.129,6.067,1.478,918.279,28.190,822.036,-0.001,9.948,-0.316,0.057,0.111,0.002,-0.021,4204.000,-1255.000,-13924.000,0.081,-0.702,0.104,0.700,0.0000000,0.0000000,0.000,0.000,0.000,0.000,0,00:00:00,0,0.000,-0.610,91881.508,27.344,0.000,0.000,0.020,9.967,-0.314,-0.004,0.002,0.001,0.000,0.000
23.612,0,0,0.653,-4.977,-7.659,0.546,-5.078,-11.872,0.154,-2.674,-9.598,0.000,0.000,0.0116870,0.000,9144.000,0.015,0.118,6.217,1.500,918.278,28.187,822.047,0.013,9.963,-0.144,0.144,-0.051,-0.047,-0.130,4210.000,-1217.000,-13952.000,0.084,-0.700,0.097,0.703,0.0000000,0.0000000,0.000,0.000,0.000,0.000,0,00:00:00,0,0.000,-0.610,91881.508,27.344,0.000,0.000,0.020,9.967,-0.314,-0.004,0.002,0.001,0.000,0.000
23.713,0,0,0.640,-4.958,-7.622,0.550,-5.075,-11.871,0.392,-2.700,-9.559,0.000,0.000,0.0116870,0.000,9144.000,0.015,0.334,6.369,1.525,918.280,28.198,822.031,0.004,9.934,-0.266,0.266,-0.096,0.092,0.100,4198.000,-1259.000,-13981.000,0.077,-0.695,0.098,0.708,0.0000000,0.0000000,0.000,0.000,0.000,0.000,0,00:00:00,0,0.000,0.305,91871.383,27.350,0.000,0.000,-0.147,9.781,-0.226,0.001,0.000,0.000,0.000,0.000
23.814,0,0,0.628,-4.942,-7.596,0.542,-5.061,-11.890,0.261,-2.575,-9.682,0.000,0.000,0.0116870,0.000,9144.000,0.015,1.189,6.523,1.538,918.280,28.196,822.024,-0.001,10.020,-0.136,0.158,-0.017,-0.051,-0.030,4220.000,-1256.000,-13881.000,0.079,-0.697,0.094,0.706,0.0000000,0.0000000,0.000,0.000,0.000,0.000,0,00:00:00,0,0.000,0.305,91871.383,27.350,0.000,0.000,-0.147,9.781,-0.226,0.001,0.000,0.000,0.000,0.000
23.915,0,0,0.617,-4.927,-7.580,0.542,-5.050,-11.914,0.343,-2.582,-9.650,0.000,0.000,0.0116870,0.000,9144.000,0.015,0.899,6.678,1.553,918.282,28.199,822.014,-0.010,9.991,-0.187,0.230,-0.040,-0.032,0.075,4195.000,-1271.000,-13966.000,0.077,-0.697,0.094,0.707,0.0000000,0.0000000,0.000,0.000,0.000,0.000,0,00:00:00,0,0.000,0.305,91871.383,27.356,0.000,0.000,-0.118,9.624,-0.128,0.000,0.000,-0.000,0.000,0.000
24.016,0,0,0.608,-4.913,-7.567,0.551,-5.050,-11.941,0.421,-2.680,-9.659,0.000,0.000,0.0116870,0.000,9144.000,0.015,1.014,6.835,1.569,918.278,28.194,822.042,0.021,10.027,-0.208,0.259,0.068,0.034,0.051,4193.000,-1266.000,-13957.000,0.078,-0.694,0.097,0.709,0.0000000,0.0000000,0.000,0.000,0.000,0.000,0,00:00:00,0,0.000,0.305,91871.383,27.356,0.000,0.000,-0.118,9.624,-0.128,0.000,0.000,-0.000,0.000,0.000
24.117,0,0,0.600,-4.903,-7.563,0.567,-5.059,-11.973,0.487,-2.753,-9.659,0.000,0.000,0.0116870,0.000,9144.000,0.015,1.348,6.994,1.584,918.281,28.189,822.022,0.005,10.049,-0.230,0.273,0.049,0.064,-0.013,4198.000,-1226.000,-13948.000,0.080,-0.692,0.099,0.710,0.0000000,0.0000000,0.000,0.000,0.000,0.000,0,00:00:00,0,0.000,0.000,91871.383,27.339,0.000,0.000,-0.128,9.849,-0.069,-0.000,0.001,0.000,0.000,0.000
24.218,0,0,0.595,-4.895,-7.570,0.575,-5.067,-12.014,0.396,-2.736,-9.680,0.000,0.000,0.0116870,0.000,9144.000,0.015,1.638,7.153,1.597,918.284,28.201,821.988,-0.026,10.063,-0.180,0.208,0.034,-0.015,-0.083,4235.000,-1262.000,-13967.000,0.084,-0.694,0.097,0.709,0.0000000,0.0000000,0.000,0.000,0.000,0.000,0,00:00:00,0,0.000,0.000,91871.383,27.339,0.000,0.000,-0.128,9.849,-0.069,-0.000,0.001,0.000,0.000,0.000
24.319,0,0,0.591,-4.889,-7.578,0.585,-5.073,-12.041,0.416,-2.706,-9.561,0.000,0.000,0.0116870,0.000,9144.000,0.015,1.371,7.315,1.622,918.281,28.196,822.016,0.000,9.941,-0.144,0.251,0.034,-0.043,0.072,4205.000,-1282.000,-13888.000,0.084,-0.694,0.099,0.708,0.0000000,0.0000000,0.000,0.000,0.000,0.000,0,00:00:00,0,0.000,0.305,91871.383,27.350,0.000,0.000,-0.059,9.888,-0.177,0.000,0.000,-0.000,0.000,0.000
24.420,0,0,0.588,-4.885,-7.595,0.591,-5.075,-12.079,0.379,-2.658,-9.621,0.000,0.000,0.0116870,0.000,9144.000,0.015,1.290,7.479,1.641,918.285,28.198,821.983,-0.035,9.984,-0.223,0.172,-0.136,0.134,-0.051,4181.000,-1284.000,-13888.000,0.079,-0.693,0.094,0.710,0.0000000,0.0000000,0.000,0.000,0.000,0.000,0,00:00:00,0,0.000,0.305,91871.383,27.350,0.000,0.000,-0.059,9.888,-0.177,0.000,0.000,-0.000,0.000,0.000
24.521,0,0,0.586,-4.882,-7.609,0.595,-5.068,-12.107,0.354,-2.553,-9.562,0.000,0.000,0.0116870,0.000,9144.000,0.015,1.517,7.646,1.665,918.282,28.199,822.014,-0.005,9.898,-0.237,0.201,-0.104,-0.021,0.047,4188.000,-1249.000,-13883.000,0.074,-0.695,0.092,0.709,0.0000000,0.0000000,0.000,0.000,0.000,0.000,0,00:00:00,0,0.000,0.000,91871.383,27.350,0.000,0.000,-0.078,9.781,-0.147,-0.001,0.000,-0.000,0.000,0.000
24.622,0,0,0.586,-4.878,-7.634,0.620,-5.045,-12.164,0.565,-2.400,-9.792,0.000,0.000,0.0116870,0.000,9144.000,0.015,1.273,7.813,1.667,918.286,28.204,821.969,-0.053,10.092,-0.065,0.323,-0.034,0.036,0.045,4193.000,-1232.000,-13890.000,0.075,-0.693,0.089,0.712,0.0000000,0.0000000,0.000,0.000,0.000,0.000,0,00:00:00,0,0.000,0.000,91871.383,27.350,0.000,0.000,-0.078,9.781,-0.147,-0.001,0.000,-0.000,0.000,0.000
24.723,0,0,0.587,-4.873,-7.659,0.643,-5.013,-12.222,0.540,-2.290,-9.855,0.000,0.000,0.0116870,0.000,9144.000,0.015,1.655,7.979,1.663,918.283,28.200,821.997,-0.029,10.128,0.014,0.302,-0.040,-0.062,0.019,4199.000,-1269.000,-13928.000,0.077,-0.694,0.085,0.711,0.0000000,0.0000000,0.000,0.000,0.000,0.000,0,00:00:00,0,0.000,0.000,91871.383,27.350,0.000,0.000,-0.078,9.781,-0.147,-0.001,0.000,-0.000,0.000,0.000
24.824,0,0,0.591,-4.866,-7.682,0.655,-4.996,-12.267,0.437,-2.435,-9.766,0.000,0.000,0.0116870,0.000,9144.000,0.015,1.502,8.146,1.667,918.281,28.193,822.019,-0.006,10.070,-0.223,0.208,-0.075,0.081,0.015,4220.000,-1264.000,-13918.000,0.071,-0.694,0.085,0.712,0.0000000,0.0000000,0.000,0.000,0.000,0.000,0,00:00:00,0,0.000,-0.610,91881.508,27.356,0.000,0.000,0.010,9.869,-0.235,0.001,0.001,0.001,0.000,0.000
24.925,0,0,0.594,-4.860,-7.711,0.653,-4.979,-12.306,0.297,-2.429,-9.691,0.000,0.000,0.0116870,0.000,9144.000,0.015,1.573,8.314,1.679,918.284,28.203,821.995,-0.031,9.991,-0.230,0.151,0.006,-0.032,-0.028,4184.000,-1262.000,-13850.000,0.071,-0.696,0.086,0.709,0.0000000,0.0000000,0.000,0.000,0.000,0.000,0,00:00:00,0,0.000,-0.610,91881.508,27.356,0.000,0.000,0.010,9.869,-0.235,0.001,0.001,0.001,0.000,0.000
25.026,0,0,0.598,-4.853,-7.741,0.659,-4.962,-12.342,0.384,-2.424,-9.691,0.000,0.000,0.0116870,0.000,9144.000,0.015,1.128,8.483,1.691,918.284,28.199,821.989,-0.036,9.991,-0.230,0.223,-0.006,0.013,-0.017,4186.000,-1282.000,-13909.000,0.070,-0.696,0.086,0.710,0.0000000,0.0000000,0.000,0.000,0.000,0.000,0,00:00:00,0,0.000,-0.914,91881.508,27.350,0.000,0.000,-0.118,9.761,-0.128,0.000,0.000,0.000,0.000,0.000
25.127,0,0,0.601,-4.845,-7.772,0.655,-4.935,-12.385,0.279,-2.318,-9.783,0.000,0.000,0.0116870,0.000,9144.000,0.015,1.238,8.652,1.694,918.284,28.200,821.989,-0.039,10.056,-0.122,0.158,-0.013,-0.060,-0.040,4193.000,-1263.000,-13950.000,0.072,-0.698,0.083,0.708,0.0000000,0.0000000,0.000,0.000,0.000,0.000,0,00:00:00,0,0.000,-0.914,91881.508,27.350,0.000,0.000,-0.118,9.761,-0.128,0.000,0.000,0.000,0.000,0.000
25.228,0,0,0.605,-4.836,-7.801,0.670,-4.914,-12.409,0.469,-2.361,-9.628,0.000,0.000,0.0116870,0.000,9144.000,0.015,0.898,8.823,1.712,918.284,28.210,821.990,-0.037,9.920,-0.172,0.244,0.023,0.143,0.011,4212.000,-1268.000,-13898.000,0.072,-0.694,0.085,0.712,0.0000000,0.0000000,0.000,0.000,0.000,0.000,0,00:00:00,0,0.000,0.000,91871.383,27.356,0.000,0.000,-0.088,9.732,-0.118,-0.000,0.000,-0.001,0.000,0.000
25.329,0,0,0.610,-4.826,-7.832,0.693,-4.891,-12.436,0.551,-2.339,-9.674,0.000,0.000,0.0116870,0.000,9144.000,0.015,1.564,8.996,1.725,918.287,28.206,821.968,-0.055,9.963,-0.129,0.294,0.009,0.045,0.051,4229.000,-1234.000,-13983.000,0.072,-0.692,0.086,0.713,0.0000000,0.0000000,0.000,0.000,0.000,0.000,0,00:00:00,0,0.000,0.000,91871.383,27.356,0.000,0.000,-0.088,9.732,-0.118,-0.000,0.000,-0.001,0.000,0.000
25.430,0,0,0.616,-4.816,-7.861,0.710,-4.872,-12.469,0.492,-2.365,-9.766,0.000,0.000,0.0116870,0.000,9144.000,0.015,1.757,9.169,1.730,918.286,28.210,821.974,-0.047,10.056,-0.158,0.244,-0.023,0.047,0.040,4252.000,-1278.000,-13936.000,0.070,-0.693,0.086,0.712,0.0000000,0.0000000,0.000,0.000,0.000,0.000,0,00:00:00,0,0.000,0.000,91871.383,27.350,0.000,0.000,-0.108,9.790,-0.128,-0.001,0.000,0.000,0.000,0.000
25.531,0,0,0.623,-4.805,-7.891,0.714,-4.852,-12.486,0.378,-2.351,-9.626,0.000,0.000,0.0116870,0.000,9144.000,0.015,1.707,9.343,1.748,918.288,28.207,821.959,-0.059,9.912,-0.180,0.201,-0.002,-0.043,0.009,4201.000,-1274.000,-13915.000,0.070,-0.695,0.085,0.710,0.0000000,0.0000000,0.000,0.000,0.000,0.000,0,00:00:00,0,0.000,0.000,91871.383,27.350,0.000,0.000,-0.108,9.790,-0.128,-0.001,0.000,0.000,0.000,0.000
25.632,0,0,0.629,-4.794,-7.917,0.710,-4.836,-12.509,0.293,-2.381,-9.724,0.000,0.000,0.0116870,0.000,9144.000,0.015,1.312,9.519,1.757,918.287,28.206,821.960,-0.050,10.013,-0.144,0.180,0.045,-0.100,-0.017,4164.000,-1267.000,-13942.000,0.073,-0.698,0.086,0.707,0.0000000,0.0000000,0.000,0.000,0.000,0.000,0,00:00:00,0,0.000,-0.610,91881.508,27.350,0.000,0.000,-0.088,9.790,-0.167,0.000,0.000,0.000,0.000,0.000
25.733,0,0,0.635,-4.783,-7.939,0.709,-4.821,-12.527,0.328,-2.385,-9.723,0.000,0.000,0.0116870,0.000,9144.000,0.015,0.885,9.696,1.766,918.286,28.210,821.974,-0.033,10.013,-0.180,0.223,-0.034,-0.075,0.013,4209.000,-1239.000,-13945.000,0.072,-0.698,0.085,0.707,0.0000000,0.0000000,0.000,0.000,0.000,0.000,0,00:00:00,0,0.000,-0.610,91881.508,27.350,0.000,0.000,-0.088,9.790,-0.167,0.000,0.000,0.000,0.000,0.000
25.834,0,0,0.640,-4.772,-7.957,0.702,-4.801,-12.541,0.262,-2.321,-9.732,0.000,0.000,0.0116870,0.000,9144.000,0.015,0.864,9.873,1.773,918.283,28.214,822.002,-0.005,10.006,-0.151,0.187,-0.036,-0.104,0.004,4203.000,-1295.000,-13970.000,0.071,-0.699,0.083,0.706,0.0000000,0.0000000,0.000,0.000,0.000,0.000,0,00:00:00,0,0.000,-0.305,91881.508,27.350,0.000,0.000,-0.098,9.879,-0.216,0.000,0.000,0.000,0.000,0.000
25.935,0,0,0.643,-4.760,-7.976,0.697,-4.785,-12.553,0.297,-2.364,-9.707,0.000,0.000,0.0116870,0.000,9144.000,0.015,0.666,10.051,1.784,918.286,28.210,821.973,-0.031,9.991,-0.180,0.223,0.017,-0.109,-0.030,4222.000,-1251.000,-13918.000,0.072,-0.699,0.084,0.706,0.0000000,0.0000000,0.000,0.000,0.000,0.000,0,00:00:00,0,0.000,-0.305,91881.508,27.350,0.000,0.000,-0.098,9.879,-0.216,0.000,0.000,0.000,0.000,0.000
26.036,0,0,0.646,-4.748,-7.993,0.694,-4.770,-12.554,0.311,-2.357,-9.634,0.000,0.000,0.0116870,0.000,9144.000,0.015,0.661,10.232,1.801,918.285,28.209,821.981,-0.018,9.920,-0.180,0.187,0.009,0.043,0.026,4209.000,-1278.000,-13985.000,0.071,-0.697,0.085,0.708,0.0000000,0.0000000,0.000,0.000,0.000,0.000,0,00:00:00,0,0.000,-0.305,91881.508,27.350,0.000,0.000,-0.098,9.879,-0.216,0.000,0.000,0.000,0.000,0.000
26.137,0,0,0.649,-4.737,-8.005,0.697,-4.762,-12.558,0.374,-2.419,-9.683,0.000,0.000,0.0116870,0.000,9144.000,0.015,0.992,10.413,1.814,918.284,28.207,821.992,-0.004,9.984,-0.172,0.201,0.055,0.079,0.034,4212.000,-1244.000,-13955.000,0.072,-0.695,0.088,0.710,0.0000000,0.0000000,0.000,0.000,0.000,0.000,0,00:00:00,0,0.000,-0.305,91881.508,27.350,0.000,0.000,-0.177,9.751,-0.186,0.000,0.000,0.000,0.000,0.000
26.238,0,0,0.652,-4.726,-8.019,0.697,-4.759,-12.568,0.339,-2.469,-9.745,0.000,0.000,0.0116870,0.000,9144.000,0.015,1.302,10.595,1.820,918.286,28.210,821.974,-0.022,10.056,-0.108,0.194,0.102,-0.070,-0.087,4239.000,-1255.000,-13951.000,0.079,-0.696,0.088,0.708,0.0000000,0.0000000,0.000,0.000,0.000,0.000,0,00:00:00,0,0.000,-0.305,91881.508,27.350,0.000,0.000,-0.177,9.751,-0.186,0.000,0.000,0.000,0.000,0.000
26.339,0,0,0.654,-4.717,-8.028,0.693,-4.768,-12.568,0.305,-2.581,-9.698,0.000,0.000,0.0116870,0.000,9144.000,0.015,1.006,10.778,1.832,918.283,28.209,821.998,0.007,10.034,-0.259,0.223,-0.036,-0.096,0.132,4233.000,-1251.000,-13920.000,0.073,-0.698,0.092,0.706,0.0000000,0.0000000,0.000,0.000,0.000,0.000,0,00:00:00,0,0.000,0.000,91871.383,27.350,0.000,0.000,-0.147,9.761,-0.147,-0.000,0.000,0.000,0.000,0.000
26.440,0,0,0.656,-4.710,-8.039,0.697,-4.774,-12.564,0.390,-2.535,-9.624,0.000,0.000,0.0116870,0.000,9144.000,0.015,0.862,10.963,1.850,918.287,28.205,821.969,-0.022,9.955,-0.136,0.266,0.092,-0.055,0.017,4240.000,-1263.000,-13967.000,0.078,-0.696,0.094,0.707,0.0000000,0.0000000,0.000,0.000,0.000,0.000,0,00:00:00,0,0.000,0.000,91871.383,27.350,0.000,0.000,-0.147,9.761,-0.147,-0.000,0.000,0.000,0.000,0.000
26.541,0,0,0.659,-4.705,-8.043,0.707,-4.805,-12.560,0.445,-2.788,-9.682,0.000,0.000,0.0116870,0.000,9144.000,0.015,1.044,11.149,1.863,918.283,28.203,822.002,0.017,10.078,-0.230,0.309,0.134,-0.085,0.009,4206.000,-1272.000,-13915.000,0.082,-0.695,0.099,0.707,0.0000000,0.0000000,0.000,0.000,0.000,0.000,0,00:00:00,0,0.000,0.305,91871.383,27.350,0.000,0.000,-0.108,9.781,-0.078,-0.001,0.000,-0.001,0.000,0.000
26.642,0,0,0.661,-4.703,-8.051,0.698,-4.832,-12.562,0.256,-2.746,-9.710,0.000,0.000,0.0116870,0.000,9144.000,0.015,1.163,11.337,1.873,918.287,28.209,821.966,-0.018,10.092,-0.172,0.122,0.015,0.079,0.060,4189.000,-1281.000,-13950.000,0.082,-0.695,0.100,0.707,0.0000000,0.0000000,0.000,0.000,0.000,0.000,0,00:00:00,0,0.000,0.305,91871.383,27.350,0.000,0.000,-0.108,9.781,-0.078,-0.001,0.000,-0.001,0.000,0.000
26.743,0,0,0.663,-4.704,-8.058,0.706,-4.856,-12.553,0.426,-2.719,-9.610,0.000,0.000,0.0116870,0.000,9144.000,0.015,1.155,11.526,1.893,918.287,28.209,821.966,-0.016,9.991,-0.158,0.251,0.011,0.006,-0.038,4223.000,-1249.000,-13977.000,0.084,-0.694,0.098,0.708,0.0000000,0.0000000,0.000,0.000,0.000,0.000,0,00:00:00,0,0.000,0.000,91871.383,27.350,0.000,0.000,-0.029,9.800,-0.206,-0.000,0.000,0.001,0.000,0.000
26.844,0,0,0.666,-4.707,-8.063,0.717,-4.880,-12.546,0.457,-2.711,-9.641,0.000,0.000,0.0116870,0.000,9144.000,0.015,1.317,11.717,1.910,918.287,28.210,821.965,-0.015,10.020,-0.172,0.259,-0.032,0.038,0.064,4243.000,-1285.000,-13961.000,0.082,-0.693,0.099,0.710,0.0000000,0.0000000,0.000,0.000,0.000,0.000,0,00:00:00,0,0.000,0.000,91871.383,27.350,0.000,0.000,-0.029,9.800,-0.206,-0.000,0.000,0.001,0.000,0.000
26.945,0,0,0.669,-4.712,-8.065,0.722,-4.897,-12.533,0.411,-2.648,-9.591,0.000,0.000,0.0116870,0.000,9144.000,0.015,1.506,11.910,1.932,918.286,28.203,821.971,-0.007,9.955,-0.129,0.201,-0.004,0.085,0.072,4203.000,-1291.000,-13991.000,0.082,-0.693,0.098,0.710,0.0000000,0.0000000,0.000,0.000,0.000,0.000,0,00:00:00,0,0.000,0.305,91871.383,27.350,0.000,0.000,-0.108,9.810,-0.069,-0.000,-0.000,-0.000,0.000,0.000
27.046,0,0,0.672,-4.718,-8.065,0.717,-4.923,-12.518,0.298,-2.746,-9.576,0.000,0.000,0.0116870,0.000,9144.000,0.015,1.575,12.106,1.955,918.286,28.205,821.977,-0.000,9.963,-0.230,0.151,0.002,-0.006,-0.040,4229.000,-1262.000,-13998.000,0.082,-0.695,0.098,0.708,0.0000000,0.0000000,0.000,0.000,0.000,0.000,0,00:00:00,0,0.000,0.305,91871.383,27.350,0.000,0.000,-0.108,9.810,-0.069,-0.000,-0.000,-0.000,0.000,0.000
27.147,0,0,0.675,-4.726,-8.065,0.721,-4.940,-12.502,0.399,-2.652,-9.561,0.000,0.000,0.0116870,0.000,9144.000,0.015,1.203,12.304,1.980,918.286,28.214,821.970,-0.007,9.927,-0.086,0.237,0.055,-0.038,-0.021,4253.000,-1252.000,-13925.000,0.087,-0.694,0.098,0.708,0.0000000,0.0000000,0.000,0.000,0.000,0.000,0,00:00:00,0,0.000,-0.305,91881.508,27.350,0.000,0.000,-0.128,9.771,-0.137,0.000,0.000,0.000,0.000,0.000
27.248,0,0,0.678,-4.736,-8.061,0.730,-4.970,-12.489,0.445,-2.796,-9.595,0.000,0.000,0.0116870,0.000,9144.000,0.016,1.179,12.504,2.002,918.285,28.215,821.985,0.009,9.999,-0.215,0.266,0.000,-0.006,-0.034,4181.000,-1294.000,-13882.000,0.086,-0.694,0.099,0.708,0.0000000,0.0000000,0.000,0.000,0.000,0.000,0,00:00:00,0,0.000,-0.305,91881.508,27.350,0.000,0.000,-0.128,9.771,-0.137,0.000,0.000,0.000,0.000,0.000
27.349,0,0,0.681,-4.747,-8.062,0.737,-4.990,-12.484,0.429,-2.691,-9.647,0.000,0.000,0.0116870,0.000,9144.000,0.016,1.332,12.706,2.018,918.288,28.215,821.953,-0.026,10.020,-0.144,0.259,-0.040,-0.075,-0.079,4233.000,-1268.000,-13930.000,0.086,-0.694,0.095,0.708,0.0000000,0.0000000,0.000,0.000,0.000,0.000,0,00:00:00,0,0.000,-0.305,91881.508,27.350,0.000,0.000,-0.128,9.771,-0.137,0.000,0.000,0.000,0.000,0.000
27.450,0,0,0.685,-4.758,-8.060,0.746,-5.003,-12.482,0.442,-2.633,-9.685,0.000,0.000,0.0116870,0.000,9144.000,0.016,1.190,12.909,2.031,918.287,28.215,821.969,-0.010,10.042,-0.201,0.215,-0.119,0.104,-0.100,4240.000,-1313.000,-13937.000,0.081,-0.693,0.091,0.711,0.0000000,0.0000000,0.000,0.000,0.000,0.000,0,00:00:00,0,0.000,0.610,91871.383,27.344,0.000,0.000,-0.078,9.859,-0.088,-0.000,0.001,0.000,0.000,0.000
27.551,0,0,0.689,-4.770,-8.059,0.751,-5.017,-12.473,0.412,-2.650,-9.601,0.000,0.000,0.0116870,0.000,9144.000,0.016,1.507,13.114,2.051,918.287,28.214,821.962,-0.021,9.963,-0.266,0.201,-0.026,0.053,-0.085,4214.000,-1291.000,-13972.000,0.079,-0.693,0.092,0.710,0.0000000,0.0000000,0.000,0.000,0.000,0.000,0,00:00:00,0,0.000,0.610,91871.383,27.344,0.000,0.000,-0.078,9.859,-0.088,-0.000,0.001,0.000,0.000,0.000
27.652,0,0,0.694,-4.781,-8.060,0.763,-5.017,-12.481,0.487,-2.512,-9.767,0.000,0.000,0.0116870,0.000,9144.000,0.016,1.484,13.319,2.056,918.288,28.213,821.954,-0.029,10.092,-0.122,0.273,-0.032,-0.015,0.026,4218.000,-1287.000,-13928.000,0.078,-0.694,0.090,0.710,0.0000000,0.0000000,0.000,0.000,0.000,0.000,0,00:00:00,0,0.000,-0.305,91881.508,27.350,0.000,0.000,-0.147,9.898,-0.147,0.000,0.000,0.000,0.000,0.000
27.753,0,0,0.698,-4.791,-8.060,0.762,-5.022,-12.478,0.353,-2.571,-9.660,0.000,0.000,0.0116870,0.000,9144.000,0.016,1.472,13.527,2.071,918.288,28.209,821.957,-0.025,9.999,-0.187,0.223,0.017,-0.109,0.049,4242.000,-1273.000,-14010.000,0.077,-0.696,0.092,0.708,0.0000000,0.0000000,0.000,0.000,0.000,0.000,0,00:00:00,0,0.000,-0.305,91881.508,27.350,0.000,0.000,-0.147,9.898,-0.147,0.000,0.000,0.000,0.000,0.000
27.854,0,0,0.702,-4.801,-8.061,0.756,-5.031,-12.471,0.313,-2.620,-9.610,0.000,0.000,0.0116870,0.000,9144.000,0.016,1.063,13.736,2.091,918.289,28.218,821.943,-0.036,9.963,-0.136,0.180,0.113,-0.019,-0.064,4201.000,-1302.000,-13928.000,0.083,-0.696,0.094,0.707,0.0000000,0.0000000,0.000,0.000,0.000,0.000,0,00:00:00,0,0.000,0.305,91871.383,27.350,0.000,0.000,-0.069,9.820,-0.147,-0.001,0.000,-0.000,0.000,0.000
27.955,0,0,0.705,-4.811,-8.062,0.746,-5.043,-12.474,0.270,-2.643,-9.709,0.000,0.000,0.0116870,0.000,9144.000,0.016,0.998,13.946,2.101,918.289,28.225,821.945,-0.034,10.063,-0.180,0.158,-0.047,0.015,0.113,4213.000,-1271.000,-13874.000,0.079,-0.697,0.095,0.707,0.0000000,0.0000000,0.000,0.000,0.000,0.000,0,00:00:00,0,0.000,0.305,91871.383,27.350,0.000,0.000,-0.069,9.820,-0.147,-0.001,0.000,-0.000,0.000,0.000
28.056,0,0,0.707,-4.822,-8.060,0.746,-5.063,-12.475,0.381,-2.737,-9.702,0.000,0.000,0.0116870,0.000,9144.000,0.016,0.989,14.157,2.112,918.287,28.224,821.962,-0.016,10.085,-0.172,0.201,0.104,0.036,-0.241,4222.000,-1264.000,-13944.000,0.087,-0.694,0.094,0.708,0.0000000,0.0000000,0.000,0.000,0.000,0.000,0,00:00:00,0,0.000,0.305,91871.383,27.344,0.000,0.000,-0.108,9.790,-0.147,0.000,0.000,0.000,0.000,0.000
28.157,0,0,0.708,-4.834,-8.058,0.736,-5.088,-12.465,0.269,-2.789,-9.602,0.000,0.000,0.0116870,0.000,9144.000,0.016,1.172,14.370,2.132,918.287,28.224,821.962,-0.014,9.999,-0.237,0.151,0.013,-0.038,-0.060,4249.000,-1297.000,-13998.000,0.086,-0.696,0.096,0.706,0.0000000,0.0000000,0.000,0.000,0.000,0.000,0,00:00:00,0,0.000,0.305,91871.383,27.344,0.000,0.000,-0.108,9.790,-0.147,0.000,0.000,0.000,0.000,0.000
28.258,0,0,0.710,-4.846,-8.058,0.748,-5.106,-12.458,0.496,-2.732,-9.604,0.000,0.000,0.0116870,0.000,9144.000,0.016,0.908,14.585,2.153,918.289,28.224,821.946,-0.031,9.991,-0.158,0.316,0.019,-0.028,-0.026,4239.000,-1245.000,-13893.000,0.086,-0.694,0.097,0.708,0.0000000,0.0000000,0.000,0.000,0.000,0.000,0,00:00:00,0,0.000,-0.305,91881.508,27.350,0.000,0.000,-0.059,9.751,-0.284,0.000,0.000,0.000,0.000,0.000
28.359,0,0,0.713,-4.858,-8.056,0.768,-5.102,-12.464,0.565,-2.510,-9.748,0.000,0.000,0.0116870,0.000,9144.000,0.016,1.281,14.801,2.159,918.288,28.225,821.953,-0.020,10.078,-0.014,0.309,-0.111,0.060,0.096,4221.000,-1274.000,-13908.000,0.083,-0.692,0.094,0.711,0.0000000,0.0000000,0.000,0.000,0.000,0.000,0,00:00:00,0,0.000,-0.305,91881.508,27.350,0.000,0.000,-0.059,9.751,-0.284,0.000,0.000,0.000,0.000,0.000
28.460,0,0,0.716,-4.870,-8.055,0.765,-5.116,-12.461,0.353,-2.707,-9.659,0.000,0.000,0.0116870,0.000,9144.000,0.016,1.684,15.019,2.174,918.289,28.220,821.949,-0.023,10.034,-0.165,0.194,0.064,-0.075,0.015,4235.000,-1303.000,-13947.000,0.084,-0.695,0.096,0.708,0.0000000,0.0000000,0.000,0.000,0.000,0.000,0,00:00:00,0,0.000,-0.305,91881.508,27.350,0.000,0.000,-0.059,9.751,-0.284,0.000,0.000,0.000,0.000,0.000
28.561,0,0,0.719,-4.882,-8.054,0.773,-5.136,-12.452,0.452,-2.763,-9.591,0.000,0.000,0.0116870,0.000,9144.000,0.016,1.184,15.238,2.196,918.289,28.227,821.943,-0.025,9.984,-0.230,0.287,0.002,-0.032,0.038,4204.000,-1291.000,-13876.000,0.082,-0.694,0.099,0.708,0.0000000,0.0000000,0.000,0.000,0.000,0.000,0,00:00:00,0,0.000,0.000,91871.383,27.350,0.000,0.000,-0.088,9.790,-0.088,0.001,-0.000,0.001,0.000,0.000
28.662,0,0,0.722,-4.894,-8.047,0.774,-5.147,-12.439,0.397,-2.681,-9.584,0.000,0.000,0.0116870,0.000,9144.000,0.016,1.325,15.460,2.219,918.286,28.215,821.976,0.009,9.955,-0.180,0.215,-0.023,0.023,-0.058,4218.000,-1262.000,-13877.000,0.083,-0.694,0.096,0.709,0.0000000,0.0000000,0.000,0.000,0.000,0.000,0,00:00:00,0,0.000,0.000,91871.383,27.350,0.000,0.000,-0.088,9.790,-0.088,0.001,-0.000,0.001,0.000,0.000
28.763,0,0,0.726,-4.906,-8.043,0.796,-5.163,-12.436,0.601,-2.738,-9.665,0.000,0.000,0.0116870,0.000,9144.000,0.016,1.348,15.684,2.233,918.287,28.216,821.960,-0.006,10.056,-0.144,0.345,0.068,0.023,-0.051,4205.000,-1279.000,-13845.000,0.086,-0.691,0.098,0.711,0.0000000,0.0000000,0.000,0.000,0.000,0.000,0,00:00:00,0,0.000,0.000,91871.383,27.350,0.000,0.000,-0.059,9.781,-0.108,-0.000,0.000,-0.000,0.000,0.000
28.864,0,0,0.732,-4.919,-8.035,0.814,-5.168,-12.427,0.554,-2.639,-9.626,0.000,0.000,0.0116870,0.000,9144.000,0.016,1.726,15.909,2.252,918.285,28.214,821.986,0.022,9.991,-0.158,0.280,-0.098,0.062,-0.023,4208.000,-1259.000,-13885.000,0.082,-0.691,0.095,0.712,0.0000000,0.0000000,0.000,0.000,0.000,0.000,0,00:00:00,0,0.000,0.000,91871.383,27.350,0.000,0.000,-0.059,9.781,-0.108,-0.000,0.000,-0.000,0.000,0.000
28.965,0,0,0.737,-4.930,-8.027,0.810,-5.183,-12.423,0.353,-2.742,-9.658,0.000,0.000,0.0116870,0.000,9144.000,0.016,1.839,16.135,2.267,918.285,28.218,821.983,0.022,10.042,-0.194,0.208,0.053,-0.096,0.151,4220.000,-1262.000,-13922.000,0.081,-0.695,0.100,0.708,0.0000000,0.0000000,0.000,0.000,0.000,0.000,0,00:00:00,0,0.000,0.305,91871.383,27.350,0.000,0.000,-0.088,9.830,-0.157,0.000,0.000,0.000,0.000,0.000
29.066,0,0,0.742,-4.943,-8.021,0.807,-5.195,-12.414,0.362,-2.725,-9.603,0.000,0.000,0.0116870,0.000,9144.000,0.017,1.242,16.364,2.288,918.286,28.215,821.976,0.017,9.984,-0.172,0.223,0.021,-0.062,-0.096,4210.000,-1287.000,-13919.000,0.085,-0.695,0.098,0.707,0.0000000,0.0000000,0.000,0.000,0.000,0.000,0,00:00:00,0,0.000,0.305,91871.383,27.350,0.000,0.000,-0.088,9.830,-0.157,0.000,0.000,0.000,0.000,0.000
29.167,0,0,0.746,-4.955,-8.017,0.789,-5.208,-12.401,0.209,-2.732,-9.537,0.000,0.000,0.0116870,0.000,9144.000,0.017,1.084,16.596,2.315,918.288,28.222,821.956,-0.003,9.920,-0.237,0.115,-0.036,-0.023,-0.107,4209.000,-1285.000,-13875.000,0.084,-0.697,0.096,0.706,0.0000000,0.0000000,0.000,0.000,0.000,0.000,0,00:00:00,0,0.000,0.610,91871.383,27.344,0.000,0.000,-0.147,9.751,-0.147,-0.001,0.000,-0.000,0.000,0.000
29.268,0,0,0.748,-4.967,-8.009,0.793,-5.233,-12.390,0.433,-2.859,-9.574,0.000,0.000,0.0116870,0.000,9144.000,0.017,0.806,16.830,2.339,918.285,28.212,821.979,0.024,9.991,-0.330,0.302,0.011,-0.009,0.060,4185.000,-1269.000,-13946.000,0.080,-0.695,0.101,0.708,0.0000000,0.0000000,0.000,0.000,0.000,0.000,0,00:00:00,0,0.000,0.610,91871.383,27.344,0.000,0.000,-0.147,9.751,-0.147,-0.001,0.000,-0.000,0.000,0.000
29.369,0,0,0.750,-4.980,-8.002,0.797,-5.241,-12.386,0.433,-2.695,-9.630,0.000,0.000,0.0116870,0.000,9144.000,0.017,1.243,17.065,2.356,918.286,28.215,821.976,0.021,10.006,-0.151,0.244,0.011,0.032,-0.053,4192.000,-1257.000,-13903.000,0.083,-0.693,0.098,0.709,0.0000000,0.0000000,0.000,0.000,0.000,0.000,0,00:00:00,0,0.000,0.305,91871.383,27.350,0.000,0.000,0.078,9.771,-0.108,0.000,0.000,0.001,0.000,0.000
29.470,0,0,0.752,-4.993,-7.996,0.778,-5.249,-12.367,0.212,-2.706,-9.475,0.000,0.000,0.0116870,0.000,9144.000,0.017,1.413,17.304,2.390,918.287,28.220,821.965,0.012,9.855,-0.129,0.122,0.075,-0.058,0.128,4192.000,-1273.000,-13913.000,0.085,-0.696,0.102,0.705,0.0000000,0.0000000,0.000,0.000,0.000,0.000,0,00:00:00,0,0.000,0.305,91871.383,27.350,0.000,0.000,0.078,9.771,-0.108,0.000,0.000,0.001,0.000,0.000
29.571,0,0,0.755,-5.005,-7.987,0.829,-5.258,-12.362,0.900,-2.722,-9.612,0.000,0.000,0.0116870,0.000,9144.000,0.017,0.902,17.545,2.410,918.285,28.220,821.981,0.030,10.013,-0.165,0.567,-0.070,0.055,-0.079,4169.000,-1264.000,-14017.000,0.084,-0.688,0.098,0.714,0.0000000,0.0000000,0.000,0.000,0.000,0.000,0,00:00:00,0,0.000,0.914,91861.242,27.350,0.000,0.000,-0.196,9.633,-0.353,0.001,0.000,-0.001,0.000,0.000
29.672,0,0,0.760,-5.016,-7.981,0.831,-5.260,-12.369,0.420,-2.658,-9.721,0.000,0.000,0.0116870,0.000,9144.000,0.017,2.228,17.787,2.419,918.285,28.223,821.979,0.026,10.085,-0.050,0.208,0.032,-0.075,0.113,4146.000,-1304.000,-13917.000,0.085,-0.693,0.099,0.709,0.0000000,0.0000000,0.000,0.000,0.000,0.000,0,00:00:00,0,0.000,0.914,91861.242,27.350,0.000,0.000,-0.196,9.633,-0.353,0.001,0.000,-0.001,0.000,0.000
29.773,0,0,0.764,-5.027,-7.975,0.822,-5.272,-12.358,0.319,-2.762,-9.541,0.000,0.000,0.0116870,0.000,9144.000,0.017,1.494,18.032,2.446,918.285,28.223,821.979,0.025,9.934,-0.223,0.151,-0.023,0.055,0.015,4206.000,-1243.000,-13913.000,0.083,-0.694,0.099,0.708,0.0000000,0.0000000,0.000,0.000,0.000,0.000,0,00:00:00,0,0.000,0.914,91861.242,27.350,0.000,0.000,-0.196,9.633,-0.353,0.001,0.000,-0.001,0.000,0.000
29.874,0,0,0.768,-5.039,-7.970,0.821,-5.283,-12.352,0.385,-2.762,-9.563,0.000,0.000,0.0116870,0.000,9144.000,0.017,1.339,18.279,2.470,918.286,28.218,821.974,0.016,9.955,-0.266,0.223,-0.053,0.047,0.102,4209.000,-1272.000,-13929.000,0.078,-0.694,0.100,0.709,0.0000000,0.0000000,0.000,0.000,0.000,0.000,0,00:00:00,0,0.000,0.305,91871.383,27.350,0.000,0.000,-0.128,9.741,-0.098,-0.001,0.000,0.000,0.000,0.000
29.975,0,0,0.770,-5.049,-7.966,0.811,-5.281,-12.351,0.307,-2.630,-9.614,0.000,0.000,0.0116870,0.000,9144.000,0.017,1.441,18.528,2.490,918.286,28.214,821.978,0.016,9.970,-0.115,0.194,0.015,-0.128,-0.098,4227.000,-1250.000,-13900.000,0.084,-0.696,0.096,0.706,0.0000000,0.0000000,0.000,0.000,0.000,0.000,0,00:00:00,0,0.000,0.305,91871.383,27.350,0.000,0.000,-0.128,9.741,-0.098,-0.001,0.000,0.000,0.000,0.000
30.076,0,0,0.772,-5.058,-7.960,0.805,-5.268,-12.353,0.347,-2.537,-9.652,0.000,0.000,0.0116870,0.000,9144.000,0.017,0.912,18.778,2.506,918.284,28.220,821.989,0.026,9.984,-0.072,0.180,-0.055,0.058,-0.036,4178.000,-1250.000,-13883.000,0.084,-0.695,0.092,0.708,0.0000000,0.0000000,0.000,0.000,0.000,0.000,0,00:00:00,0,0.000,-0.914,91881.508,27.356,0.000,0.000,-0.177,9.810,-0.275,0.000,0.001,-0.000,0.000,0.000
30.177,0,0,0.773,-5.065,-7.955,0.805,-5.270,-12.351,0.411,-2.679,-9.608,0.000,0.000,0.0116870,0.000,9144.000,0.017,1.134,19.031,2.526,918.284,28.214,821.994,0.031,9.977,-0.208,0.273,0.004,-0.062,0.134,4199.000,-1247.000,-13911.000,0.080,-0.695,0.097,0.708,0.0000000,0.0000000,0.000,0.000,0.000,0.000,0,00:00:00,0,0.000,-0.914,91881.508,27.356,0.000,0.000,-0.177,9.810,-0.275,0.000,0.001,-0.000,0.000,0.000
30.278,0,0,0.774,-5.072,-7.956,0.792,-5.272,-12.352,0.279,-2.694,-9.591,0.000,0.000,0.0116870,0.000,9144.000,0.017,1.174,19.286,2.548,918.288,28.220,821.957,-0.010,9.963,-0.215,0.158,0.017,-0.006,-0.060,4213.000,-1242.000,-13887.000,0.081,-0.696,0.096,0.707,0.0000000,0.0000000,0.000,0.000,0.000,0.000,0,00:00:00,0,0.000,-0.914,91881.508,27.356,0.000,0.000,-0.108,9.781,-0.118,0.000,0.000,0.000,0.000,0.000
30.379,0,0,0.773,-5.079,-7.953,0.784,-5.276,-12.348,0.320,-2.709,-9.572,0.000,0.000,0.0116870,0.000,9144.000,0.017,1.024,19.543,2.572,918.284,28.222,821.988,0.019,9.948,-0.215,0.223,0.017,-0.094,-0.030,4189.000,-1237.000,-13928.000,0.082,-0.697,0.097,0.706,0.0000000,0.0000000,0.000,0.000,0.000,0.000,0,00:00:00,0,0.000,-0.914,91881.508,27.356,0.000,0.000,-0.108,9.781,-0.118,0.000,0.000,0.000,0.000,0.000
30.480,0,0,0.772,-5.085,-7.955,0.771,-5.268,-12.350,0.285,-2.592,-9.596,0.000,0.000,0.0116870,0.000,9144.000,0.017,0.885,19.802,2.593,918.288,28.220,821.957,-0.014,9.941,-0.165,0.194,-0.070,-0.051,0.043,4217.000,-1218.000,-13980.000,0.079,-0.697,0.095,0.706,0.0000000,0.0000000,0.000,0.000,0.000,0.000,0,00:00:00,0,0.000,0.000,91871.383,27.356,0.000,0.000,-0.137,9.761,-0.147,0.000,0.000,0.000,0.000,0.000
30.581,0,0,0.770,-5.089,-7.957,0.774,-5.261,-12.362,0.436,-2.604,-9.701,0.000,0.000,0.0116870,0.000,9144.000,0.017,0.851,20.062,2.604,918.288,28.227,821.959,-0.015,10.049,-0.180,0.266,-0.030,0.023,-0.064,4201.000,-1283.000,-13943.000,0.079,-0.695,0.092,0.709,0.0000000,0.0000000,0.000,0.000,0.000,0.000,0,00:00:00,0,0.000,0.000,91871.383,27.356,0.000,0.000,-0.137,9.761,-0.147,0.000,0.000,0.000,0.000,0.000
30.682,0,0,0.779,-5.086,-7.966,0.991,-5.120,-12.492,2.557,-1.283,-10.873,0.000,0.000,0.0116870,0.000,9144.000,0.017,1.248,20.312,2.497,918.288,28.227,821.959,-0.015,10.997,1.408,1.868,0.053,-0.023,-0.100,4212.000,-1243.000,-13987.000,0.096,-0.679,0.080,0.723,0.0000000,0.0000000,0.000,0.000,0.000,0.000,0,00:00:00,0,0.000,0.000,91871.383,27.344,0.000,0.000,-0.059,9.722,-0.108,-0.000,-0.000,0.000,0.000,0.000
30.783,0,0,0.799,-5.078,-7.983,1.061,-5.121,-12.565,1.111,-2.676,-10.317,0.000,0.000,0.0116870,0.000,9144.000,0.017,3.401,20.557,2.447,918.288,28.226,821.952,-0.024,10.702,0.007,0.546,0.058,-0.087,0.006,4216.000,-1264.000,-13946.000,0.093,-0.683,0.087,0.720,0.0000000,0.0000000,0.000,0.000,0.000,0.000,0,00:00:00,0,0.000,0.000,91871.383,27.344,0.000,0.000,-0.059,9.722,-0.108,-0.000,-0.000,0.000,0.000,0.000
30.884,0,0,0.821,-5.071,-7.997,1.048,-5.150,-12.581,0.298,-2.957,-9.808,0.000,0.000,0.0116870,0.000,9144.000,0.017,2.906,20.801,2.447,918.285,28.228,821.983,0.008,10.243,-0.352,0.043,0.043,0.011,-0.060,4207.000,-1302.000,-13997.000,0.087,-0.692,0.095,0.711,0.0000000,0.0000000,0.000,0.000,0.000,0.000,0,00:00:00,0,0.000,0.000,91871.383,27.344,0.000,0.000,-0.059,9.722,-0.108,-0.000,-0.000,0.000,0.000,0.000
30.985,0,0,0.839,-5.067,-8.009,1.026,-5.157,-12.557,0.223,-2.739,-9.430,0.000,0.000,0.0116870,0.000,9144.000,0.017,1.602,21.050,2.485,918.285,28.225,821.985,0.010,9.819,-0.215,0.115,0.023,-0.096,-0.034,4200.000,-1286.000,-13914.000,0.087,-0.696,0.097,0.706,0.0000000,0.0000000,0.000,0.000,0.000,0.000,0,00:00:00,0,0.000,0.000,91871.383,27.350,0.000,0.000,-0.314,10.006,-0.481,0.002,0.000,0.002,0.000,0.000
31.086,0,0,0.852,-5.064,-8.019,0.992,-5.176,-12.552,0.116,-2.847,-9.618,0.000,0.000,0.0116870,0.000,9144.000,0.017,0.862,21.300,2.504,918.286,28.219,821.974,-0.001,10.027,-0.273,0.057,0.000,0.032,0.002,4216.000,-1292.000,-13921.000,0.084,-0.698,0.099,0.704,0.0000000,0.0000000,0.000,0.000,0.000,0.000,0,00:00:00,0,0.000,0.000,91871.383,27.350,0.000,0.000,-0.314,10.006,-0.481,0.002,0.000,0.002,0.000,0.000
31.187,0,0,0.863,-5.063,-8.025,0.997,-5.200,-12.528,0.506,-2.905,-9.461,0.000,0.000,0.0116870,0.000,9144.000,0.017,0.687,21.554,2.539,918.284,28.221,821.996,0.017,9.898,-0.345,0.338,0.011,0.092,0.098,4201.000,-1283.000,-14002.000,0.080,-0.693,0.105,0.709,0.0000000,0.0000000,0.000,0.000,0.000,0.000,0,00:00:00,0,0.000,0.000,91871.383,27.350,0.000,0.000,-0.255,9.692,-0.294,0.001,0.000,-0.001,0.000,0.000
31.288,0,0,0.873,-5.064,-8.029,0.983,-5.195,-12.531,0.315,-2.613,-9.722,0.000,0.000,0.0116870,0.000,9144.000,0.017,1.583,21.809,2.548,918.284,28.225,821.992,0.015,10.070,-0.065,0.158,-0.064,0.036,0.151,4228.000,-1270.000,-13957.000,0.080,-0.694,0.101,0.708,0.0000000,0.0000000,0.000,0.000,0.000,0.000,0,00:00:00,0,0.000,0.000,91871.383,27.350,0.000,0.000,-0.255,9.692,-0.294,0.001,0.000,-0.001,0.000,0.000
31.389,0,0,0.881,-5.064,-8.036,0.984,-5.197,-12.533,0.479,-2.679,-9.701,0.000,0.000,0.0116870,0.000,9144.000,0.017,1.337,22.065,2.559,918.287,28.228,821.967,-0.012,10.070,-0.136,0.287,-0.009,0.009,0.077,4192.000,-1273.000,-13982.000,0.080,-0.693,0.099,0.709,0.0000000,0.0000000,0.000,0.000,0.000,0.000,0,00:00:00,0,0.000,0.914,91861.242,27.356,0.000,0.000,-0.294,9.712,-0.128,-0.001,0.000,-0.001,0.000,0.000
31.490,0,0,0.889,-5.064,-8.038,0.995,-5.193,-12.530,0.570,-2.623,-9.683,0.000,0.000,0.0116870,0.000,9144.000,0.017,1.510,22.322,2.571,918.283,28.237,821.999,0.021,10.042,-0.165,0.316,-0.083,0.089,0.113,4181.000,-1288.000,-13953.000,0.076,-0.691,0.098,0.712,0.0000000,0.0000000,0.000,0.000,0.000,0.000,0,00:00:00,0,0.000,0.914,91861.242,27.356,0.000,0.000,-0.294,9.712,-0.128,-0.001,0.000,-0.001,0.000,0.000
31.591,0,0,0.896,-5.064,-8.039,0.980,-5.190,-12.531,0.331,-2.638,-9.730,0.000,0.000,0.0116870,0.000,9144.000,0.017,1.905,22.580,2.579,918.284,28.221,821.996,0.021,10.085,-0.144,0.158,0.030,-0.002,0.092,4208.000,-1270.000,-13951.000,0.078,-0.694,0.098,0.709,0.0000000,0.0000000,0.000,0.000,0.000,0.000,0,00:00:00,0,0.000,0.914,91861.242,27.356,0.000,0.000,-0.157,9.781,-0.137,-0.001,0.000,-0.001,0.000,0.000
31.692,0,0,0.901,-5.063,-8.035,0.979,-5.182,-12.508,0.466,-2.584,-9.528,0.000,0.000,0.0116870,0.000,9144.000,0.017,1.398,22.841,2.608,918.280,28.220,822.029,0.055,9.876,-0.215,0.287,-0.079,-0.038,-0.021,4180.000,-1258.000,-13935.000,0.076,-0.694,0.094,0.710,0.0000000,0.0000000,0.000,0.000,0.000,0.000,0,00:00:00,0,0.000,0.914,91861.242,27.356,0.000,0.000,-0.157,9.781,-0.137,-0.001,0.000,-0.001,0.000,0.000
31.793,0,0,0.907,-5.061,-8.030,0.983,-5.161,-12.515,0.513,-2.448,-9.819,0.000,0.000,0.0116870,0.000,9144.000,0.017,1.417,23.102,2.607,918.280,28.222,822.027,0.056,10.128,-0.136,0.273,-0.117,0.040,-0.094,4227.000,-1274.000,-13867.000,0.075,-0.693,0.087,0.712,0.0000000,0.0000000,0.000,0.000,0.000,0.000,0,00:00:00,0,0.000,0.000,91871.383,27.350,0.000,0.000,-0.088,9.751,-0.284,0.000,0.000,0.000,0.000,0.000
31.894,0,0,0.911,-5.057,-8.025,0.983,-5.128,-12.520,0.478,-2.335,-9.812,0.000,0.000,0.0116870,0.000,9144.000,0.017,1.590,23.362,2.607,918.279,28.224,822.041,0.070,10.092,-0.165,0.266,-0.138,-0.019,0.064,4192.000,-1274.000,-13919.000,0.069,-0.694,0.084,0.711,0.0000000,0.0000000,0.000,0.000,0.000,0.000,0,00:00:00,0,0.000,0.000,91871.383,27.350,0.000,0.000,-0.088,9.751,-0.284,0.000,0.000,0.000,0.000,0.000
31.995,0,0,0.915,-5.051,-8.019,0.969,-5.101,-12.515,0.339,-2.386,-9.711,0.000,0.000,0.0116870,0.000,9144.000,0.017,1.488,23.624,2.617,918.278,28.225,822.048,0.076,9.999,-0.330,0.172,-0.092,0.047,0.030,4191.000,-1283.000,-13893.000,0.063,-0.696,0.084,0.711,0.0000000,0.0000000,0.000,0.000,0.000,0.000,0,00:00:00,0,0.000,-0.305,91881.508,27.356,0.000,0.000,-0.284,9.712,-0.118,-0.001,0.000,-0.001,0.000,0.000
32.096,0,0,0.917,-5.041,-8.016,0.955,-5.041,-12.521,0.350,-2.059,-9.795,0.000,0.000,0.0116870,0.000,9144.000,0.017,1.367,23.886,2.618,918.279,28.223,822.035,0.064,10.013,-0.043,0.215,-0.049,-0.119,-0.034,4194.000,-1248.000,-13897.000,0.066,-0.698,0.077,0.709,0.0000000,0.0000000,0.000,0.000,0.000,0.000,0,00:00:00,0,0.000,-0.305,91881.508,27.356,0.000,0.000,-0.284,9.712,-0.118,-0.001,0.000,-0.001,0.000,0.000
32.197,0,0,0.919,-5.027,-8.016,0.961,-5.003,-12.520,0.538,-2.267,-9.716,0.000,0.000,0.0116870,0.000,9144.000,0.017,0.954,24.148,2.627,918.281,28.235,822.017,0.046,9.984,-0.215,0.302,0.045,0.096,-0.013,4197.000,-1238.000,-13904.000,0.066,-0.694,0.080,0.713,0.0000000,0.0000000,0.000,0.000,0.000,0.000,0,00:00:00,0,0.000,-0.305,91881.508,27.356,0.000,0.000,-0.284,9.712,-0.118,-0.001,0.000,-0.001,0.000,0.000
32.298,0,0,0.920,-5.011,-8.013,0.955,-4.958,-12.519,0.430,-2.196,-9.734,0.000,0.000,0.0116870,0.000,9144.000,0.016,1.619,24.412,2.635,918.278,28.226,822.047,0.073,9.984,-0.079,0.251,0.064,-0.104,0.038,4196.000,-1267.000,-13998.000,0.069,-0.696,0.081,0.710,0.0000000,0.0000000,0.000,0.000,0.000,0.000,0,00:00:00,0,0.000,-0.305,91881.508,27.361,0.000,0.000,-0.216,9.820,-0.255,0.000,0.000,-0.000,0.000,0.000
32.399,0,0,0.921,-4.993,-8.012,0.952,-4.923,-12.525,0.450,-2.272,-9.790,0.000,0.000,0.0116870,0.000,9144.000,0.016,1.235,24.676,2.637,918.280,28.231,822.028,0.055,10.056,-0.115,0.251,0.023,0.019,0.083,4197.000,-1256.000,-13962.000,0.069,-0.695,0.083,0.711,0.0000000,0.0000000,0.000,0.000,0.000,0.000,0,00:00:00,0,0.000,-0.305,91881.508,27.361,0.000,0.000,-0.216,9.820,-0.255,0.000,0.000,-0.000,0.000,0.000
32.500,0,0,0.922,-4.974,-8.080,0.951,-4.906,-12.574,0.477,-2.447,-9.704,0.000,0.000,0.0116870,0.000,9144.000,0.016,1.390,24.940,2.648,918.334,28.236,821.544,-0.432,10.013,-0.237,0.251,0.068,0.064,-0.036,4223.000,-1284.000,-13987.000,0.071,-0.694,0.086,0.712,0.0000000,0.0000000,0.000,0.000,0.000,0.000,0,00:00:00,0,0.000,0.305,91871.383,27.350,0.000,0.000,-0.167,9.839,-0.196,-0.000,0.000,-0.000,0.000,0.000
32.601,0,0,0.922,-4.955,-8.197,0.944,-4.888,-12.649,0.417,-2.429,-9.637,0.000,0.000,0.0116870,0.000,9144.000,0.016,1.600,25.207,2.665,918.377,28.230,821.158,-0.823,9.941,-0.251,0.223,-0.013,-0.015,-0.098,4195.000,-1274.000,-13887.000,0.071,-0.695,0.085,0.711,0.0000000,0.0000000,0.000,0.000,0.000,0.000,0,00:00:00,0,0.000,0.305,91871.383,27.350,0.000,0.000,-0.167,9.839,-0.196,-0.000,0.000,-0.000,0.000,0.000
32.702,0,0,0.922,-4.936,-8.278,0.942,-4.860,-12.692,0.461,-2.325,-9.644,0.000,0.000,0.0116870,0.000,9144.000,0.016,1.398,25.475,2.682,918.355,28.232,821.356,-0.632,9.927,-0.172,0.244,-0.023,0.030,-0.053,4200.000,-1261.000,-13895.000,0.071,-0.694,0.083,0.711,0.0000000,0.0000000,0.000,0.000,0.000,0.000,0,00:00:00,0,0.000,-0.305,91881.508,27.350,0.000,0.000,-0.294,9.790,0.020,-0.000,-0.000,0.000,0.000,0.000
32.803,0,0,0.921,-4.917,-8.350,0.928,-4.842,-12.728,0.348,-2.403,-9.666,0.000,0.000,0.0116870,0.000,9144.000,0.016,1.488,25.745,2.696,918.354,28.230,821.365,-0.629,9.963,-0.180,0.208,0.066,-0.104,-0.013,4181.000,-1255.000,-14017.000,0.073,-0.697,0.086,0.708,0.0000000,0.0000000,0.000,0.000,0.000,0.000,0,00:00:00,0,0.000,-0.305,91881.508,27.350,0.000,0.000,-0.294,9.790,0.020,-0.000,-0.000,0.000,0.000,0.000
32.904,0,0,0.919,-4.898,-8.400,0.910,-4.832,-12.749,0.306,-2.480,-9.716,0.000,0.000,0.0116870,0.000,9144.000,0.016,1.046,26.015,2.706,918.340,28.236,821.489,-0.512,10.027,-0.237,0.187,0.004,-0.011,0.053,4202.000,-1247.000,-13928.000,0.071,-0.697,0.088,0.708,0.0000000,0.0000000,0.000,0.000,0.000,0.000,0,00:00:00,0,0.000,-1.219,91891.641,27.356,0.000,0.000,-0.069,9.830,-0.108,0.000,0.000,-0.000,0.000,0.000
33.005,0,0,0.915,-4.880,-8.432,0.893,-4.815,-12.751,0.316,-2.397,-9.668,0.000,0.000,0.0116870,0.000,9144.000,0.016,1.026,26.287,2.720,918.330,28.235,821.577,-0.430,9.963,-0.158,0.187,0.011,-0.013,-0.032,4174.000,-1241.000,-13931.000,0.073,-0.697,0.087,0.708,0.0000000,0.0000000,0.000,0.000,0.000,0.000,0,00:00:00,0,0.000,-1.219,91891.641,27.356,0.000,0.000,-0.069,9.830,-0.108,0.000,0.000,-0.000,0.000,0.000
33.106,0,0,0.911,-4.862,-8.406,0.892,-4.802,-12.708,0.461,-2.429,-9.670,0.000,0.000,0.0116870,0.000,9144.000,0.016,1.014,26.561,2.734,918.286,28.236,821.976,-0.037,9.977,-0.129,0.237,0.055,0.147,0.096,4229.000,-1250.000,-13906.000,0.074,-0.693,0.090,0.711,0.0000000,0.0000000,0.000,0.000,0.000,0.000,0,00:00:00,0,0.000,-0.305,91881.508,27.361,0.000,0.000,-0.147,9.810,-0.226,0.000,0.000,0.000,0.000,0.000
33.207,0,0,0.906,-4.844,-8.360,0.882,-4.790,-12.667,0.385,-2.429,-9.792,0.000,0.000,0.0116870,0.000,9144.000,0.016,1.612,26.834,2.736,918.270,28.232,822.115,0.100,10.092,-0.208,0.187,-0.102,0.030,-0.049,4196.000,-1260.000,-13973.000,0.071,-0.695,0.086,0.711,0.0000000,0.0000000,0.000,0.000,0.000,0.000,0,00:00:00,0,0.000,-0.305,91881.508,27.361,0.000,0.000,-0.147,9.810,-0.226,0.000,0.000,0.000,0.000,0.000
33.308,0,0,0.902,-4.828,-8.324,0.877,-4.787,-12.624,0.420,-2.510,-9.675,0.000,0.000,0.0116870,0.000,9144.000,0.016,1.416,27.109,2.749,918.275,28.237,822.071,0.050,9.999,-0.208,0.244,0.104,-0.040,-0.038,4219.000,-1282.000,-13886.000,0.075,-0.695,0.089,0.710,0.0000000,0.0000000,0.000,0.000,0.000,0.000,0,00:00:00,0,0.000,0.305,91871.383,27.350,0.000,0.000,-0.118,9.761,-0.206,0.000,0.000,0.000,0.000,0.000
33.409,0,0,0.897,-4.813,-8.296,0.870,-4.788,-12.584,0.400,-2.535,-9.609,0.000,0.000,0.0116870,0.000,9144.000,0.016,1.296,27.386,2.769,918.280,28.244,822.026,-0.000,9.941,-0.208,0.230,0.036,0.032,0.134,4219.000,-1247.000,-13921.000,0.073,-0.695,0.093,0.710,0.0000000,0.0000000,0.000,0.000,0.000,0.000,0,00:00:00,0,0.000,0.305,91871.383,27.350,0.000,0.000,-0.118,9.761,-0.206,0.000,0.000,0.000,0.000,0.000
33.510,0,0,0.892,-4.800,-8.265,0.851,-4.792,-12.554,0.287,-2.572,-9.698,0.000,0.000,0.0116870,0.000,9144.000,0.016,1.404,27.664,2.780,918.282,28.245,822.009,0.028,10.034,-0.187,0.158,0.040,-0.030,-0.034,4182.000,-1282.000,-13927.000,0.077,-0.696,0.093,0.708,0.0000000,0.0000000,0.000,0.000,0.000,0.000,0,00:00:00,0,0.000,0.305,91871.383,27.350,0.000,0.000,-0.118,9.761,-0.206,0.000,0.000,0.000,0.000,0.000
33.611,0,0,0.886,-4.788,-8.223,0.849,-4.791,-12.520,0.443,-2.504,-9.712,0.000,0.000,0.0116870,0.000,9144.000,0.016,1.071,27.943,2.790,918.282,28.239,822.013,0.116,10.034,-0.180,0.244,-0.064,0.079,-0.002,4211.000,-1290.000,-13926.000,0.075,-0.694,0.090,0.710,0.0000000,0.0000000,0.000,0.000,0.000,0.000,0,00:00:00,0,0.000,-0.305,91881.508,27.356,0.000,0.000,-0.039,9.761,-0.186,0.001,0.000,0.001,0.000,0.000
33.712,0,0,0.880,-4.777,-8.176,0.841,-4.791,-12.481,0.381,-2.511,-9.690,0.000,0.000,0.0116870,0.000,9144.000,0.016,1.454,28.223,2.802,918.283,28.242,822.004,0.174,10.013,-0.194,0.208,0.000,-0.013,-0.023,4238.000,-1278.000,-13947.000,0.075,-0.695,0.090,0.709,0.0000000,0.0000000,0.000,0.000,0.000,0.000,0,00:00:00,0,0.000,-0.305,91881.508,27.356,0.000,0.000,-0.039,9.761,-0.186,0.001,0.000,0.001,0.000,0.000
33.813,0,0,0.874,-4.767,-8.117,0.831,-4.785,-12.439,0.363,-2.453,-9.705,0.000,0.000,0.0116870,0.000,9144.000,0.016,1.286,28.505,2.813,918.278,28.238,822.047,0.283,10.013,-0.165,0.201,-0.032,0.006,0.043,4185.000,-1269.000,-13933.000,0.074,-0.696,0.089,0.709,0.0000000,0.0000000,0.000,0.000,0.000,0.000,0,00:00:00,0,0.000,0.305,91871.383,27.350,0.000,0.000,-0.137,9.751,-0.098,0.000,0.000,0.000,0.000,0.000
33.914,0,0,0.868,-4.757,-8.039,0.828,-4.780,-12.381,0.432,-2.447,-9.660,0.000,0.000,0.0116870,0.000,9144.000,0.016,1.235,28.787,2.828,918.266,28.231,822.156,0.447,9.970,-0.172,0.259,-0.002,-0.040,-0.066,4196.000,-1286.000,-13990.000,0.075,-0.695,0.087,0.709,0.0000000,0.0000000,0.000,0.000,0.000,0.000,0,00:00:00,0,0.000,0.305,91871.383,27.350,0.000,0.000,-0.137,9.751,-0.098,0.000,0.000,0.000,0.000,0.000
34.015,0,0,0.861,-4.748,-7.959,0.810,-4.781,-12.322,0.267,-2.507,-9.627,0.000,0.000,0.0116870,0.000,9144.000,0.016,1.244,29.072,2.846,918.265,28.227,822.167,0.506,9.948,-0.194,0.144,0.049,-0.038,-0.083,4208.000,-1260.000,-13901.000,0.078,-0.697,0.088,0.707,0.0000000,0.0000000,0.000,0.000,0.000,0.000,0,00:00:00,0,0.000,0.000,91871.383,27.350,0.000,0.000,-0.157,9.820,-0.137,-0.000,-0.000,0.001,0.000,0.000
34.116,0,0,0.854,-4.739,-7.887,0.796,-4.767,-12.286,0.314,-2.351,-9.752,0.000,0.000,0.0116870,0.000,9144.000,0.016,0.927,29.357,2.852,918.266,28.227,822.151,0.495,10.034,-0.057,0.165,-0.047,0.053,0.119,4179.000,-1259.000,-13883.000,0.075,-0.696,0.087,0.708,0.0000000,0.0000000,0.000,0.000,0.000,0.000,0,00:00:00,0,0.000,0.000,91871.383,27.350,0.000,0.000,-0.157,9.820,-0.137,-0.000,-0.000,0.001,0.000,0.000
34.217,0,0,0.846,-4.731,-7.820,0.783,-4.769,-12.249,0.312,-2.507,-9.671,0.000,0.000,0.0116870,0.000,9144.000,0.016,1.085,29.644,2.866,918.263,28.235,822.177,0.511,9.991,-0.187,0.201,0.040,-0.077,-0.015,4221.000,-1223.000,-13974.000,0.076,-0.697,0.089,0.707,0.0000000,0.0000000,0.000,0.000,0.000,0.000,0,00:00:00,0,0.000,0.914,91861.242,27.350,0.000,0.000,-0.108,9.790,-0.137,0.000,0.000,-0.000,0.000,0.000
34.318,0,0,0.838,-4.724,-7.759,0.774,-4.785,-12.216,0.358,-2.648,-9.633,0.000,0.000,0.0116870,0.000,9144.000,0.016,0.901,29.932,2.884,918.264,28.234,822.170,0.502,9.991,-0.259,0.215,0.072,0.038,0.002,4217.000,-1257.000,-13880.000,0.077,-0.696,0.094,0.708,0.0000000,0.0000000,0.000,0.000,0.000,0.000,0,00:00:00,0,0.000,0.914,91861.242,27.350,0.000,0.000,-0.108,9.790,-0.137,0.000,0.000,-0.000,0.000,0.000
34.419,0,0,0.830,-4.718,-7.706,0.773,-4.785,-12.195,0.421,-2.475,-9.682,0.000,0.000,0.0116870,0.000,9144.000,0.016,1.181,30.222,2.896,918.265,28.227,822.160,0.492,9.999,-0.144,0.251,-0.064,-0.030,-0.058,4229.000,-1276.000,-13946.000,0.077,-0.695,0.089,0.709,0.0000000,0.0000000,0.000,0.000,0.000,0.000,0,00:00:00,0,0.000,-0.305,91881.508,27.350,0.000,0.000,-0.059,9.849,-0.118,0.000,-0.000,0.000,0.000,0.000
34.520,0,0,0.823,-4.713,-7.664,0.775,-4.784,-12.183,0.455,-2.474,-9.667,0.000,0.000,0.0116870,0.000,9144.000,0.016,1.222,30.513,2.911,918.265,28.238,822.167,0.453,9.984,-0.151,0.251,-0.006,0.043,0.034,4194.000,-1230.000,-13853.000,0.076,-0.694,0.090,0.710,0.0000000,0.0000000,0.000,0.000,0.000,0.000,0,00:00:00,0,0.000,-0.305,91881.508,27.350,0.000,0.000,-0.059,9.849,-0.118,0.000,-0.000,0.000,0.000,0.000
34.621,0,0,0.816,-4.709,-7.630,0.761,-4.796,-12.174,0.294,-2.594,-9.634,0.000,0.000,0.0116870,0.000,9144.000,0.016,1.454,30.806,2.928,918.257,28.232,822.235,0.435,9.977,-0.223,0.187,0.051,-0.081,0.124,4220.000,-1269.000,-13910.000,0.075,-0.697,0.094,0.707,0.0000000,0.0000000,0.000,0.000,0.000,0.000,0,00:00:00,0,0.000,-0.305,91881.508,27.350,0.000,0.000,-0.059,9.849,-0.118,0.000,-0.000,0.000,0.000,0.000
34.722,0,0,0.809,-4.707,-7.604,0.752,-4.813,-12.173,0.334,-2.639,-9.646,0.000,0.000,0.0116870,0.000,9144.000,0.016,1.034,31.100,2.945,918.254,28.243,822.266,0.402,9.999,-0.309,0.230,-0.047,-0.055,-0.060,4215.000,-1268.000,-13952.000,0.073,-0.697,0.093,0.707,0.0000000,0.0000000,0.000,0.000,0.000,0.000,0,00:00:00,0,0.000,-0.305,91881.508,27.350,0.000,0.000,-0.186,9.741,-0.078,0.000,-0.001,-0.000,0.000,0.000
34.823,0,0,0.801,-4.706,-7.564,0.751,-4.822,-12.163,0.406,-2.571,-9.652,0.000,0.000,0.0116870,0.000,9144.000,0.016,1.014,31.396,2.961,918.232,28.231,822.459,0.527,9.991,-0.223,0.244,0.017,0.040,0.000,4188.000,-1269.000,-14003.000,0.074,-0.695,0.093,0.709,0.0000000,0.0000000,0.000,0.000,0.000,0.000,0,00:00:00,0,0.000,-0.305,91881.508,27.350,0.000,0.000,-0.186,9.741,-0.078,0.000,-0.001,-0.000,0.000,0.000
34.924,0,0,0.794,-4.707,-7.511,0.732,-4.845,-12.146,0.238,-2.698,-9.681,0.000,0.000,0.0116870,0.000,9144.000,0.016,1.324,31.693,2.973,918.211,28.239,822.653,0.654,10.049,-0.237,0.165,0.104,-0.117,-0.004,4188.000,-1214.000,-14009.000,0.079,-0.698,0.096,0.706,0.0000000,0.0000000,0.000,0.000,0.000,0.000,0,00:00:00,0,0.000,1.524,91861.242,27.350,0.000,0.000,-0.177,9.761,-0.177,0.000,0.000,0.000,0.000,0.000
35.025,0,0,0.786,-4.709,-7.484,0.726,-4.861,-12.146,0.350,-2.637,-9.634,0.000,0.000,0.0116870,0.000,9144.000,0.017,0.804,31.993,2.991,918.220,28.236,822.568,0.509,9.991,-0.144,0.215,0.045,0.015,-0.038,4207.000,-1260.000,-13920.000,0.082,-0.696,0.096,0.707,0.0000000,0.0000000,0.000,0.000,0.000,0.000,0,00:00:00,0,0.000,1.524,91861.242,27.350,0.000,0.000,-0.177,9.761,-0.177,0.000,0.000,0.000,0.000,0.000
35.126,0,0,0.779,-4.713,-7.500,0.718,-4.871,-12.179,0.329,-2.583,-9.643,0.000,0.000,0.0116870,0.000,9144.000,0.017,1.065,32.293,3.008,918.249,28.242,822.308,0.232,9.984,-0.230,0.187,-0.143,0.058,0.096,4230.000,-1275.000,-14014.000,0.074,-0.696,0.094,0.708,0.0000000,0.0000000,0.000,0.000,0.000,0.000,0,00:00:00,0,0.000,0.610,91861.242,27.356,0.000,0.000,-0.029,9.761,-0.147,0.000,0.001,0.001,0.000,0.000
35.227,0,0,0.772,-4.716,-7.512,0.728,-4.875,-12.209,0.502,-2.516,-9.676,0.000,0.000,0.0116870,0.000,9144.000,0.017,1.224,32.595,3.021,918.245,28.244,822.346,0.264,10.006,-0.108,0.294,0.040,0.058,0.181,4207.000,-1237.000,-13944.000,0.075,-0.693,0.096,0.711,0.0000000,0.0000000,0.000,0.000,0.000,0.000,0,00:00:00,0,0.000,0.610,91861.242,27.356,0.000,0.000,-0.029,9.761,-0.147,0.000,0.001,0.001,0.000,0.000
35.328,0,0,0.766,-4.720,-7.559,0.729,-4.888,-12.259,0.418,-2.611,-9.632,0.000,0.000,0.0116870,0.000,9144.000,0.017,1.624,32.899,3.039,918.271,28.235,822.112,0.020,9.984,-0.165,0.237,0.049,-0.036,-0.023,4197.000,-1271.000,-13981.000,0.079,-0.694,0.095,0.709,0.0000000,0.0000000,0.000,0.000,0.000,0.000,0,00:00:00,0,0.000,-0.305,91881.508,27.350,0.000,0.000,-0.118,9.761,-0.118,-0.000,0.000,0.000,0.000,0.000
35.429,0,0,0.761,-4.725,-7.616,0.735,-4.901,-12.313,0.460,-2.610,-9.639,0.000,0.000,0.0116870,0.000,9144.000,0.017,1.392,33.205,3.056,918.279,28.239,822.037,-0.068,9.991,-0.201,0.251,-0.043,0.079,0.113,4159.000,-1299.000,-14001.000,0.075,-0.693,0.096,0.711,0.0000000,0.0000000,0.000,0.000,0.000,0.000,0,00:00:00,0,0.000,-0.305,91881.508,27.350,0.000,0.000,-0.118,9.761,-0.118,-0.000,0.000,0.000,0.000,0.000
35.530,0,0,0.757,-4.731,-7.671,0.734,-4.917,-12.354,0.392,-2.653,-9.555,0.000,0.000,0.0116870,0.000,9144.000,0.017,1.639,33.513,3.081,918.279,28.235,822.041,-0.080,9.920,-0.208,0.215,0.058,-0.002,0.013,4224.000,-1271.000,-13998.000,0.078,-0.694,0.097,0.709,0.0000000,0.0000000,0.000,0.000,0.000,0.000,0,00:00:00,0,0.000,0.000,91871.383,27.356,0.000,0.000,-0.108,9.849,-0.167,0.000,-0.000,0.000,0.000,0.000
35.631,0,0,0.753,-4.738,-7.736,0.731,-4.943,-12.397,0.358,-2.745,-9.539,0.000,0.000,0.0116870,0.000,9144.000,0.017,1.440,33.824,3.109,918.287,28.241,821.964,-0.179,9.927,-0.259,0.215,0.049,-0.079,-0.181,4234.000,-1299.000,-13975.000,0.083,-0.695,0.096,0.708,0.0000000,0.0000000,0.000,0.000,0.000,0.000,0,00:00:00,0,0.000,0.000,91871.383,27.356,0.000,0.000,-0.108,9.849,-0.167,0.000,-0.000,0.000,0.000,0.000
35.732,0,0,0.749,-4.746,-7.794,0.728,-4.954,-12.438,0.371,-2.607,-9.596,0.000,0.000,0.0116870,0.000,9144.000,0.017,1.118,34.137,3.130,918.283,28.248,821.999,-0.170,9.948,-0.136,0.180,-0.026,0.117,0.047,4219.000,-1254.000,-13939.000,0.081,-0.694,0.096,0.709,0.0000000,0.0000000,0.000,0.000,0.000,0.000,0,00:00:00,0,0.000,-0.610,91881.508,27.344,0.000,0.000,-0.128,9.830,-0.206,-0.001,0.000,-0.001,0.000,0.000
35.833,0,0,0.745,-4.755,-7.849,0.732,-4.976,-12.464,0.424,-2.715,-9.500,0.000,0.000,0.0116870,0.000,9144.000,0.017,1.410,34.453,3.161,918.280,28.247,822.031,-0.179,9.884,-0.230,0.237,0.036,-0.004,-0.089,4216.000,-1289.000,-13961.000,0.083,-0.694,0.096,0.709,0.0000000,0.0000000,0.000,0.000,0.000,0.000,0,00:00:00,0,0.000,-0.610,91881.508,27.344,0.000,0.000,-0.128,9.830,-0.206,-0.001,0.000,-0.001,0.000,0.000
35.934,0,0,0.744,-4.765,-7.912,0.767,-4.984,-12.514,0.740,-2.588,-9.714,0.000,0.000,0.0116870,0.000,9144.000,0.017,1.381,34.770,3.171,918.284,28.251,821.988,-0.273,10.070,-0.029,0.431,0.021,0.006,-0.036,4195.000,-1323.000,-13906.000,0.086,-0.690,0.095,0.713,0.0000000,0.0000000,0.000,0.000,0.000,0.000,0,00:00:00,0,0.000,-0.610,91881.508,27.344,0.000,0.000,-0.128,9.830,-0.206,-0.001,0.000,-0.001,0.000,0.000
36.035,0,0,0.752,-4.771,-7.987,0.937,-4.936,-12.772,2.082,-2.036,-11.789,0.000,0.000,0.0116870,0.000,9144.000,0.017,1.935,35.067,2.973,918.286,28.245,821.977,-0.324,11.967,1.156,1.710,0.081,-0.004,0.038,4205.000,-1291.000,-13918.000,0.088,-0.690,0.099,0.712,0.0000000,0.0000000,0.000,0.000,0.000,0.000,0,00:00:00,0,0.000,-0.305,91881.508,27.350,0.000,0.000,-0.020,9.947,-0.186,-0.001,0.000,-0.001,0.000,0.000
36.136,0,0,0.758,-4.778,-8.056,0.738,-4.989,-12.734,-1.568,-3.032,-8.993,0.000,0.000,0.0116870,0.000,9144.000,0.017,1.915,35.373,3.054,918.280,28.246,822.032,-0.284,9.539,-0.611,-1.077,-0.009,-0.089,-0.130,4207.000,-1269.000,-13949.000,0.084,-0.718,0.102,0.684,0.0000000,0.0000000,0.000,0.000,0.000,0.000,0,00:00:00,0,0.000,-0.305,91881.508,27.350,0.000,0.000,-0.020,9.947,-0.186,-0.001,0.000,-0.001,0.000,0.000
36.237,0,0,0.753,-4.790,-8.118,0.698,-5.076,-12.756,-0.006,-3.380,-9.648,0.000,0.000,0.0116870,0.000,9144.000,0.017,-2.516,35.680,3.071,918.280,28.248,822.030,-0.303,10.192,-0.754,0.237,-0.015,0.081,0.030,4189.000,-1257.000,-13967.000,0.074,-0.705,0.111,0.696,0.0000000,0.0000000,0.000,0.000,0.000,0.000,0,00:00:00,0,0.000,-0.914,91881.508,27.350,0.000,0.000,-0.334,10.222,-0.961,0.008,0.003,0.006,0.000,0.000
36.338,0,0,0.744,-4.806,-8.175,0.657,-5.103,-12.762,-0.016,-2.802,-9.528,0.000,0.000,0.0116870,0.000,9144.000,0.017,-0.363,35.990,3.099,918.282,28.248,822.007,-0.321,9.927,-0.309,0.079,-0.077,0.062,0.077,4206.000,-1271.000,-13932.000,0.073,-0.702,0.106,0.700,0.0000000,0.0000000,0.000,0.000,0.000,0.000,0,00:00:00,0,0.000,-0.914,91881.508,27.350,0.000,0.000,-0.334,10.222,-0.961,0.008,0.003,0.006,0.000,0.000
36.439,0,0,0.735,-4.824,-8.225,0.659,-5.142,-12.794,0.412,-2.921,-9.846,0.000,0.000,0.0116870,0.000,9144.000,0.017,0.210,36.299,3.095,918.283,28.249,821.998,-0.317,10.264,-0.395,0.359,-0.075,0.032,0.190,4225.000,-1206.000,-13869.000,0.068,-0.696,0.106,0.706,0.0000000,0.0000000,0.000,0.000,0.000,0.000,0,00:00:00,0,0.000,0.000,91871.383,27.350,0.000,0.000,-0.883,9.839,-0.334,0.003,0.002,-0.001,0.000,0.000
36.540,0,0,0.728,-4.843,-8.268,0.696,-5.176,-12.785,0.748,-2.885,-9.513,0.000,0.000,0.0116870,0.000,9144.000,0.018,1.186,36.612,3.125,918.283,28.250,821.997,-0.306,9.948,-0.352,0.546,0.075,-0.089,-0.062,4177.000,-1223.000,-13915.000,0.075,-0.691,0.106,0.711,0.0000000,0.0000000,0.000,0.000,0.000,0.000,0,00:00:00,0,0.000,0.000,91871.383,27.350,0.000,0.000,-0.883,9.839,-0.334,0.003,0.002,-0.001,0.000,0.000
36.641,0,0,0.723,-4.863,-8.301,0.694,-5.188,-12.806,0.353,-2.677,-9.890,0.000,0.000,0.0116870,0.000,9144.000,0.018,1.917,36.923,3.117,918.283,28.250,822.004,-0.271,10.250,-0.050,0.180,0.026,-0.038,-0.002,4185.000,-1255.000,-14006.000,0.082,-0.694,0.100,0.708,0.0000000,0.0000000,0.000,0.000,0.000,0.000,0,00:00:00,0,0.000,0.305,91871.383,27.356,0.000,0.000,-0.196,9.575,0.088,-0.002,0.000,-0.001,0.000,0.000
36.742,0,0,0.717,-4.882,-8.324,0.668,-5.195,-12.782,0.126,-2.632,-9.519,0.000,0.000,0.0116870,0.000,9144.000,0.018,1.354,37.238,3.146,918.281,28.236,822.016,-0.233,9.876,-0.122,0.022,-0.013,0.030,-0.100,4215.000,-1277.000,-14000.000,0.086,-0.697,0.096,0.706,0.0000000,0.0000000,0.000,0.000,0.000,0.000,0,00:00:00,0,0.000,0.305,91871.383,27.356,0.000,0.000,-0.196,9.575,0.088,-0.002,0.000,-0.001,0.000,0.000
36.843,0,0,0.711,-4.900,-8.336,0.666,-5.229,-12.761,0.349,-2.916,-9.613,0.000,0.000,0.0116870,0.000,9144.000,0.018,0.824,37.555,3.166,918.281,28.248,822.015,-0.191,10.042,-0.388,0.237,-0.023,0.040,0.107,4235.000,-1294.000,-13944.000,0.078,-0.695,0.102,0.707,0.0000000,0.0000000,0.000,0.000,0.000,0.000,0,00:00:00,0,0.000,-0.305,91881.508,27.356,0.000,0.000,-0.157,9.653,0.059,-0.002,0.000,-0.002,0.000,0.000
36.944,0,0,0.705,-4.920,-8.341,0.664,-5.259,-12.717,0.356,-2.886,-9.415,0.000,0.000,0.0116870,0.000,9144.000,0.018,1.202,37.875,3.205,918.286,28.240,821.972,-0.167,9.848,-0.244,0.230,0.168,-0.028,-0.055,4183.000,-1314.000,-13978.000,0.086,-0.694,0.105,0.707,0.0000000,0.0000000,0.000,0.000,0.000,0.000,0,00:00:00,0,0.000,-0.305,91881.508,27.356,0.000,0.000,-0.157,9.653,0.059,-0.002,0.000,-0.002,0.000,0.000
37.045,0,0,0.699,-4.942,-8.332,0.653,-5.302,-12.667,0.253,-3.026,-9.427,0.000,0.000,0.0116870,0.000,9144.000,0.018,1.204,38.199,3.243,918.286,28.255,821.977,-0.103,9.898,-0.294,0.187,0.083,-0.085,0.002,4197.000,-1273.000,-13986.000,0.088,-0.696,0.109,0.704,0.0000000,0.0000000,0.000,0.000,0.000,0.000,0,00:00:00,0,0.000,-0.305,91881.508,27.356,0.000,0.000,-0.157,9.653,0.059,-0.002,0.000,-0.002,0.000,0.000
37.146,0,0,0.694,-4.964,-8.317,0.667,-5.322,-12.624,0.509,-2.809,-9.505,0.000,0.000,0.0116870,0.000,9144.000,0.018,0.904,38.527,3.274,918.286,28.248,821.974,-0.079,9.920,-0.065,0.309,-0.002,0.036,-0.053,4206.000,-1286.000,-13951.000,0.092,-0.692,0.105,0.708,0.0000000,0.0000000,0.000,0.000,0.000,0.000,0,00:00:00,0,0.000,0.000,91871.383,27.361,0.000,0.000,0.000,0.000,0.000,0.000,-0.001,-0.001,0.000,0.000
37.324,0,0,0.738,-5.382,-9.204,0.670,-5.510,-12.988,0.239,-2.661,-8.313,0.000,0.000,0.0116870,0.000,9144.000,0.019,1.447,38.869,3.424,918.286,28.247,821.975,-0.046,8.727,-0.273,0.115,-0.017,0.021,-0.053,4202.000,-1244.000,-13871.000,0.090,-0.694,0.106,0.707,0.0000000,0.0000000,0.000,0.000,0.000,0.000,0,00:00:00,0,0.000,0.305,91871.383,27.361,0.000,0.000,-0.108,9.810,0.088,-0.002,0.000,0.000,0.000,0.000
37.425,0,0,0.722,-5.341,-8.933,0.616,-5.523,-12.729,-0.123,-3.167,-9.546,0.000,0.000,0.0116870,0.000,9144.000,0.019,1.201,39.214,3.450,918.284,28.241,821.996,-0.014,10.049,-0.431,-0.101,0.002,0.072,0.075,4200.000,-1253.000,-13942.000,0.085,-0.699,0.111,0.702,0.0000000,0.0000000,0.000,0.000,0.000,0.000,0,00:00:00,0,0.000,0.305,91871.383,27.361,0.000,0.000,-0.108,9.810,0.088,-0.002,0.000,0.000,0.000,0.000
37.526,0,0,0.704,-5.310,-8.707,0.580,-5.532,-12.525,0.043,-3.093,-9.609,0.000,0.000,0.0116870,0.000,9144.000,0.019,0.522,39.561,3.470,918.286,28.248,821.974,-0.033,10.092,-0.237,0.072,0.098,-0.064,-0.077,4215.000,-1244.000,-13918.000,0.092,-0.699,0.110,0.700,0.0000000,0.0000000,0.000,0.000,0.000,0.000,0,00:00:00,0,0.000,-0.914,91881.508,27.356,0.000,0.000,-0.206,9.820,-0.275,0.000,-0.000,0.000,0.000,0.000
37.627,0,0,0.686,-5.286,-8.511,0.554,-5.549,-12.348,0.120,-3.144,-9.512,0.000,0.000,0.0116870,0.000,9144.000,0.019,0.290,39.911,3.500,918.285,28.255,821.985,-0.018,10.013,-0.316,0.158,-0.009,-0.104,-0.011,4205.000,-1247.000,-13905.000,0.091,-0.699,0.111,0.700,0.0000000,0.0000000,0.000,0.000,0.000,0.000,0,00:00:00,0,0.000,-0.914,91881.508,27.356,0.000,0.000,-0.206,9.820,-0.275,0.000,-0.000,0.000,0.000,0.000
37.728,0,0,0.668,-5.269,-8.347,0.551,-5.558,-12.207,0.346,-3.050,-9.521,0.000,0.000,0.0116870,0.000,9144.000,0.019,0.297,40.264,3.529,918.286,28.243,821.970,-0.036,9.999,-0.180,0.244,0.040,0.051,-0.038,4182.000,-1272.000,-13920.000,0.094,-0.695,0.111,0.705,0.0000000,0.0000000,0.000,0.000,0.000,0.000,0,00:00:00,0,0.000,0.305,91871.383,27.350,0.000,0.000,-0.010,9.673,-0.137,0.000,0.000,0.001,0.000,0.000
37.829,0,0,0.653,-5.257,-8.204,0.548,-5.558,-12.095,0.334,-2.932,-9.548,0.000,0.000,0.0116870,0.000,9144.000,0.019,0.998,40.620,3.555,918.285,28.244,821.986,-0.022,9.991,-0.115,0.194,-0.053,0.006,-0.066,4217.000,-1285.000,-13962.000,0.095,-0.694,0.106,0.706,0.0000000,0.0000000,0.000,0.000,0.000,0.000,0,00:00:00,0,0.000,0.305,91871.383,27.350,0.000,0.000,-0.010,9.673,-0.137,0.000,0.000,0.001,0.000,0.000
37.930,0,0,0.639,-5.248,-8.086,0.555,-5.568,-12.003,0.425,-3.019,-9.484,0.000,0.000,0.0116870,0.000,9144.000,0.019,1.070,40.978,3.588,918.287,28.256,821.960,-0.046,9.955,-0.230,0.259,-0.017,0.028,0.023,4174.000,-1262.000,-13996.000,0.092,-0.693,0.108,0.707,0.0000000,0.0000000,0.000,0.000,0.000,0.000,0,00:00:00,0,0.000,0.305,91871.383,27.361,0.000,0.000,-0.206,9.702,-0.206,0.000,-0.000,0.000,0.000,0.000
38.031,0,0,0.627,-5.244,-7.979,0.553,-5.578,-11.928,0.332,-3.004,-9.482,0.000,0.000,0.0116870,0.000,9144.000,0.019,1.358,41.340,3.620,918.284,28.254,821.994,-0.011,9.948,-0.208,0.201,0.009,-0.019,0.053,4182.000,-1253.000,-13948.000,0.091,-0.694,0.109,0.706,0.0000000,0.0000000,0.000,0.000,0.000,0.000,0,00:00:00,0,0.000,0.305,91871.383,27.361,0.000,0.000,-0.206,9.702,-0.206,0.000,-0.000,0.000,0.000,0.000
38.132,0,0,0.616,-5.242,-7.892,0.552,-5.584,-11.878,0.327,-2.949,-9.521,0.000,0.000,0.0116870,0.000,9144.000,0.019,1.203,41.705,3.649,918.287,28.249,821.966,-0.039,9.970,-0.172,0.187,-0.026,0.000,-0.072,4182.000,-1284.000,-13958.000,0.093,-0.694,0.106,0.706,0.0000000,0.0000000,0.000,0.000,0.000,0.000,0,00:00:00,0,0.000,0.305,91871.383,27.361,0.000,0.000,-0.206,9.702,-0.206,0.000,-0.000,0.000,0.000,0.000
38.233,0,0,0.607,-5.242,-7.816,0.556,-5.580,-11.845,0.372,-2.854,-9.571,0.000,0.000,0.0116870,0.000,9144.000,0.019,1.137,42.073,3.673,918.285,28.257,821.984,-0.015,9.991,-0.136,0.201,-0.070,0.062,0.047,4187.000,-1257.000,-13966.000,0.090,-0.693,0.104,0.708,0.0000000,0.0000000,0.000,0.000,0.000,0.000,0,00:00:00,0,0.000,0.305,91871.383,27.356,0.000,0.000,-0.078,9.790,-0.128,-0.000,0.000,0.000,0.000,0.000
38.334,0,0,0.599,-5.244,-7.755,0.548,-5.589,-11.824,0.258,-2.969,-9.532,0.000,0.000,0.0116870,0.000,9144.000,0.019,1.318,42.443,3.701,918.287,28.256,821.967,-0.026,9.984,-0.187,0.151,0.072,-0.045,0.004,4190.000,-1271.000,-13997.000,0.092,-0.695,0.107,0.705,0.0000000,0.0000000,0.000,0.000,0.000,0.000,0,00:00:00,0,0.000,0.305,91871.383,27.356,0.000,0.000,-0.078,9.790,-0.128,-0.000,0.000,0.000,0.000,0.000
38.435,0,0,0.591,-5.248,-7.704,0.550,-5.600,-11.815,0.336,-2.977,-9.557,0.000,0.000,0.0116870,0.000,9144.000,0.019,0.967,42.815,3.726,918.286,28.246,821.976,-0.017,10.013,-0.172,0.165,0.017,0.117,-0.053,4185.000,-1260.000,-14008.000,0.094,-0.693,0.107,0.707,0.0000000,0.0000000,0.000,0.000,0.000,0.000,0,00:00:00,0,0.000,-0.914,91881.508,27.361,0.000,0.000,-0.147,9.800,-0.137,0.001,0.000,0.001,0.000,0.000
38.536,0,0,0.584,-5.254,-7.661,0.559,-5.622,-11.805,0.414,-3.086,-9.470,0.000,0.000,0.0116870,0.000,9144.000,0.020,1.293,43.191,3.760,918.284,28.250,821.989,-0.001,9.963,-0.223,0.273,0.075,-0.070,0.034,4195.000,-1256.000,-13969.000,0.095,-0.693,0.111,0.706,0.0000000,0.0000000,0.000,0.000,0.000,0.000,0,00:00:00,0,0.000,-0.914,91881.508,27.361,0.000,0.000,-0.147,9.800,-0.137,0.001,0.000,0.001,0.000,0.000
38.637,0,0,0.579,-5.262,-7.624,0.558,-5.645,-11.813,0.300,-3.093,-9.575,0.000,0.000,0.0116870,0.000,9144.000,0.020,1.233,43.570,3.784,918.282,28.249,822.006,0.017,10.063,-0.180,0.187,0.023,-0.066,-0.075,4195.000,-1274.000,-13937.000,0.097,-0.694,0.110,0.704,0.0000000,0.0000000,0.000,0.000,0.000,0.000,0,00:00:00,0,0.000,0.914,91861.242,27.350,0.000,0.000,-0.069,9.761,-0.196,0.000,-0.000,0.000,0.000,0.000
38.738,0,0,0.574,-5.273,-7.596,0.558,-5.667,-11.811,0.313,-3.081,-9.413,0.000,0.000,0.0116870,0.000,9144.000,0.020,0.960,43.952,3.823,918.283,28.247,822.000,0.014,9.905,-0.165,0.223,0.047,-0.072,0.075,4172.000,-1258.000,-14024.000,0.098,-0.695,0.113,0.704,0.0000000,0.0000000,0.000,0.000,0.000,0.000,0,00:00:00,0,0.000,0.914,91861.242,27.350,0.000,0.000,-0.069,9.761,-0.196,0.000,-0.000,0.000,0.000,0.000
38.839,0,0,0.570,-5.287,-7.578,0.554,-5.702,-11.831,0.272,-3.211,-9.552,0.000,0.000,0.0116870,0.000,9144.000,0.020,0.919,44.337,3.849,918.285,28.247,821.983,0.001,10.078,-0.180,0.187,0.068,-0.028,0.043,4167.000,-1257.000,-13908.000,0.100,-0.694,0.116,0.703,0.0000000,0.0000000,0.000,0.000,0.000,0.000,0,00:00:00,0,0.000,0.000,91871.383,27.356,0.000,0.000,-0.137,9.790,-0.196,0.000,-0.000,-0.000,0.000,0.000
38.940,0,0,0.566,-5.303,-7.564,0.555,-5.742,-11.842,0.311,-3.264,-9.431,0.000,0.000,0.0116870,0.000,9144.000,0.020,0.915,44.726,3.887,918.285,28.254,821.986,0.009,9.977,-0.294,0.244,-0.032,-0.102,-0.038,4231.000,-1274.000,-13989.000,0.098,-0.695,0.116,0.703,0.0000000,0.0000000,0.000,0.000,0.000,0.000,0,00:00:00,0,0.000,0.000,91871.383,27.356,0.000,0.000,-0.137,9.790,-0.196,0.000,-0.000,-0.000,0.000,0.000
39.041,0,0,0.563,-5.322,-7.556,0.553,-5.771,-11.861,0.283,-3.160,-9.470,0.000,0.000,0.0116870,0.000,9144.000,0.020,0.864,45.118,3.921,918.284,28.247,821.991,0.012,9.984,-0.122,0.201,0.062,-0.058,0.017,4215.000,-1264.000,-13969.000,0.102,-0.694,0.116,0.703,0.0000000,0.0000000,0.000,0.000,0.000,0.000,0,00:00:00,0,0.000,0.000,91871.383,27.361,0.000,0.000,-0.010,9.781,-0.206,0.001,0.000,0.001,0.000,0.000
39.142,0,0,0.560,-5.343,-7.548,0.568,-5.800,-11.886,0.454,-3.156,-9.542,0.000,0.000,0.0116870,0.000,9144.000,0.020,0.848,45.513,3.948,918.280,28.255,822.024,0.046,10.056,-0.108,0.280,-0.015,0.047,0.036,4204.000,-1284.000,-13962.000,0.101,-0.691,0.115,0.706,0.0000000,0.0000000,0.000,0.000,0.000,0.000,0,00:00:00,0,0.000,0.000,91871.383,27.361,0.000,0.000,-0.010,9.781,-0.206,0.001,0.000,0.001,0.000,0.000
39.243,0,0,0.559,-5.365,-7.547,0.567,-5.835,-11.905,0.291,-3.233,-9.438,0.000,0.000,0.0116870,0.000,9144.000,0.020,1.355,45.911,3.985,918.283,28.252,822.004,0.025,9.977,-0.208,0.172,0.009,-0.038,-0.026,4198.000,-1243.000,-13938.000,0.102,-0.693,0.116,0.704,0.0000000,0.0000000,0.000,0.000,0.000,0.000,0,00:00:00,0,0.000,0.000,91871.383,27.361,0.000,0.000,-0.010,9.781,-0.206,0.001,0.000,0.001,0.000,0.000
39.344,0,0,0.558,-5.389,-7.548,0.578,-5.869,-11.920,0.406,-3.225,-9.402,0.000,0.000,0.0116870,0.000,9144.000,0.021,1.063,46.314,4.026,918.281,28.244,822.019,0.041,9.941,-0.266,0.266,-0.062,0.023,0.077,4185.000,-1256.000,-13923.000,0.096,-0.692,0.117,0.706,0.0000000,0.0000000,0.000,0.000,0.000,0.000,0,00:00:00,0,0.000,0.000,91871.383,27.350,0.000,0.000,-0.118,9.761,-0.069,-0.001,0.000,-0.001,0.000,0.000
39.445,0,0,0.557,-5.414,-7.551,0.576,-5.899,-11.939,0.277,-3.198,-9.420,0.000,0.000,0.0116870,0.000,9144.000,0.021,1.360,46.720,4.065,918.281,28.245,822.017,0.041,9.948,-0.215,0.151,0.026,0.034,-0.015,4224.000,-1263.000,-13871.000,0.098,-0.693,0.117,0.705,0.0000000,0.0000000,0.000,0.000,0.000,0.000,0,00:00:00,0,0.000,0.000,91871.383,27.350,0.000,0.000,-0.118,9.761,-0.069,-0.001,0.000,-0.001,0.000,0.000
39.546,0,0,0.557,-5.440,-7.559,0.581,-5.930,-11.961,0.348,-3.214,-9.437,0.000,0.000,0.0116870,0.000,9144.000,0.021,1.214,47.130,4.102,918.282,28.249,822.006,0.028,9.970,-0.251,0.223,-0.028,-0.009,-0.013,4188.000,-1274.000,-13913.000,0.097,-0.693,0.116,0.705,0.0000000,0.0000000,0.000,0.000,0.000,0.000,0,00:00:00,0,0.000,0.305,91871.383,27.350,0.000,0.000,-0.235,9.771,-0.108,-0.001,-0.000,0.000,0.000,0.000
39.647,0,0,0.562,-5.463,-7.572,0.676,-5.882,-11.999,1.238,-2.435,-9.580,0.000,0.000,0.0116870,0.000,9144.000,0.021,1.220,47.543,4.125,918.284,28.252,821.988,0.008,9.920,0.567,0.718,0.032,0.070,0.040,4217.000,-1253.000,-13945.000,0.110,-0.680,0.105,0.717,0.0000000,0.0000000,0.000,0.000,0.000,0.000,0,00:00:00,0,0.000,0.305,91871.383,27.350,0.000,0.000,-0.235,9.771,-0.108,-0.001,-0.000,0.000,0.000,0.000
39.748,0,0,0.574,-5.483,-7.586,0.753,-5.890,-12.030,1.074,-3.002,-9.531,0.000,0.000,0.0116870,0.000,9144.000,0.021,2.884,47.958,4.153,918.282,28.248,822.007,0.024,10.034,0.029,0.567,0.011,-0.051,0.036,4192.000,-1285.000,-13922.000,0.108,-0.680,0.108,0.717,0.0000000,0.0000000,0.000,0.000,0.000,0.000,0,00:00:00,0,0.000,0.305,91871.383,27.356,0.000,0.000,0.088,9.800,-0.137,-0.001,0.000,0.000,0.000,0.000
39.849,0,0,0.590,-5.502,-7.602,0.786,-5.898,-12.060,0.644,-3.011,-9.517,0.000,0.000,0.0116870,0.000,9144.000,0.021,2.913,48.376,4.183,918.284,28.251,821.996,0.014,9.999,-0.036,0.280,-0.053,-0.004,0.096,4185.000,-1288.000,-13991.000,0.103,-0.685,0.110,0.712,0.0000000,0.0000000,0.000,0.000,0.000,0.000,0,00:00:00,0,0.000,0.305,91871.383,27.356,0.000,0.000,0.088,9.800,-0.137,-0.001,0.000,0.000,0.000,0.000
39.950,0,0,0.606,-5.521,-7.621,0.783,-5.908,-12.075,0.287,-3.030,-9.360,0.000,0.000,0.0116870,0.000,9144.000,0.021,2.247,48.799,4.228,918.285,28.261,821.979,-0.006,9.841,-0.151,0.065,-0.047,0.094,0.047,4173.000,-1254.000,-13956.000,0.099,-0.690,0.110,0.708,0.0000000,0.0000000,0.000,0.000,0.000,0.000,0,00:00:00,0,0.000,-0.914,91881.508,27.361,0.000,0.000,0.000,9.820,-0.059,0.000,-0.001,0.001,0.000,0.000
40.051,0,0,0.621,-5.540,-7.637,0.798,-5.924,-12.096,0.476,-3.103,-9.469,0.000,0.000,0.0116870,0.000,9144.000,0.021,1.580,49.225,4.262,918.282,28.250,822.006,0.021,9.970,-0.230,0.266,-0.045,0.000,-0.049,4183.000,-1223.000,-13971.000,0.096,-0.691,0.110,0.708,0.0000000,0.0000000,0.000,0.000,0.000,0.000,0,00:00:00,0,0.000,-0.914,91881.508,27.361,0.000,0.000,0.000,9.820,-0.059,0.000,-0.001,0.001,0.000,0.000
40.152,0,0,0.635,-5.557,-7.652,0.796,-5.921,-12.122,0.315,-2.921,-9.545,0.000,0.000,0.0116870,0.000,9144.000,0.021,1.552,49.654,4.288,918.281,28.252,822.019,0.029,9.984,-0.144,0.165,-0.109,0.002,0.102,4183.000,-1220.000,-13906.000,0.091,-0.693,0.107,0.707,0.0000000,0.0000000,0.000,0.000,0.000,0.000,0,00:00:00,0,0.000,0.000,91871.383,27.356,0.000,0.000,-0.020,9.928,-0.245,0.001,-0.000,0.001,0.000,0.000
40.253,0,0,0.648,-5.573,-7.670,0.807,-5.908,-12.161,0.452,-2.830,-9.673,0.000,0.000,0.0116870,0.000,9144.000,0.021,1.250,50.084,4.302,918.282,28.256,822.009,0.016,10.085,-0.050,0.273,-0.036,-0.009,0.121,4194.000,-1244.000,-13946.000,0.091,-0.693,0.106,0.708,0.0000000,0.0000000,0.000,0.000,0.000,0.000,0,00:00:00,0,0.000,0.000,91871.383,27.356,0.000,0.000,-0.020,9.928,-0.245,0.001,-0.000,0.001,0.000,0.000
40.354,0,0,0.661,-5.588,-7.694,0.813,-5.913,-12.185,0.416,-3.004,-9.503,0.000,0.000,0.0116870,0.000,9144.000,0.021,1.373,50.518,4.333,918.286,28.256,821.976,-0.022,9.970,-0.158,0.280,0.109,-0.153,-0.079,4194.000,-1244.000,-13946.000,0.096,-0.694,0.108,0.705,0.0000000,0.0000000,0.000,0.000,0.000,0.000,0,00:00:00,0,0.000,0.305,91871.383,27.361,0.000,0.000,-0.186,9.722,-0.206,0.000,-0.000,0.000,0.000,0.000
40.455,0,0,0.673,-5.601,-7.711,0.810,-5.917,-12.203,0.324,-3.006,-9.504,0.000,0.000,0.0116870,0.000,9144.000,0.021,1.056,50.954,4.363,918.281,28.265,822.017,0.015,9.970,-0.208,0.187,-0.051,0.079,0.164,4182.000,-1226.000,-13915.000,0.090,-0.693,0.110,0.706,0.0000000,0.0000000,0.000,0.000,0.000,0.000,0,00:00:00,0,0.000,0.305,91871.383,27.361,0.000,0.000,-0.186,9.722,-0.206,0.000,-0.000,0.000,0.000,0.000
40.556,0,0,0.684,-5.615,-7.731,0.811,-5.927,-12.227,0.373,-3.068,-9.567,0.000,0.000,0.0116870,0.000,9144.000,0.021,1.287,51.393,4.387,918.283,28.252,822.003,-0.000,10.049,-0.244,0.208,0.006,0.066,-0.017,4203.000,-1309.000,-13876.000,0.091,-0.692,0.110,0.707,0.0000000,0.0000000,0.000,0.000,0.000,0.000,0,00:00:00,0,0.000,0.305,91871.383,27.361,0.000,0.000,-0.186,9.722,-0.206,0.000,-0.000,0.000,0.000,0.000
40.657,0,0,0.693,-5.628,-7.752,0.808,-5.931,-12.242,0.331,-3.014,-9.478,0.000,0.000,0.0116870,0.000,9144.000,0.021,1.427,51.835,4.421,918.285,28.264,821.986,-0.016,9.948,-0.194,0.165,0.032,0.011,-0.190,4216.000,-1235.000,-13961.000,0.096,-0.693,0.107,0.707,0.0000000,0.0000000,0.000,0.000,0.000,0.000,0,00:00:00,0,0.000,0.305,91871.383,27.361,0.000,0.000,-0.088,9.781,-0.108,-0.001,0.000,-0.001,0.000,0.000
40.758,0,0,0.702,-5.640,-7.768,0.807,-5.932,-12.264,0.362,-2.986,-9.606,0.000,0.000,0.0116870,0.000,9144.000,0.021,1.221,52.279,4.441,918.281,28.267,822.015,0.012,10.063,-0.165,0.194,-0.034,0.021,-0.036,4222.000,-1294.000,-13851.000,0.095,-0.693,0.106,0.707,0.0000000,0.0000000,0.000,0.000,0.000,0.000,0,00:00:00,0,0.000,0.305,91871.383,27.361,0.000,0.000,-0.088,9.781,-0.108,-0.001,0.000,-0.001,0.000,0.000
40.859,0,0,0.710,-5.651,-7.784,0.823,-5.935,-12.279,0.533,-3.012,-9.555,0.000,0.000,0.0116870,0.000,9144.000,0.022,1.222,52.726,4.466,918.282,28.262,822.011,0.007,10.027,-0.187,0.287,0.011,0.145,0.109,4188.000,-1263.000,-13893.000,0.092,-0.690,0.110,0.710,0.0000000,0.0000000,0.000,0.000,0.000,0.000,0,00:00:00,0,0.000,0.000,91871.383,27.350,0.000,0.000,-0.078,9.839,-0.128,0.000,0.000,-0.000,0.000,0.000
40.960,0,0,0.719,-5.662,-7.805,0.831,-5.942,-12.295,0.465,-3.059,-9.536,0.000,0.000,0.0116870,0.000,9144.000,0.022,1.847,53.175,4.494,918.286,28.269,821.974,-0.029,10.020,-0.187,0.266,0.053,-0.053,-0.028,4174.000,-1269.000,-13881.000,0.095,-0.691,0.110,0.708,0.0000000,0.0000000,0.000,0.000,0.000,0.000,0,00:00:00,0,0.000,0.000,91871.383,27.350,0.000,0.000,-0.078,9.839,-0.128,0.000,0.000,-0.000,0.000,0.000
41.061,0,0,0.728,-5.673,-7.820,0.837,-5.950,-12.306,0.445,-3.073,-9.539,0.000,0.000,0.0116870,0.000,9144.000,0.022,1.534,53.627,4.521,918.283,28.262,822.004,-0.001,10.027,-0.194,0.223,0.002,0.149,0.164,4189.000,-1267.000,-13926.000,0.091,-0.690,0.114,0.709,0.0000000,0.0000000,0.000,0.000,0.000,0.000,0,00:00:00,0,0.000,-0.610,91881.508,27.356,0.000,0.000,-0.049,9.761,-0.177,0.000,-0.000,0.000,0.000,0.000
41.162,0,0,0.736,-5.684,-7.835,0.838,-5.960,-12.303,0.392,-3.094,-9.409,0.000,0.000,0.0116870,0.000,9144.000,0.022,1.830,54.083,4.561,918.284,28.265,821.992,-0.012,9.905,-0.294,0.230,-0.040,-0.047,-0.083,4231.000,-1244.000,-13892.000,0.091,-0.692,0.111,0.707,0.0000000,0.0000000,0.000,0.000,0.000,0.000,0,00:00:00,0,0.000,-0.610,91881.508,27.356,0.000,0.000,-0.049,9.761,-0.177,0.000,-0.000,0.000,0.000,0.000
41.263,0,0,0.743,-5.695,-7.848,0.843,-5.971,-12.316,0.446,-3.109,-9.589,0.000,0.000,0.0116870,0.000,9144.000,0.022,1.442,54.541,4.583,918.283,28.273,822.002,-0.002,10.085,-0.201,0.251,0.055,0.060,0.043,4190.000,-1228.000,-13925.000,0.093,-0.691,0.113,0.708,0.0000000,0.0000000,0.000,0.000,0.000,0.000,0,00:00:00,0,0.000,0.305,91871.383,27.356,0.000,0.000,-0.157,9.771,-0.216,0.000,-0.000,0.000,0.000,0.000
41.364,0,0,0.751,-5.706,-7.861,0.842,-5.978,-12.323,0.380,-3.079,-9.539,0.000,0.000,0.0116870,0.000,9144.000,0.022,1.610,55.002,4.610,918.284,28.269,821.989,-0.011,10.027,-0.144,0.230,0.043,-0.055,0.055,4219.000,-1236.000,-13971.000,0.096,-0.692,0.113,0.706,0.0000000,0.0000000,0.000,0.000,0.000,0.000,0,00:00:00,0,0.000,0.305,91871.383,27.356,0.000,0.000,-0.157,9.771,-0.216,0.000,-0.000,0.000,0.000,0.000
41.465,0,0,0.757,-5.717,-7.874,0.839,-5.987,-12.328,0.375,-3.096,-9.511,0.000,0.000,0.0116870,0.000,9144.000,0.022,1.306,55.466,4.640,918.286,28.269,821.973,-0.027,10.006,-0.158,0.201,0.013,0.062,0.006,4182.000,-1210.000,-13940.000,0.097,-0.692,0.113,0.707,0.0000000,0.0000000,0.000,0.000,0.000,0.000,0,00:00:00,0,0.000,0.000,91871.383,27.361,0.000,0.000,-0.137,9.859,-0.196,0.000,0.000,-0.000,0.000,0.000
41.566,0,0,0.763,-5.728,-7.885,0.847,-5.994,-12.330,0.480,-3.094,-9.515,0.000,0.000,0.0116870,0.000,9144.000,0.022,1.407,55.933,4.670,918.285,28.264,821.986,-0.014,10.013,-0.136,0.259,0.019,0.040,-0.081,4208.000,-1262.000,-13868.000,0.100,-0.690,0.111,0.708,0.0000000,0.0000000,0.000,0.000,0.000,0.000,0,00:00:00,0,0.000,0.000,91871.383,27.361,0.000,0.000,-0.137,9.859,-0.196,0.000,0.000,-0.000,0.000,0.000
41.667,0,0,0.768,-5.738,-7.892,0.841,-6.005,-12.326,0.341,-3.123,-9.475,0.000,0.000,0.0116870,0.000,9144.000,0.022,1.560,56.404,4.703,918.284,28.271,821.996,-0.004,9.977,-0.244,0.201,-0.068,-0.038,0.055,4172.000,-1249.000,-13889.000,0.095,-0.693,0.112,0.706,0.0000000,0.0000000,0.000,0.000,0.000,0.000,0,00:00:00,0,0.000,0.305,91871.383,27.350,0.000,0.000,-0.128,9.849,-0.108,0.000,0.000,0.000,0.000,0.000
41.768,0,0,0.773,-5.749,-7.901,0.843,-6.017,-12.327,0.426,-3.144,-9.510,0.000,0.000,0.0116870,0.000,9144.000,0.022,1.244,56.877,4.733,918.285,28.267,821.984,-0.017,10.020,-0.172,0.266,0.079,-0.011,0.030,4207.000,-1273.000,-13858.000,0.098,-0.692,0.115,0.706,0.0000000,0.0000000,0.000,0.000,0.000,0.000,0,00:00:00,0,0.000,0.305,91871.383,27.350,0.000,0.000,-0.128,9.849,-0.108,0.000,0.000,0.000,0.000,0.000
41.869,0,0,0.778,-5.760,-7.903,0.842,-6.038,-12.314,0.405,-3.250,-9.423,0.000,0.000,0.0116870,0.000,9144.000,0.022,1.356,57.354,4.772,918.281,28.261,822.020,0.018,9.970,-0.244,0.237,0.060,-0.009,-0.132,4186.000,-1230.000,-13882.000,0.101,-0.691,0.115,0.706,0.0000000,0.0000000,0.000,0.000,0.000,0.000,0,00:00:00,0,0.000,0.305,91871.383,27.350,0.000,0.000,-0.128,9.849,-0.108,0.000,0.000,0.000,0.000,0.000
41.970,0,0,0.782,-5.772,-7.906,0.846,-6.045,-12.309,0.443,-3.101,-9.485,0.000,0.000,0.0116870,0.000,9144.000,0.022,1.337,57.835,4.804,918.283,28.270,821.997,-0.004,9.984,-0.115,0.273,-0.036,-0.019,0.117,4228.000,-1241.000,-13889.000,0.099,-0.691,0.115,0.706,0.0000000,0.0000000,0.000,0.000,0.000,0.000,0,00:00:00,0,0.000,0.000,91871.383,27.361,0.000,0.000,-0.137,9.790,-0.069,-0.000,0.000,-0.000,0.000,0.000
42.071,0,0,0.786,-5.784,-7.908,0.845,-6.056,-12.298,0.406,-3.155,-9.431,0.000,0.000,0.0116870,0.000,9144.000,0.022,1.394,58.319,4.842,918.282,28.269,822.006,0.005,9.948,-0.201,0.244,-0.017,-0.028,-0.047,4200.000,-1237.000,-13867.000,0.099,-0.692,0.114,0.706,0.0000000,0.0000000,0.000,0.000,0.000,0.000,0,00:00:00,0,0.000,0.000,91871.383,27.361,0.000,0.000,-0.137,9.790,-0.069,-0.000,0.000,-0.000,0.000,0.000
42.172,0,0,0.789,-5.795,-7.908,0.840,-6.058,-12.292,0.366,-3.069,-9.490,0.000,0.000,0.0116870,0.000,9144.000,0.023,1.320,58.806,4.874,918.282,28.266,822.008,0.010,9.977,-0.158,0.223,-0.058,-0.028,0.045,4157.000,-1267.000,-13961.000,0.097,-0.693,0.112,0.706,0.0000000,0.0000000,0.000,0.000,0.000,0.000,0,00:00:00,0,0.000,0.000,91871.383,27.350,0.000,0.000,-0.137,9.790,-0.118,0.000,0.000,-0.000,0.000,0.000
42.273,0,0,0.792,-5.805,-7.907,0.842,-6.063,-12.286,0.437,-3.105,-9.495,0.000,0.000,0.0116870,0.000,9144.000,0.023,1.217,59.297,4.906,918.282,28.272,822.011,0.013,9.991,-0.273,0.273,-0.083,-0.006,-0.060,4197.000,-1242.000,-13894.000,0.093,-0.692,0.110,0.707,0.0000000,0.0000000,0.000,0.000,0.000,0.000,0,00:00:00,0,0.000,0.000,91871.383,27.350,0.000,0.000,-0.137,9.790,-0.118,0.000,0.000,-0.000,0.000,0.000
42.374,0,0,0.795,-5.814,-7.910,0.842,-6.059,-12.290,0.423,-3.018,-9.557,0.000,0.000,0.0116870,0.000,9144.000,0.023,1.368,59.790,4.931,918.285,28.267,821.984,-0.016,10.027,-0.115,0.251,0.058,-0.026,0.019,4223.000,-1268.000,-13862.000,0.096,-0.692,0.111,0.707,0.0000000,0.0000000,0.000,0.000,0.000,0.000,0,00:00:00,0,0.000,0.305,91871.383,27.356,0.000,0.000,-0.088,9.820,-0.147,0.000,0.000,0.000,0.000,0.000
42.475,0,0,0.797,-5.823,-7.910,0.839,-6.055,-12.285,0.388,-3.026,-9.480,0.000,0.000,0.0116870,0.000,9144.000,0.023,1.332,60.287,4.964,918.284,28.266,821.992,-0.003,9.955,-0.165,0.215,-0.019,0.015,-0.023,4197.000,-1252.000,-13932.000,0.096,-0.692,0.109,0.707,0.0000000,0.0000000,0.000,0.000,0.000,0.000,0,00:00:00,0,0.000,0.305,91871.383,27.356,0.000,0.000,-0.088,9.820,-0.147,0.000,0.000,0.000,0.000,0.000
42.576,0,0,0.799,-5.830,-7.911,0.835,-6.044,-12.281,0.378,-2.954,-9.495,0.000,0.000,0.0116870,0.000,9144.000,0.023,1.328,60.786,4.996,918.285,28.272,821.987,-0.006,9.948,-0.144,0.194,-0.051,0.066,0.032,4192.000,-1270.000,-13957.000,0.094,-0.692,0.108,0.708,0.0000000,0.0000000,0.000,0.000,0.000,0.000,0,00:00:00,0,0.000,-0.914,91881.508,27.356,0.000,0.000,-0.167,9.751,-0.098,0.000,0.000,0.000,0.000,0.000
42.677,0,0,0.800,-5.835,-7.909,0.834,-6.045,-12.279,0.408,-3.086,-9.537,0.000,0.000,0.0116870,0.000,9144.000,0.023,1.409,61.288,5.023,918.282,28.273,822.010,0.016,10.027,-0.223,0.208,0.034,0.102,0.043,4199.000,-1250.000,-13982.000,0.093,-0.691,0.111,0.708,0.0000000,0.0000000,0.000,0.000,0.000,0.000,0,00:00:00,0,0.000,-0.914,91881.508,27.356,0.000,0.000,-0.167,9.751,-0.098,0.000,0.000,0.000,0.000,0.000
42.778,0,0,0.801,-5.840,-7.906,0.820,-6.040,-12.282,0.289,-3.015,-9.577,0.000,0.000,0.0116870,0.000,9144.000,0.023,1.594,61.793,5.046,918.282,28.274,822.009,0.018,10.042,-0.187,0.144,-0.040,0.028,0.058,4214.000,-1248.000,-13914.000,0.092,-0.693,0.110,0.706,0.0000000,0.0000000,0.000,0.000,0.000,0.000,0,00:00:00,0,0.000,0.305,91871.383,27.356,0.000,0.000,-0.177,9.820,-0.108,0.000,0.000,-0.001,0.000,0.000
42.879,0,0,0.800,-5.845,-7.901,0.808,-6.048,-12.272,0.301,-3.157,-9.479,0.000,0.000,0.0116870,0.000,9144.000,0.023,1.283,62.301,5.079,918.280,28.277,822.031,0.039,9.991,-0.208,0.180,0.143,-0.011,-0.013,4187.000,-1231.000,-13876.000,0.097,-0.693,0.114,0.705,0.0000000,0.0000000,0.000,0.000,0.000,0.000,0,00:00:00,0,0.000,0.305,91871.383,27.356,0.000,0.000,-0.177,9.820,-0.108,0.000,0.000,-0.001,0.000,0.000
42.980,0,0,0.799,-5.850,-7.899,0.820,-6.045,-12.271,0.535,-3.047,-9.528,0.000,0.000,0.0116870,0.000,9144.000,0.023,1.135,62.812,5.108,918.282,28.278,822.007,0.012,10.013,-0.158,0.280,-0.068,0.136,-0.126,4190.000,-1282.000,-13910.000,0.097,-0.689,0.109,0.710,0.0000000,0.0000000,0.000,0.000,0.000,0.000,0,00:00:00,0,0.000,0.305,91871.383,27.356,0.000,0.000,-0.177,9.820,-0.108,0.000,0.000,-0.001,0.000,0.000
43.081,0,0,0.800,-5.854,-7.890,0.828,-6.047,-12.255,0.497,-3.104,-9.436,0.000,0.000,0.0116870,0.000,9144.000,0.023,1.756,63.326,5.145,918.277,28.274,822.057,0.063,9.941,-0.187,0.251,0.051,0.085,0.070,4192.000,-1283.000,-13919.000,0.097,-0.689,0.113,0.709,0.0000000,0.0000000,0.000,0.000,0.000,0.000,0,00:00:00,0,0.000,0.305,91871.383,27.356,0.000,0.000,-0.098,9.879,-0.128,-0.000,0.000,-0.000,0.000,0.000
43.182,0,0,0.800,-5.858,-7.882,0.830,-6.050,-12.240,0.445,-3.108,-9.422,0.000,0.000,0.0116870,0.000,9144.000,0.023,1.849,63.845,5.184,918.277,28.274,822.057,0.061,9.927,-0.201,0.223,-0.002,0.032,-0.064,4216.000,-1272.000,-13943.000,0.098,-0.690,0.112,0.708,0.0000000,0.0000000,0.000,0.000,0.000,0.000,0,00:00:00,0,0.000,0.305,91871.383,27.356,0.000,0.000,-0.098,9.879,-0.128,-0.000,0.000,-0.000,0.000,0.000
43.283,0,0,0.801,-5.862,-7.873,0.820,-6.052,-12.234,0.319,-3.105,-9.509,0.000,0.000,0.0116870,0.000,9144.000,0.023,1.658,64.366,5.214,918.277,28.275,822.057,0.060,10.006,-0.151,0.187,0.021,-0.066,0.092,4228.000,-1270.000,-13847.000,0.097,-0.693,0.114,0.705,0.0000000,0.0000000,0.000,0.000,0.000,0.000,0,00:00:00,0,0.000,0.305,91871.383,27.356,0.000,0.000,-0.128,9.849,-0.186,0.000,0.000,-0.000,0.000,0.000
43.384,0,0,0.800,-5.866,-7.866,0.807,-6.070,-12.221,0.294,-3.265,-9.421,0.000,0.000,0.0116870,0.000,9144.000,0.023,1.176,64.891,5.253,918.277,28.271,822.051,0.055,9.970,-0.251,0.208,0.077,-0.064,0.038,4210.000,-1250.000,-13890.000,0.099,-0.694,0.118,0.703,0.0000000,0.0000000,0.000,0.000,0.000,0.000,0,00:00:00,0,0.000,0.305,91871.383,27.356,0.000,0.000,-0.128,9.849,-0.186,0.000,0.000,-0.000,0.000,0.000
43.485,0,0,0.798,-5.871,-7.857,0.791,-6.076,-12.216,0.268,-3.147,-9.504,0.000,0.000,0.0116870,0.000,9144.000,0.023,1.008,65.420,5.283,918.276,28.267,822.063,0.064,10.013,-0.165,0.144,-0.049,0.098,0.055,4192.000,-1256.000,-13913.000,0.097,-0.693,0.116,0.705,0.0000000,0.0000000,0.000,0.000,0.000,0.000,0,00:00:00,0,0.000,-0.305,91881.508,27.356,0.000,0.000,-0.059,9.790,-0.137,0.000,0.000,0.000,0.000,0.000
43.586,0,0,0.796,-5.876,-7.850,0.792,-6.074,-12.214,0.422,-3.070,-9.518,0.000,0.000,0.0116870,0.000,9144.000,0.023,1.192,65.951,5.312,918.276,28.279,822.061,0.063,10.006,-0.122,0.266,-0.043,0.013,0.132,4205.000,-1312.000,-13954.000,0.095,-0.692,0.115,0.706,0.0000000,0.0000000,0.000,0.000,0.000,0.000,0,00:00:00,0,0.000,-0.305,91881.508,27.356,0.000,0.000,-0.059,9.790,-0.137,0.000,0.000,0.000,0.000,0.000
43.687,0,0,0.793,-5.880,-7.841,0.786,-6.070,-12.207,0.356,-3.053,-9.479,0.000,0.000,0.0116870,0.000,9144.000,0.023,1.390,66.485,5.346,918.275,28.271,822.077,0.077,9.963,-0.079,0.201,0.045,-0.043,-0.089,4185.000,-1285.000,-13894.000,0.102,-0.693,0.112,0.705,0.0000000,0.0000000,0.000,0.000,0.000,0.000,0,00:00:00,0,0.000,0.000,91871.383,27.361,0.000,0.000,-0.049,9.761,-0.147,-0.000,0.000,0.000,0.000,0.000
43.788,0,0,0.789,-5.884,-7.840,0.761,-6.080,-12.202,0.172,-3.189,-9.439,0.000,0.000,0.0116870,0.000,9144.000,0.023,1.154,67.024,5.383,918.280,28.278,822.031,0.029,9.963,-0.180,0.065,0.045,0.066,0.019,4218.000,-1292.000,-13857.000,0.102,-0.694,0.115,0.704,0.0000000,0.0000000,0.000,0.000,0.000,0.000,0,00:00:00,0,0.000,0.000,91871.383,27.361,0.000,0.000,-0.049,9.761,-0.147,-0.000,0.000,0.000,0.000,0.000
43.889,0,0,0.784,-5.889,-7.835,0.747,-6.093,-12.197,0.270,-3.229,-9.454,0.000,0.000,0.0116870,0.000,9144.000,0.024,0.953,67.565,5.418,918.277,28.269,822.054,0.050,9.991,-0.201,0.144,0.011,0.085,0.015,4213.000,-1315.000,-13905.000,0.101,-0.693,0.116,0.705,0.0000000,0.0000000,0.000,0.000,0.000,0.000,0,00:00:00,0,0.000,0.000,91871.383,27.356,0.000,0.000,-0.108,9.800,-0.118,-0.000,0.000,0.000,0.000,0.000
43.990,0,0,0.779,-5.894,-7.833,0.751,-6.096,-12.207,0.453,-3.132,-9.587,0.000,0.000,0.0116870,0.000,9144.000,0.024,1.133,68.110,5.441,918.278,28.273,822.042,0.037,10.092,-0.144,0.251,-0.077,0.072,-0.034,4164.000,-1268.000,-13902.000,0.099,-0.691,0.112,0.707,0.0000000,0.0000000,0.000,0.000,0.000,0.000,0,00:00:00,0,0.000,0.000,91871.383,27.356,0.000,0.000,-0.108,9.800,-0.118,-0.000,0.000,0.000,0.000,0.000
44.091,0,0,0.775,-5.899,-7.835,0.761,-6.108,-12.203,0.506,-3.219,-9.430,0.000,0.000,0.0116870,0.000,9144.000,0.024,1.484,68.657,5.479,918.280,28.274,822.026,0.016,9.970,-0.237,0.294,0.036,0.004,-0.058,4193.000,-1265.000,-13964.000,0.100,-0.690,0.114,0.708,0.0000000,0.0000000,0.000,0.000,0.000,0.000,0,00:00:00,0,0.000,-0.914,91881.508,27.361,0.000,0.000,-0.118,9.810,-0.167,0.001,-0.000,0.000,0.000,0.000
44.192,0,0,0.772,-5.905,-7.835,0.755,-6.113,-12.199,0.350,-3.154,-9.432,0.000,0.000,0.0116870,0.000,9144.000,0.024,1.601,69.209,5.516,918.280,28.278,822.031,0.016,9.948,-0.194,0.194,-0.013,-0.060,-0.109,4189.000,-1279.000,-13897.000,0.101,-0.692,0.112,0.706,0.0000000,0.0000000,0.000,0.000,0.000,0.000,0,00:00:00,0,0.000,-0.914,91881.508,27.361,0.000,0.000,-0.118,9.810,-0.167,0.001,-0.000,0.000,0.000,0.000
