State - Time (s),State - Stage,State - Stage,State - PX (m),State - PY (m),State - PZ (m),State - VX (m/s),State - VY (m/s),State - VZ (m/s),State - AX (m/s/s),State - AY (m/s/s),State - AZ (m/s/s),State - Actuation Angle (deg),State - Acutal Angle (deg),State - CdA,State - Est Apo (m),State - Target Apogee (m),State - Mach Number,State - Tilt [deg],State - Pos - Accel Integrated [m],State - Velo - Accel Integrated [m/s],MockBarometer - Pres (hPa),MockBarometer - Temp (C),MockBarometer - Alt ASL (m),MockBarometer - Alt AGL (m),MockIMU - AccX (m/s^2),MockIMU - AccY (m/s^2),MockIMU - AccZ (m/s^2),MockIMU - GyroX (rad/s),MockIMU - GyroY (rad/s),MockIMU - GyroZ (rad/s),MockIMU - MagX (uT),MockIMU - MagY (uT),MockIMU - MagZ (uT),MockIMU - OriX,MockIMU - OriY,MockIMU - OriZ,MockIMU - OriW,MockGPS - Lat,MockGPS - Lon,MockGPS - Alt (m),MockGPS - Disp X (m),MockGPS - Disp Y (m),MockGPS - Disp Z (m),MockGPS - Fix Quality,MockGPS - Time of Day,E5 - Rel Steps,MockBR - Battery Voltage (V),MockBR - ALT (m),MockBR - PRES (Pa),MockBR - TEMP (C),MockBR - VEL (m/s),MockBR - ANG (deg),MockBR - ACCX (m/s^2),MockBR - ACCY (m/s^2),MockBR - ACCZ (m/s^2),MockBR - GYROX (rad/s),MockBR - GYROY (rad/s),MockBR - GYROZ (rad/s),MockBR - ROLL (deg),MockBR - TILT (deg)
51.834,1,0,-1.252,-0.205,1.351,-0.775,-0.016,-53.732,4.487,1.961,124.081,0.000,0.000,0.0103675,0.000,9144.000,0.004,2.017,-488.036,-83.966,915.040,9.464,851.266,1.736,124.177,0.076,0.251,0.001,-0.030,-0.012,0.000,0.000,0.000,0.006,0.693,-0.005,0.720,0.0000000,0.0000000,1.860,0.000,0.000,0.000,0,00:00:00,-45020,0.000,1.860,91495.766,9.460,12.409,0.000,0.360,124.038,0.029,-0.004,0.015,0.006,0.000,0.000
51.935,1,0,-1.182,-0.180,4.955,-0.255,0.158,26.708,4.521,1.628,124.981,0.000,0.000,0.0103675,0.000,9144.000,0.160,2.186,-495.183,-71.468,914.684,9.444,854.485,4.955,125.072,-0.021,0.432,-0.020,-0.014,0.003,0.000,0.000,0.000,0.005,0.693,-0.004,0.721,0.0000000,0.0000000,4.974,0.000,0.000,0.000,0,00:00:00,-45020,0.000,4.974,91470.031,9.445,24.910,0.000,0.351,124.974,0.069,-0.010,0.010,0.018,0.000,0.000
52.036,1,0,-1.070,-0.142,-45.221,0.267,0.297,-28.306,4.604,1.299,125.763,0.000,0.000,0.0103675,0.000,9144.000,0.079,2.268,-501.072,-58.892,914.203,9.415,858.835,9.305,125.853,-0.120,0.453,-0.019,-0.006,-0.001,0.000,0.000,0.000,0.004,0.693,-0.004,0.721,0.0000000,0.0000000,9.350,0.000,0.000,0.000,0,00:00:00,-45020,0.000,9.350,91420.891,9.416,37.501,0.000,0.325,125.973,-0.097,-0.002,-0.006,0.003,0.000,0.000
52.137,1,0,-0.921,-0.097,15.058,0.808,0.396,51.808,4.880,0.924,126.633,0.000,0.000,0.0103675,0.000,9144.000,0.084,2.302,-505.695,-46.229,913.567,9.378,864.588,15.058,126.730,-0.020,0.408,-0.038,-0.015,-0.001,0.000,0.000,0.000,0.003,0.692,-0.002,0.722,0.0000000,0.0000000,14.999,0.000,0.000,0.000,0,00:00:00,-45020,0.000,14.999,91356.336,9.378,50.181,0.000,0.317,126.814,0.034,0.003,0.011,0.015,0.000,0.000
52.238,1,0,-0.737,-0.047,-88.078,1.308,0.490,-2.920,4.560,0.906,127.614,0.000,0.000,0.0103675,0.000,9144.000,0.154,2.391,-509.042,-33.467,912.804,9.333,871.493,21.963,127.698,-0.033,0.434,-0.001,0.026,0.014,0.000,0.000,0.000,0.003,0.693,-0.002,0.721,0.0000000,0.0000000,21.927,0.000,0.000,0.000,0,00:00:00,-45020,0.000,21.927,91284.672,9.335,62.948,0.000,0.432,127.637,-0.025,0.012,0.007,0.002,0.000,0.000
52.339,1,0,-0.526,0.005,30.306,1.794,0.565,77.442,4.534,0.746,128.306,0.000,0.000,0.0103675,0.000,9144.000,0.010,2.240,-511.105,-20.637,911.883,9.279,879.836,30.306,128.387,-0.074,0.554,-0.010,-0.005,-0.011,0.000,0.000,0.000,0.003,0.693,-0.002,0.721,0.0000000,0.0000000,30.144,0.000,0.000,0.000,0,00:00:00,-45020,0.000,30.144,91187.570,9.278,75.802,0.000,0.299,128.503,-0.003,-0.018,0.010,0.005,0.000,0.000
52.440,1,0,-0.290,0.061,-131.123,2.289,0.656,22.670,4.749,0.932,129.295,0.000,0.000,0.0103675,0.000,9144.000,0.230,2.271,-511.876,-7.707,910.841,9.217,889.284,39.754,129.385,-0.061,0.379,0.013,0.000,0.005,0.000,0.000,0.000,0.003,0.693,-0.002,0.721,0.0000000,0.0000000,39.658,0.000,0.000,0.000,0,00:00:00,-45020,0.000,39.658,91088.703,9.220,88.741,0.000,0.266,129.373,-0.056,-0.015,0.001,-0.009,0.000,0.000
52.541,1,0,-0.032,0.119,-0.620,2.757,0.747,35.077,4.613,0.971,130.189,0.000,0.000,0.0103675,0.000,9144.000,0.068,2.270,-511.345,5.312,909.677,9.149,899.842,50.312,130.273,-0.087,0.356,0.004,0.015,-0.012,0.000,0.000,0.000,0.003,0.693,-0.003,0.720,0.0000000,0.0000000,50.478,0.000,0.000,0.000,0,00:00:00,-45020,0.000,50.478,90970.883,9.150,101.763,0.000,0.378,130.261,-0.035,-0.011,-0.002,-0.003,0.000,0.000
52.642,1,0,0.243,0.181,-28.236,3.190,0.842,12.832,4.419,1.028,130.195,0.000,0.000,0.0103675,0.000,9144.000,0.105,2.186,-509.512,18.331,909.677,9.149,899.842,50.312,130.273,-0.087,0.356,0.004,0.015,-0.012,0.000,0.000,0.000,0.003,0.694,-0.003,0.720,0.0000000,0.0000000,50.478,0.000,0.000,0.000,0,00:00:00,-45020,0.000,50.478,90970.883,9.150,101.763,0.000,0.378,130.261,-0.035,-0.011,-0.002,-0.003,0.000,0.000
52.743,1,0,0.533,0.244,45.886,3.651,0.912,97.662,4.846,0.822,131.833,0.000,0.000,0.0103675,0.000,9144.000,0.039,2.101,-506.360,31.514,906.878,8.983,925.295,75.765,131.924,0.023,0.203,-0.023,-0.016,0.053,0.000,0.000,0.000,0.004,0.693,-0.001,0.720,0.0000000,0.0000000,76.066,0.000,0.000,0.000,0,00:00:00,-45020,0.000,76.066,90696.188,8.988,128.049,0.000,0.340,131.801,0.065,0.010,0.006,-0.011,0.000,0.000
52.844,1,0,0.839,0.307,-140.665,4.117,0.968,76.320,5.057,0.716,132.577,0.000,0.000,0.0103675,0.000,9144.000,0.291,2.191,-501.883,44.772,905.215,8.885,940.438,90.908,132.675,-0.010,0.412,-0.005,-0.029,0.017,0.000,0.000,0.000,0.004,0.692,0.000,0.722,0.0000000,0.0000000,90.849,0.000,0.000,0.000,0,00:00:00,-45020,0.000,90.849,90516.852,8.882,141.308,0.000,0.301,132.576,-0.061,-0.012,0.006,0.004,0.000,0.000
52.945,1,0,1.160,0.369,-77.128,4.614,1.021,88.376,5.528,0.728,133.319,0.000,0.000,0.0103675,0.000,9144.000,0.227,2.360,-496.073,58.104,903.455,8.780,956.498,106.968,133.435,0.171,0.241,-0.012,-0.020,0.036,0.000,0.000,0.000,0.005,0.692,0.002,0.722,0.0000000,0.0000000,106.969,0.000,0.000,0.000,0,00:00:00,-45020,0.000,106.969,90345.133,8.780,154.641,0.000,0.322,133.364,0.064,0.014,0.005,0.010,0.000,0.000
53.046,1,0,1.495,0.431,-92.551,5.100,1.091,101.194,5.601,0.913,134.062,0.000,0.000,0.0103675,0.000,9144.000,0.263,2.474,-488.922,71.510,901.571,8.668,973.714,124.184,134.182,0.048,0.340,0.023,-0.011,0.001,0.000,0.000,0.000,0.006,0.691,0.001,0.723,0.0000000,0.0000000,124.431,0.000,0.000,0.000,0,00:00:00,-45020,0.000,124.431,90150.570,8.664,168.044,0.000,0.355,133.949,-0.004,-0.011,0.004,0.024,0.000,0.000
53.147,1,0,1.842,0.491,-108.909,5.545,1.104,117.562,5.370,0.385,134.553,0.000,0.000,0.0103675,0.000,9144.000,0.302,2.533,-480.425,84.966,899.435,8.541,993.269,143.739,134.661,-0.107,0.294,-0.028,0.022,-0.013,0.000,0.000,0.000,0.004,0.692,0.002,0.722,0.0000000,0.0000000,143.243,0.000,0.000,0.000,0,00:00:00,-45020,0.000,143.243,89940.461,8.539,181.515,0.000,0.400,134.699,0.080,-0.014,0.021,0.021,0.000,0.000
53.248,1,0,2.196,0.547,-134.605,5.972,1.126,128.018,5.383,0.507,135.300,0.000,0.000,0.0103675,0.000,9144.000,0.350,2.409,-470.576,98.495,897.267,8.412,1013.157,163.627,135.407,0.082,0.278,-0.003,0.003,0.042,0.000,0.000,0.000,0.006,0.692,0.003,0.722,0.0000000,0.0000000,163.410,0.000,0.000,0.000,0,00:00:00,-45020,0.000,163.410,89730.812,8.414,195.048,0.000,0.468,135.325,0.002,0.003,0.004,0.004,0.000,0.000
53.349,1,0,2.557,0.599,-144.960,6.417,1.132,141.967,5.751,0.377,135.953,0.000,0.000,0.0103675,0.000,9144.000,0.382,2.393,-459.366,112.091,894.941,8.273,1034.537,185.006,136.075,-0.156,0.220,0.008,-0.021,0.010,0.000,0.000,0.000,0.006,0.691,0.003,0.722,0.0000000,0.0000000,184.938,0.000,0.000,0.000,0,00:00:00,-45020,0.000,184.938,89502.391,8.278,208.641,0.000,0.332,135.980,-0.089,-0.002,-0.007,-0.019,0.000,0.000
53.450,1,0,2.922,0.647,-163.911,6.801,1.146,155.803,5.336,0.485,136.351,0.000,0.000,0.0103675,0.000,9144.000,0.423,2.513,-446.794,125.726,892.463,8.124,1057.361,207.831,136.456,0.054,0.163,-0.007,0.036,0.014,0.000,0.000,0.000,0.007,0.693,0.004,0.721,0.0000000,0.0000000,207.833,0.000,0.000,0.000,0,00:00:00,-45020,0.000,207.833,89256.164,8.130,222.286,0.000,0.303,136.445,0.066,0.007,-0.010,-0.003,0.000,0.000
53.551,1,0,3.288,0.690,-182.251,7.189,1.120,170.121,5.571,0.096,136.914,0.000,0.000,0.0103675,0.000,9144.000,0.465,2.306,-432.852,139.417,889.818,7.966,1081.779,232.249,137.027,-0.104,0.375,-0.016,-0.031,0.020,0.000,0.000,0.000,0.007,0.692,0.005,0.722,0.0000000,0.0000000,232.099,0.000,0.000,0.000,0,00:00:00,-45020,0.000,232.099,88992.289,7.972,235.980,0.000,0.325,136.948,0.020,-0.005,-0.027,0.007,0.000,0.000
53.652,1,0,3.654,0.728,-201.939,7.569,1.132,181.399,5.690,0.508,137.263,0.000,0.000,0.0103675,0.000,9144.000,0.508,2.486,-417.538,153.144,887.119,7.803,1106.759,257.229,137.381,0.216,0.462,0.008,-0.013,0.039,0.000,0.000,0.000,0.008,0.691,0.007,0.723,0.0000000,0.0000000,257.739,0.000,0.000,0.000,0,00:00:00,-45020,0.000,257.739,88706.539,7.800,249.716,0.000,0.338,137.318,0.042,-0.006,-0.013,0.012,0.000,0.000
53.753,1,0,4.020,0.763,-212.816,7.909,1.118,197.520,5.481,0.262,137.491,0.000,0.000,0.0103675,0.000,9144.000,0.541,2.561,-400.849,166.893,884.191,7.626,1133.926,284.396,137.600,0.108,0.409,-0.010,0.020,-0.007,0.000,0.000,0.000,0.008,0.692,0.007,0.722,0.0000000,0.0000000,284.758,0.000,0.000,0.000,0,00:00:00,-45020,0.000,284.758,88417.906,7.626,263.487,0.000,0.432,137.694,0.032,-0.027,0.001,-0.012,0.000,0.000
53.854,1,0,4.380,0.792,-242.728,8.203,1.089,126.450,5.211,0.124,137.502,0.000,0.000,0.0103675,0.000,9144.000,0.590,2.450,-382.784,180.643,884.191,7.626,1133.926,284.396,137.600,0.108,0.409,-0.010,0.020,-0.007,0.000,0.000,0.000,0.007,0.692,0.007,0.721,0.0000000,0.0000000,284.758,0.000,0.000,0.000,0,00:00:00,-45020,0.000,284.758,88417.906,7.626,263.487,0.000,0.432,137.694,0.032,-0.027,0.001,-0.012,0.000,0.000
53.955,1,0,4.736,0.815,-14.413,8.559,1.024,309.315,6.014,-0.213,138.326,0.000,0.000,0.0103675,0.000,9144.000,0.378,2.339,-363.337,194.476,877.934,7.247,1192.231,342.701,138.456,0.015,0.250,-0.016,-0.044,0.034,0.000,0.000,0.000,0.008,0.691,0.009,0.723,0.0000000,0.0000000,342.937,0.000,0.000,0.000,0,00:00:00,-45020,0.000,342.937,87785.352,7.242,291.105,0.000,0.254,138.178,-0.057,-0.002,-0.014,-0.012,0.000,0.000
54.056,1,0,5.090,0.829,-342.505,8.893,0.951,208.313,5.988,-0.284,138.371,0.000,0.000,0.0103675,0.000,9144.000,0.923,2.594,-342.505,208.313,874.619,7.046,1223.252,373.722,138.501,0.056,0.258,-0.009,0.001,-0.014,0.000,0.000,0.000,0.007,0.691,0.008,0.723,0.0000000,0.0000000,374.100,0.000,0.000,0.000,0,00:00:00,-45020,0.000,374.100,87470.398,7.051,304.933,0.000,0.382,138.350,-0.007,-0.010,-0.009,-0.013,0.000,0.000
54.157,1,0,5.441,0.833,-199.083,9.217,0.846,253.175,6.070,-0.608,137.997,0.000,0.000,0.0103675,0.000,9144.000,0.622,2.587,-320.294,222.112,871.116,6.832,1256.143,406.613,138.131,-0.174,0.393,-0.006,-0.017,0.035,0.000,0.000,0.000,0.008,0.690,0.010,0.723,0.0000000,0.0000000,406.644,0.000,0.000,0.000,0,00:00:00,-45020,0.000,406.644,87111.000,6.831,318.763,0.000,0.321,138.340,-0.023,0.017,-0.005,0.003,0.000,0.000
54.258,1,0,5.788,0.828,-296.703,9.521,0.763,235.907,6.047,-0.378,137.946,0.000,0.000,0.0103675,0.000,9144.000,0.757,2.687,-296.703,235.907,867.530,6.612,1289.927,440.397,138.079,0.196,0.288,-0.010,0.010,-0.001,0.000,0.000,0.000,0.008,0.691,0.010,0.723,0.0000000,0.0000000,440.570,0.000,0.000,0.000,0,00:00:00,-45020,0.000,440.570,86758.336,6.615,332.583,0.000,0.443,138.200,0.075,-0.003,0.011,-0.000,0.000,0.000
54.359,1,0,6.127,0.816,-229.605,9.778,0.662,279.336,5.774,-0.572,137.943,0.000,0.000,0.0103675,0.000,9144.000,0.705,2.633,-271.733,249.701,863.806,6.383,1325.124,475.594,138.064,-0.087,0.526,0.006,0.002,-0.005,0.000,0.000,0.000,0.008,0.691,0.010,0.723,0.0000000,0.0000000,475.873,0.000,0.000,0.000,0,00:00:00,-45020,0.000,475.873,86374.891,6.380,346.381,0.000,0.278,138.026,0.028,-0.001,-0.005,0.011,0.000,0.000
54.460,1,0,6.458,0.794,-245.385,10.006,0.538,263.486,5.652,-0.810,137.845,0.000,0.000,0.0103675,0.000,9144.000,0.835,2.620,-245.385,263.486,859.983,6.147,1361.384,511.853,137.963,0.034,0.417,-0.026,0.017,-0.000,0.000,0.000,0.000,0.007,0.691,0.011,0.722,0.0000000,0.0000000,512.556,0.000,0.000,0.000,0,00:00:00,-45020,0.000,512.556,85997.234,6.147,360.183,0.000,0.308,138.081,0.082,-0.006,-0.014,0.003,0.000,0.000
54.561,1,0,6.780,0.763,-217.658,10.280,0.401,277.270,6.279,-0.957,137.844,0.000,0.000,0.0103675,0.000,9144.000,0.788,2.528,-217.658,277.270,855.972,5.899,1399.568,550.038,137.989,0.022,0.405,-0.009,-0.045,0.024,0.000,0.000,0.000,0.007,0.690,0.012,0.724,0.0000000,0.0000000,550.619,0.000,0.000,0.000,0,00:00:00,-45020,0.000,550.619,85588.977,5.894,373.995,0.000,0.399,138.180,0.012,-0.002,0.011,-0.014,0.000,0.000
54.662,1,0,7.098,0.724,-188.550,10.584,0.309,291.077,6.743,-0.531,138.067,0.000,0.000,0.0103675,0.000,9144.000,0.830,2.786,-188.550,291.077,851.831,5.642,1439.147,589.617,138.232,0.001,0.353,0.032,-0.029,-0.012,0.000,0.000,0.000,0.008,0.689,0.010,0.725,0.0000000,0.0000000,590.064,0.000,0.000,0.000,0,00:00:00,-45020,0.000,590.064,85182.758,5.641,387.815,0.000,0.377,138.166,0.060,0.005,0.015,-0.006,0.000,0.000
54.763,1,0,7.414,0.679,-158.061,10.882,0.192,304.893,6.846,-0.803,138.161,0.000,0.000,0.0103675,0.000,9144.000,0.872,2.947,-158.061,304.893,847.565,5.375,1480.085,630.555,138.333,-0.110,0.300,-0.013,-0.003,-0.021,0.000,0.000,0.000,0.007,0.689,0.010,0.725,0.0000000,0.0000000,630.890,0.000,0.000,0.000,0,00:00:00,-45020,0.000,630.890,84762.086,5.379,401.639,0.000,0.308,138.196,-0.100,-0.028,-0.003,-0.012,0.000,0.000
54.864,1,0,7.729,0.627,-126.191,11.200,0.064,318.697,7.217,-0.931,138.041,0.000,0.000,0.0103675,0.000,9144.000,0.914,2.968,-126.191,318.697,843.207,5.102,1522.072,672.542,138.233,0.022,0.283,-0.018,-0.026,0.010,0.000,0.000,0.000,0.006,0.688,0.011,0.726,0.0000000,0.0000000,673.098,0.000,0.000,0.000,0,00:00:00,-45020,0.000,673.098,84320.414,5.102,415.461,0.000,0.333,138.333,0.033,-0.010,-0.001,0.011,0.000,0.000
54.965,1,0,8.044,0.567,-92.941,11.538,-0.086,332.499,7.573,-1.192,138.020,0.000,0.000,0.0103675,0.000,9144.000,0.955,3.119,-92.941,332.499,843.207,5.102,1522.072,672.542,138.233,0.022,0.283,-0.018,-0.026,0.010,0.000,0.000,0.000,0.006,0.687,0.012,0.727,0.0000000,0.0000000,673.098,0.000,0.000,0.000,0,00:00:00,-45020,0.000,673.098,84320.414,5.102,415.461,0.000,0.333,138.333,0.033,-0.010,-0.001,0.011,0.000,0.000
55.066,1,0,8.360,0.500,-58.312,11.870,-0.220,346.288,7.690,-1.064,137.891,0.000,0.000,0.0103675,0.000,9144.000,0.997,3.269,-58.312,346.288,1693.129,66.057,-4547.126,-5396.656,138.108,-0.047,0.512,0.015,-0.026,0.027,0.000,0.000,0.000,0.008,0.686,0.012,0.728,0.0000000,0.0000000,761.654,0.000,0.000,0.000,0,00:00:00,-45020,0.000,761.654,169314.156,66.061,443.090,0.000,0.275,138.118,0.047,0.003,-0.010,-0.018,0.000,0.000
55.167,1,0,8.678,0.426,-22.306,12.224,-0.370,360.064,8.064,-1.262,137.762,0.000,0.000,0.0103675,0.000,9144.000,0.940,3.415,-22.306,360.064,1809.921,73.416,-5171.187,-6020.717,138.003,-0.172,0.441,-0.003,-0.023,0.034,0.000,0.000,0.000,0.009,0.685,0.014,0.729,0.0000000,0.0000000,808.000,0.000,0.000,0.000,0,00:00:00,-45020,0.000,808.000,180983.609,73.416,456.889,0.000,0.337,138.016,0.066,-0.001,-0.007,-0.003,0.000,0.000
55.268,1,0,8.997,0.348,15.078,12.558,-0.448,373.837,8.043,-0.583,137.723,0.000,0.000,0.0103675,0.000,9144.000,0.967,3.548,15.078,373.837,1930.094,80.833,-5780.154,-6629.684,137.958,0.120,0.276,0.027,0.014,-0.025,0.000,0.000,0.000,0.009,0.685,0.012,0.728,0.0000000,0.0000000,855.724,0.000,0.000,0.000,0,00:00:00,-45020,0.000,855.724,193015.625,80.837,470.674,0.000,0.306,137.795,0.005,0.014,-0.003,-0.002,0.000,0.000
55.369,1,0,9.316,0.273,53.839,12.856,-0.481,387.610,7.849,-0.192,137.735,0.000,0.000,0.0103675,0.000,9144.000,0.994,3.462,53.839,387.610,1930.094,80.833,-5780.154,-6629.684,137.958,0.120,0.276,0.027,0.014,-0.025,0.000,0.000,0.000,0.009,0.686,0.010,0.728,0.0000000,0.0000000,855.724,0.000,0.000,0.000,0,00:00:00,-45020,0.000,855.724,193015.625,80.837,470.674,0.000,0.306,137.795,0.005,0.014,-0.003,-0.002,0.000,0.000
55.470,1,0,9.630,0.204,93.977,13.118,-0.472,401.385,7.654,0.199,137.746,0.000,0.000,0.0103675,0.000,9144.000,1.030,3.377,93.977,401.385,1930.094,80.833,-5780.154,-6629.684,137.958,0.120,0.276,0.027,0.014,-0.025,0.000,0.000,0.000,0.009,0.686,0.008,0.727,0.0000000,0.0000000,855.724,0.000,0.000,0.000,0,00:00:00,-45020,0.000,855.724,193015.625,80.837,470.674,0.000,0.306,137.795,0.005,0.014,-0.003,-0.002,0.000,0.000
55.571,1,0,9.937,0.144,135.493,13.343,-0.420,415.160,7.458,0.589,137.756,0.000,0.000,0.0103675,0.000,9144.000,1.067,3.292,135.493,415.160,1930.094,80.833,-5780.154,-6629.684,137.958,0.120,0.276,0.027,0.014,-0.025,0.000,0.000,0.000,0.009,0.687,0.006,0.727,0.0000000,0.0000000,855.724,0.000,0.000,0.000,0,00:00:00,-45020,0.000,855.724,193015.625,80.837,470.674,0.000,0.306,137.795,0.005,0.014,-0.003,-0.002,0.000,0.000
55.672,1,0,10.232,0.093,178.383,13.488,-0.397,428.896,6.817,0.282,137.357,0.000,0.000,0.0103675,0.000,9144.000,1.103,3.207,178.383,428.896,1087.359,23.783,-599.151,-1448.681,137.526,0.162,0.351,-0.027,0.039,-0.030,0.000,0.000,0.000,0.007,0.688,0.006,0.725,0.0000000,0.0000000,955.293,0.000,0.000,0.000,0,00:00:00,-45020,0.000,955.293,108735.773,23.780,498.191,0.000,0.263,137.529,0.012,0.026,0.003,-0.019,0.000,0.000
55.773,1,0,10.510,0.047,222.646,13.564,-0.406,442.634,6.276,-0.068,137.383,0.000,0.000,0.0103675,0.000,9144.000,1.244,2.985,222.646,442.634,1087.359,23.783,-599.151,-1448.681,137.526,0.162,0.351,-0.027,0.039,-0.030,0.000,0.000,0.000,0.005,0.690,0.006,0.724,0.0000000,0.0000000,955.293,0.000,0.000,0.000,0,00:00:00,-45020,0.000,955.293,108735.773,23.780,498.191,0.000,0.263,137.529,0.012,0.026,0.003,-0.019,0.000,0.000
55.874,1,0,10.767,0.006,268.281,13.618,-0.413,456.345,6.194,-0.063,137.107,0.000,0.000,0.0103675,0.000,9144.000,1.284,2.762,268.281,456.345,1087.026,23.755,-596.536,-1446.066,137.246,0.116,0.309,0.003,0.008,-0.014,0.000,0.000,0.000,0.005,0.690,0.005,0.724,0.0000000,0.0000000,1007.135,0.000,0.000,0.000,0,00:00:00,-45020,0.000,1007.135,108691.828,23.761,511.918,0.000,0.371,137.301,0.038,0.004,0.007,0.003,0.000,0.000
55.975,1,0,11.004,-0.036,315.285,13.638,-0.479,470.043,5.994,-0.674,136.977,0.000,0.000,0.0103675,0.000,9144.000,1.324,2.716,315.285,470.043,1089.021,23.912,-612.209,-1461.739,137.109,0.108,0.419,-0.043,0.006,0.016,0.000,0.000,0.000,0.004,0.690,0.008,0.723,0.0000000,0.0000000,1060.344,0.000,0.000,0.000,0,00:00:00,-45020,0.000,1060.344,108901.156,23.912,525.619,0.000,0.382,136.984,-0.004,-0.015,-0.001,0.001,0.000,0.000
56.076,1,0,11.219,-0.082,363.659,13.639,-0.604,483.740,5.909,-1.278,136.976,0.000,0.000,0.0103675,0.000,9144.000,1.363,2.685,363.659,483.740,1089.021,23.912,-612.209,-1461.739,137.109,0.108,0.419,-0.043,0.006,0.016,0.000,0.000,0.000,0.003,0.691,0.010,0.723,0.0000000,0.0000000,1060.344,0.000,0.000,0.000,0,00:00:00,-45020,0.000,1060.344,108901.156,23.912,525.619,0.000,0.382,136.984,-0.004,-0.015,-0.001,0.001,0.000,0.000
56.177,1,0,11.413,-0.135,413.400,13.616,-0.723,497.406,5.771,-1.250,136.654,0.000,0.000,0.0103675,0.000,9144.000,1.403,2.654,413.400,497.406,1094.442,24.340,-654.671,-1504.201,136.781,0.063,0.398,0.005,0.011,-0.001,0.000,0.000,0.000,0.003,0.691,0.009,0.723,0.0000000,0.0000000,1114.919,0.000,0.000,0.000,0,00:00:00,-45020,0.000,1114.919,109442.508,24.343,539.293,0.000,0.271,136.740,-0.082,-0.017,0.010,0.009,0.000,0.000
56.278,1,0,11.588,-0.194,464.503,13.617,-0.846,511.029,6.102,-1.324,136.232,0.000,0.000,0.0103675,0.000,9144.000,1.442,2.593,464.503,511.029,1095.509,24.424,-663.005,-1512.535,136.374,0.078,0.520,-0.009,-0.034,-0.038,0.000,0.000,0.000,0.001,0.690,0.008,0.724,0.0000000,0.0000000,1170.856,0.000,0.000,0.000,0,00:00:00,-45020,0.000,1170.856,109542.188,24.422,552.937,0.000,0.362,136.407,-0.091,0.002,-0.027,0.007,0.000,0.000
56.379,1,0,11.746,-0.259,516.965,13.607,-0.973,524.628,6.082,-1.391,135.994,0.000,0.000,0.0103675,0.000,9144.000,1.481,2.790,516.965,524.628,1101.525,24.894,-709.895,-1559.425,136.137,-0.088,0.355,0.007,0.013,-0.013,0.000,0.000,0.000,0.001,0.690,0.008,0.724,0.0000000,0.0000000,1228.151,0.000,0.000,0.000,0,00:00:00,-45020,0.000,1228.151,110152.328,24.889,566.550,0.000,0.425,136.107,0.017,-0.007,0.017,-0.001,0.000,0.000
56.480,1,0,11.888,-0.329,570.788,13.573,-1.086,538.229,5.910,-1.293,136.003,0.000,0.000,0.0103675,0.000,9144.000,1.519,2.717,570.788,538.229,1101.525,24.894,-709.895,-1559.425,136.137,-0.088,0.355,0.007,0.013,-0.013,0.000,0.000,0.000,0.001,0.691,0.007,0.723,0.0000000,0.0000000,1228.151,0.000,0.000,0.000,0,00:00:00,-45020,0.000,1228.151,110152.328,24.889,566.550,0.000,0.425,136.107,0.017,-0.007,0.017,-0.001,0.000,0.000
56.581,1,0,12.011,-0.402,625.968,13.505,-1.186,551.800,5.646,-1.204,135.712,0.000,0.000,0.0103675,0.000,9144.000,1.559,2.643,625.968,551.800,1103.715,25.069,-726.914,-1576.444,135.834,0.034,0.464,-0.004,0.011,-0.024,0.000,0.000,0.000,-0.000,0.691,0.006,0.723,0.0000000,0.0000000,1286.802,0.000,0.000,0.000,0,00:00:00,-45020,0.000,1286.802,110385.547,25.072,580.129,0.000,0.396,135.773,-0.039,0.004,-0.017,0.011,0.000,0.000
56.682,1,0,12.118,-0.476,682.501,13.470,-1.243,565.324,6.027,-0.813,135.237,0.000,0.000,0.0103675,0.000,9144.000,1.597,2.582,682.501,565.324,1102.222,24.950,-715.311,-1564.841,135.374,-0.057,0.328,0.036,-0.020,0.024,0.000,0.000,0.000,0.002,0.690,0.006,0.724,0.0000000,0.0000000,1346.804,0.000,0.000,0.000,0,00:00:00,-45020,0.000,1346.804,110229.859,24.949,593.673,0.000,0.302,135.474,0.077,0.001,0.001,0.006,0.000,0.000
56.783,1,0,12.212,-0.545,740.382,13.433,-1.248,578.810,6.055,-0.335,134.866,0.000,0.000,0.0103675,0.000,9144.000,1.637,2.694,740.382,578.810,1107.401,25.353,-755.491,-1605.021,135.002,0.099,0.269,0.023,0.001,-0.024,0.000,0.000,0.000,0.002,0.690,0.004,0.723,0.0000000,0.0000000,1408.155,0.000,0.000,0.000,0,00:00:00,-45020,0.000,1408.155,110738.914,25.351,607.181,0.000,0.414,135.086,0.069,-0.003,0.001,-0.006,0.000,0.000
56.884,1,0,12.293,-0.607,799.611,13.390,-1.217,592.297,6.039,-0.016,134.867,0.000,0.000,0.0103675,0.000,9144.000,1.675,2.686,799.611,592.297,1107.401,25.353,-755.491,-1605.021,135.002,0.099,0.269,0.023,0.001,-0.024,0.000,0.000,0.000,0.002,0.690,0.002,0.723,0.0000000,0.0000000,1408.155,0.000,0.000,0.000,0,00:00:00,-45020,0.000,1408.155,110738.914,25.351,607.181,0.000,0.414,135.086,0.069,-0.003,0.001,-0.006,0.000,0.000
56.985,1,0,12.362,-0.658,860.190,13.342,-1.152,605.784,6.022,0.303,134.867,0.000,0.000,0.0103675,0.000,9144.000,1.714,2.678,860.190,605.784,1107.401,25.353,-755.491,-1605.021,135.002,0.099,0.269,0.023,0.001,-0.024,0.000,0.000,0.000,0.002,0.690,0.001,0.723,0.0000000,0.0000000,1408.155,0.000,0.000,0.000,0,00:00:00,-45020,0.000,1408.155,110738.914,25.351,607.181,0.000,0.414,135.086,0.069,-0.003,0.001,-0.006,0.000,0.000
57.086,1,0,12.421,-0.699,922.110,13.302,-1.103,619.203,6.141,0.116,134.193,0.000,0.000,0.0103675,0.000,9144.000,1.753,2.670,922.110,619.203,1119.540,26.298,-849.069,-1698.599,134.333,0.025,0.366,-0.008,-0.018,0.004,0.000,0.000,0.000,0.002,0.690,0.001,0.724,0.0000000,0.0000000,1534.884,0.000,0.000,0.000,0,00:00:00,-45020,0.000,1534.884,111951.266,26.297,634.079,0.000,0.405,134.287,-0.014,0.004,-0.001,0.013,0.000,0.000
57.187,1,0,12.473,-0.732,985.369,13.305,-1.035,632.587,6.588,0.285,133.839,0.000,0.000,0.0103675,0.000,9144.000,1.789,2.776,985.369,632.587,1127.267,26.891,-908.211,-1757.741,134.001,-0.080,0.312,0.020,-0.031,-0.004,0.000,0.000,0.000,0.002,0.689,0.000,0.725,0.0000000,0.0000000,1600.254,0.000,0.000,0.000,0,00:00:00,-45020,0.000,1600.254,112723.398,26.893,647.468,0.000,0.345,133.798,0.061,0.002,-0.018,-0.005,0.000,0.000
57.288,1,0,12.522,-0.753,1049.966,13.347,-0.939,645.968,6.997,0.560,133.818,0.000,0.000,0.0103675,0.000,9144.000,1.825,2.951,1049.966,645.968,1127.267,26.891,-908.211,-1757.741,134.001,-0.080,0.312,0.020,-0.031,-0.004,0.000,0.000,0.000,0.003,0.688,-0.000,0.726,0.0000000,0.0000000,1600.254,0.000,0.000,0.000,0,00:00:00,-45020,0.000,1600.254,112723.398,26.893,647.468,0.000,0.345,133.798,0.061,0.002,-0.018,-0.005,0.000,0.000
57.389,2,0,12.520,-0.768,1113.909,12.291,-0.917,639.439,-3.865,-0.190,-65.298,0.000,0.000,0.0103675,0.000,9144.000,1.864,3.126,1113.909,639.439,1124.261,26.658,-885.246,-1734.776,-65.412,0.058,0.407,-0.009,0.017,0.009,0.000,0.000,0.000,0.003,0.688,0.000,0.726,0.0000000,0.0000000,1663.973,0.000,0.000,0.000,0,00:00:00,-45020,0.000,1663.973,112421.133,26.654,640.914,0.000,0.391,-65.564,-0.059,0.001,0.002,0.002,0.000,0.000
57.490,2,0,12.422,-0.778,1177.212,11.254,-0.880,633.031,-3.740,-0.038,-64.081,0.000,0.000,0.0103137,0.000,9144.000,1.846,3.030,1177.212,633.031,1121.227,26.429,-862.008,-1711.538,-64.189,0.148,0.386,-0.009,0.006,0.003,0.000,0.000,0.000,0.003,0.688,0.001,0.725,0.0000000,0.0000000,1727.058,0.000,0.000,0.000,0,00:00:00,-45020,0.000,1727.058,112131.422,26.432,634.505,0.000,0.351,-64.116,0.055,0.002,-0.000,-0.003,0.000,0.000
57.591,2,0,12.239,-0.784,1239.892,10.233,-0.846,626.796,-3.675,-0.075,-62.344,0.000,0.000,0.0102791,0.000,9144.000,1.828,2.995,1239.892,626.796,1118.341,26.200,-839.865,-1689.395,-62.451,0.026,0.410,-0.015,-0.000,-0.039,0.000,0.000,0.000,0.001,0.688,-0.000,0.725,0.0000000,0.0000000,1789.524,0.000,0.000,0.000,0,00:00:00,-45020,0.000,1789.524,111832.914,26.203,628.236,0.000,0.428,-62.655,0.047,0.003,-0.009,0.006,0.000,0.000
57.692,2,0,11.981,-0.786,1301.948,9.225,-0.803,620.562,-3.676,0.004,-62.344,0.000,0.000,0.0102385,0.000,9144.000,1.811,2.997,1301.948,620.562,1118.341,26.200,-839.865,-1689.395,-62.451,0.026,0.410,-0.015,-0.000,-0.039,0.000,0.000,0.000,-0.001,0.688,-0.001,0.725,0.0000000,0.0000000,1789.524,0.000,0.000,0.000,0,00:00:00,-45020,0.000,1789.524,111832.914,26.203,628.236,0.000,0.428,-62.655,0.047,0.003,-0.009,0.006,0.000,0.000
57.793,2,0,11.657,-0.783,1363.392,8.265,-0.748,614.439,-3.370,0.138,-61.224,0.000,0.000,0.0102594,0.000,9144.000,1.793,2.998,1363.392,614.439,1115.319,25.972,-816.624,-1666.154,-61.315,0.148,0.435,-0.002,0.044,-0.007,0.000,0.000,0.000,-0.001,0.690,-0.001,0.724,0.0000000,0.0000000,1851.383,0.000,0.000,0.000,0,00:00:00,-45020,0.000,1851.383,111528.133,25.971,622.101,0.000,0.322,-61.383,-0.105,-0.015,-0.010,0.012,0.000,0.000
57.894,2,0,11.276,-0.776,1424.239,7.314,-0.705,608.467,-3.488,0.016,-59.724,0.000,0.000,0.0102846,0.000,9144.000,1.776,2.744,1424.239,608.467,1112.405,25.744,-794.170,-1643.700,-59.825,0.029,0.411,-0.001,-0.036,-0.036,0.000,0.000,0.000,-0.003,0.689,-0.003,0.725,0.0000000,0.0000000,1912.648,0.000,0.000,0.000,0,00:00:00,-45020,0.000,1912.648,111231.859,25.743,616.095,0.000,0.423,-60.070,-0.091,0.005,-0.004,0.002,0.000,0.000
57.995,2,0,10.846,-0.764,1484.498,6.422,-0.622,602.592,-3.132,0.424,-58.754,0.000,0.000,0.0102971,0.000,9144.000,1.759,2.949,1484.498,602.592,1109.422,25.510,-771.132,-1620.662,-58.838,0.175,0.266,-0.046,0.028,-0.026,0.000,0.000,0.000,-0.005,0.690,-0.002,0.724,0.0000000,0.0000000,1973.332,0.000,0.000,0.000,0,00:00:00,-45020,0.000,1973.332,110953.469,25.510,610.215,0.000,0.373,-58.710,0.032,-0.004,-0.006,-0.009,0.000,0.000
58.096,2,0,10.377,-0.744,1544.170,5.571,-0.513,596.715,-2.970,0.685,-58.760,0.000,0.000,0.0103183,0.000,9144.000,1.743,2.788,1544.170,596.715,1109.422,25.510,-771.132,-1620.662,-58.838,0.175,0.266,-0.046,0.028,-0.026,0.000,0.000,0.000,-0.008,0.691,-0.001,0.723,0.0000000,0.0000000,1973.332,0.000,0.000,0.000,0,00:00:00,-45020,0.000,1973.332,110953.469,25.510,610.215,0.000,0.373,-58.710,0.032,-0.004,-0.006,-0.009,0.000,0.000
58.197,2,0,9.874,-0.717,1603.269,4.730,-0.430,590.996,-3.130,0.446,-57.200,0.000,0.000,0.0103891,0.000,9144.000,1.726,2.625,1603.269,590.996,1106.463,25.282,-748.227,-1597.757,-57.286,0.116,0.337,0.030,-0.028,0.013,0.000,0.000,0.000,-0.006,0.690,-0.002,0.724,0.0000000,0.0000000,2033.446,0.000,0.000,0.000,0,00:00:00,-45020,0.000,2033.446,110651.891,25.282,604.456,0.000,0.327,-57.606,-0.016,0.010,-0.003,-0.005,0.000,0.000
58.298,2,0,9.344,-0.687,1661.806,3.943,-0.384,585.372,-2.878,0.093,-56.237,0.000,0.000,0.0104310,0.000,9144.000,1.710,2.789,1661.806,585.372,1103.575,25.053,-725.822,-1575.352,-56.309,-0.223,0.328,0.001,0.034,-0.000,0.000,0.000,0.000,-0.006,0.691,-0.002,0.723,0.0000000,0.0000000,2093.002,0.000,0.000,0.000,0,00:00:00,-45020,0.000,2093.002,110357.531,25.054,598.814,0.000,0.328,-56.368,0.027,-0.014,-0.001,-0.002,0.000,0.000
58.399,2,0,8.793,-0.654,1719.793,3.178,-0.302,579.868,-2.955,0.466,-55.041,0.000,0.000,0.0104733,0.000,9144.000,1.694,2.595,1719.793,579.868,1100.592,24.821,-702.632,-1552.162,-55.121,0.100,0.422,-0.010,-0.006,0.011,0.000,0.000,0.000,-0.006,0.691,-0.001,0.723,0.0000000,0.0000000,2152.011,0.000,0.000,0.000,0,00:00:00,-45020,0.000,2152.011,110068.102,24.819,593.284,0.000,0.310,-55.340,-0.013,0.015,-0.025,0.002,0.000,0.000
58.500,2,0,8.225,-0.616,1777.229,2.439,-0.216,574.364,-2.988,0.525,-55.039,0.000,0.000,0.0105047,0.000,9144.000,1.679,2.629,1777.229,574.364,1100.592,24.821,-702.632,-1552.162,-55.121,0.100,0.422,-0.010,-0.006,0.011,0.000,0.000,0.000,-0.006,0.690,-0.000,0.723,0.0000000,0.0000000,2152.011,0.000,0.000,0.000,0,00:00:00,-45020,0.000,2152.011,110068.102,24.819,593.284,0.000,0.310,-55.340,-0.013,0.015,-0.025,0.002,0.000,0.000
58.601,2,0,7.643,-0.575,1834.126,1.713,-0.139,568.965,-3.171,0.459,-53.993,0.000,0.000,0.0105833,0.000,9144.000,1.663,2.663,1834.126,568.965,1107.589,25.367,-756.945,-1606.475,-54.085,0.027,0.518,-0.002,-0.025,0.018,0.000,0.000,0.000,-0.006,0.690,0.000,0.724,0.0000000,0.0000000,2210.483,0.000,0.000,0.000,0,00:00:00,-45020,0.000,2210.483,110751.328,25.359,587.863,0.000,0.298,-54.195,-0.022,0.008,0.013,-0.026,0.000,0.000
58.702,2,0,7.052,-0.530,1890.491,1.061,-0.055,563.655,-2.746,0.554,-53.099,0.000,0.000,0.0106496,0.000,9144.000,1.646,2.808,1890.491,563.655,1104.445,25.123,-732.576,-1582.106,-53.172,0.021,0.329,-0.021,0.036,-0.018,0.000,0.000,0.000,-0.007,0.691,0.000,0.723,0.0000000,0.0000000,2268.429,0.000,0.000,0.000,0,00:00:00,-45020,0.000,2268.429,110447.266,25.123,582.548,0.000,0.277,-53.112,-0.046,-0.010,0.002,-0.012,0.000,0.000
58.803,2,0,6.460,-0.483,1946.336,0.459,-0.001,558.443,-2.558,0.281,-52.116,0.000,0.000,0.0107101,0.000,9144.000,1.631,2.599,1946.336,558.443,1101.302,24.882,-708.159,-1557.689,-52.178,-0.227,0.276,0.001,0.017,-0.032,0.000,0.000,0.000,-0.008,0.691,-0.001,0.722,0.0000000,0.0000000,2325.859,0.000,0.000,0.000,0,00:00:00,-45020,0.000,2325.859,110136.625,24.879,577.334,0.000,0.364,-52.155,-0.089,-0.005,-0.015,0.002,0.000,0.000
58.904,2,0,5.870,-0.435,2001.659,-0.102,0.049,553.231,-2.472,0.266,-52.120,0.000,0.000,0.0107607,0.000,9144.000,1.617,2.503,2001.659,553.231,1101.302,24.882,-708.159,-1557.689,-52.178,-0.227,0.276,0.001,0.017,-0.032,0.000,0.000,0.000,-0.009,0.692,-0.002,0.722,0.0000000,0.0000000,2325.859,0.000,0.000,0.000,0,00:00:00,-45020,0.000,2325.859,110136.625,24.879,577.334,0.000,0.364,-52.155,-0.089,-0.005,-0.015,0.002,0.000,0.000
59.005,2,0,5.285,-0.388,2056.473,-0.640,0.094,548.139,-2.541,0.243,-50.924,0.000,0.000,0.0108550,0.000,9144.000,1.602,2.408,2056.473,548.139,1098.205,24.634,-684.041,-1533.571,-50.987,-0.186,0.291,0.010,-0.020,-0.007,0.000,0.000,0.000,-0.009,0.691,-0.003,0.723,0.0000000,0.0000000,2382.783,0.000,0.000,0.000,0,00:00:00,-45020,0.000,2382.783,109813.781,24.634,572.219,0.000,0.336,-51.182,0.053,-0.022,0.001,0.008,0.000,0.000
59.106,2,0,4.708,-0.340,2110.785,-1.131,0.166,543.120,-2.389,0.535,-50.186,0.000,0.000,0.0109205,0.000,9144.000,1.587,2.524,2110.785,543.120,1094.996,24.385,-659.000,-1508.530,-50.244,0.053,0.336,-0.013,0.034,-0.028,0.000,0.000,0.000,-0.010,0.693,-0.003,0.721,0.0000000,0.0000000,2439.210,0.000,0.000,0.000,0,00:00:00,-45020,0.000,2439.210,109498.492,24.387,567.199,0.000,0.293,-50.190,0.066,-0.003,0.005,0.006,0.000,0.000
59.207,2,0,4.142,-0.289,2164.595,-1.575,0.242,538.101,-2.221,0.596,-50.193,0.000,0.000,0.0109855,0.000,9144.000,1.574,2.330,2164.595,538.101,1094.996,24.385,-659.000,-1508.530,-50.244,0.053,0.336,-0.013,0.034,-0.028,0.000,0.000,0.000,-0.012,0.694,-0.004,0.720,0.0000000,0.0000000,2439.210,0.000,0.000,0.000,0,00:00:00,-45020,0.000,2439.210,109498.492,24.387,567.199,0.000,0.293,-50.190,0.066,-0.003,0.005,0.006,0.000,0.000
59.308,2,0,3.590,-0.237,2217.913,-1.987,0.305,533.186,-2.194,0.499,-49.150,0.000,0.000,0.0110920,0.000,9144.000,1.559,2.134,2217.913,533.186,1101.042,24.859,-706.135,-1555.665,-49.200,-0.017,0.377,0.003,0.005,0.004,0.000,0.000,0.000,-0.012,0.694,-0.004,0.720,0.0000000,0.0000000,2495.148,0.000,0.000,0.000,0,00:00:00,-45020,0.000,2495.148,110105.375,24.859,562.271,0.000,0.340,-49.302,-0.045,0.009,0.007,-0.008,0.000,0.000
59.409,2,0,3.054,-0.184,2270.749,-2.368,0.364,528.354,-2.166,0.488,-48.318,0.000,0.000,0.0111717,0.000,9144.000,1.544,2.104,2270.749,528.354,1097.736,24.599,-680.388,-1529.918,-48.367,-0.003,0.387,0.004,0.002,0.014,0.000,0.000,0.000,-0.011,0.694,-0.003,0.720,0.0000000,0.0000000,2550.608,0.000,0.000,0.000,0,00:00:00,-45020,0.000,2550.608,109774.789,24.601,557.433,0.000,0.344,-48.467,-0.015,0.013,-0.000,-0.013,0.000,0.000
59.510,2,0,2.534,-0.131,2323.101,-2.721,0.418,523.522,-2.158,0.471,-48.319,0.000,0.000,0.0112405,0.000,9144.000,1.530,2.096,2323.101,523.522,1097.736,24.599,-680.388,-1529.918,-48.367,-0.003,0.387,0.004,0.002,0.014,0.000,0.000,0.000,-0.010,0.694,-0.003,0.720,0.0000000,0.0000000,2550.608,0.000,0.000,0.000,0,00:00:00,-45020,0.000,2550.608,109774.789,24.601,557.433,0.000,0.344,-48.467,-0.015,0.013,-0.000,-0.013,0.000,0.000
59.611,2,0,2.033,-0.078,2374.978,-3.030,0.476,518.775,-1.988,0.532,-47.468,0.000,0.000,0.0113506,0.000,9144.000,1.516,2.087,2374.978,518.775,1094.375,24.336,-654.143,-1503.673,-47.512,0.026,0.306,-0.007,0.012,0.039,0.000,0.000,0.000,-0.009,0.694,-0.001,0.719,0.0000000,0.0000000,2605.597,0.000,0.000,0.000,0,00:00:00,-45020,0.000,2605.597,109438.750,24.341,552.682,0.000,0.247,-47.501,-0.048,0.003,0.012,0.011,0.000,0.000
59.712,2,0,1.552,-0.025,2426.390,-3.314,0.528,514.112,-1.995,0.499,-46.637,0.000,0.000,0.0114411,0.000,9144.000,1.503,2.019,2426.390,514.112,1091.023,24.070,-627.908,-1477.439,-46.680,-0.133,0.405,-0.030,0.013,-0.017,0.000,0.000,0.000,-0.011,0.695,-0.001,0.719,0.0000000,0.0000000,2660.123,0.000,0.000,0.000,0,00:00:00,-45020,0.000,2660.123,109093.539,24.070,548.015,0.000,0.344,-46.742,0.099,0.012,0.014,-0.008,0.000,0.000
59.813,2,0,1.092,0.029,2477.334,-3.567,0.590,509.448,-1.935,0.635,-46.638,0.000,0.000,0.0115158,0.000,9144.000,1.490,1.941,2477.334,509.448,1091.023,24.070,-627.908,-1477.439,-46.680,-0.133,0.405,-0.030,0.013,-0.017,0.000,0.000,0.000,-0.013,0.695,-0.001,0.719,0.0000000,0.0000000,2660.123,0.000,0.000,0.000,0,00:00:00,-45020,0.000,2660.123,109093.539,24.070,548.015,0.000,0.344,-46.742,0.099,0.012,0.014,-0.008,0.000,0.000
59.914,2,0,0.653,0.084,2527.813,-3.791,0.664,504.784,-1.875,0.771,-46.638,0.000,0.000,0.0116315,0.000,9144.000,1.477,1.863,2527.813,504.784,1091.023,24.070,-627.908,-1477.439,-46.680,-0.133,0.405,-0.030,0.013,-0.017,0.000,0.000,0.000,-0.014,0.696,-0.000,0.718,0.0000000,0.0000000,2660.123,0.000,0.000,0.000,0,00:00:00,-45020,0.000,2660.123,109093.539,24.070,548.015,0.000,0.344,-46.742,0.099,0.012,0.014,-0.008,0.000,0.000
60.015,2,0,0.235,0.140,2577.825,-3.987,0.748,500.120,-1.816,0.906,-46.638,0.000,0.000,0.0117815,0.000,9144.000,1.463,1.785,2577.825,500.120,1091.023,24.070,-627.908,-1477.439,-46.680,-0.133,0.405,-0.030,0.013,-0.017,0.000,0.000,0.000,-0.016,0.696,0.000,0.718,0.0000000,0.0000000,2660.123,0.000,0.000,0.000,0,00:00:00,-45020,0.000,2660.123,109093.539,24.070,548.015,0.000,0.344,-46.742,0.099,0.012,0.014,-0.008,0.000,0.000
60.116,2,0,-0.159,0.200,2627.370,-4.156,0.842,495.457,-1.757,1.042,-46.637,0.000,0.000,0.0119609,0.000,9144.000,1.450,1.707,2627.370,495.457,1091.023,24.070,-627.908,-1477.439,-46.680,-0.133,0.405,-0.030,0.013,-0.017,0.000,0.000,0.000,-0.018,0.697,0.001,0.717,0.0000000,0.0000000,2660.123,0.000,0.000,0.000,0,00:00:00,-45020,0.000,2660.123,109093.539,24.070,548.015,0.000,0.344,-46.742,0.099,0.012,0.014,-0.008,0.000,0.000
60.217,2,0,-0.532,0.263,2676.473,-4.303,0.943,491.025,-1.737,1.135,-44.314,0.000,0.000,0.0121654,0.000,9144.000,1.436,1.628,2676.473,491.025,1089.133,23.927,-613.082,-1462.612,-44.360,-0.072,0.466,-0.021,0.003,0.007,0.000,0.000,0.000,-0.018,0.697,0.002,0.717,0.0000000,0.0000000,2821.007,0.000,0.000,0.000,0,00:00:00,-45020,0.000,2821.007,108920.820,23.921,534.491,0.000,0.309,-44.297,0.007,0.007,-0.009,0.008,0.000,0.000
60.318,2,0,-0.881,0.330,2725.139,-4.431,1.059,486.657,-1.731,1.319,-43.682,0.000,0.000,0.0122224,0.000,9144.000,1.424,1.607,2725.139,486.657,1085.531,23.641,-584.779,-1434.309,-43.735,0.133,0.405,0.001,-0.016,-0.001,0.000,0.000,0.000,-0.018,0.696,0.002,0.717,0.0000000,0.0000000,2873.761,0.000,0.000,0.000,0,00:00:00,-45020,0.000,2873.761,108550.570,23.645,530.135,0.000,0.352,-43.667,0.049,-0.006,0.002,0.009,0.000,0.000
60.419,2,0,-1.210,0.401,2773.368,-4.549,1.170,482.289,-1.800,1.314,-43.680,0.000,0.000,0.0122795,0.000,9144.000,1.412,1.697,2773.368,482.289,1085.531,23.641,-584.779,-1434.309,-43.735,0.133,0.405,0.001,-0.016,-0.001,0.000,0.000,0.000,-0.018,0.696,0.001,0.718,0.0000000,0.0000000,2873.761,0.000,0.000,0.000,0,00:00:00,-45020,0.000,2873.761,108550.570,23.645,530.135,0.000,0.352,-43.667,0.049,-0.006,0.002,0.009,0.000,0.000
60.520,2,0,-1.518,0.475,2821.169,-4.675,1.264,478.018,-2.049,1.178,-42.710,0.000,0.000,0.0123833,0.000,9144.000,1.399,1.787,2821.169,478.018,1090.111,24.002,-620.759,-1470.289,-42.771,0.044,0.582,0.005,-0.025,0.027,0.000,0.000,0.000,-0.017,0.695,0.002,0.719,0.0000000,0.0000000,2926.091,0.000,0.000,0.000,0,00:00:00,-45020,0.000,2926.091,109008.352,24.005,525.851,0.000,0.380,-42.923,0.110,-0.002,-0.026,-0.001,0.000,0.000
60.621,2,0,-1.806,0.549,2868.550,-4.734,1.331,473.807,-1.535,0.951,-42.107,0.000,0.000,0.0124512,0.000,9144.000,1.386,1.933,2868.550,473.807,1086.309,23.699,-590.900,-1440.430,-42.146,-0.121,0.111,0.013,0.005,-0.010,0.000,0.000,0.000,-0.017,0.695,0.001,0.719,0.0000000,0.0000000,2978.003,0.000,0.000,0.000,0,00:00:00,-45020,0.000,2978.003,108634.570,23.702,521.637,0.000,0.359,-42.163,0.044,-0.002,0.005,0.014,0.000,0.000
60.722,2,0,-2.072,0.622,2915.510,-4.778,1.388,469.596,-1.517,0.896,-42.109,0.000,0.000,0.0125133,0.000,9144.000,1.374,1.908,2915.510,469.596,1086.309,23.699,-590.900,-1440.430,-42.146,-0.121,0.111,0.013,0.005,-0.010,0.000,0.000,0.000,-0.017,0.695,0.001,0.719,0.0000000,0.0000000,2978.003,0.000,0.000,0.000,0,00:00:00,-45020,0.000,2978.003,108634.570,23.702,521.637,0.000,0.359,-42.163,0.044,-0.002,0.005,0.014,0.000,0.000
60.823,2,0,-2.318,0.692,2962.057,-4.841,1.433,465.469,-1.843,0.803,-41.275,0.000,0.000,0.0126214,0.000,9144.000,1.362,1.884,2962.057,465.469,1090.436,24.025,-623.306,-1472.836,-41.322,-0.085,0.417,0.026,-0.012,0.022,0.000,0.000,0.000,-0.015,0.695,0.001,0.719,0.0000000,0.0000000,3029.505,0.000,0.000,0.000,0,00:00:00,-45020,0.000,3029.505,109035.312,24.029,517.491,0.000,0.315,-41.426,-0.019,0.000,-0.013,0.019,0.000,0.000
60.924,2,0,-2.544,0.761,3008.196,-4.870,1.489,461.398,-1.629,0.957,-40.707,0.000,0.000,0.0126996,0.000,9144.000,1.349,1.955,3008.196,461.398,1086.480,23.713,-592.244,-1441.774,-40.749,0.038,0.289,-0.010,0.017,-0.000,0.000,0.000,0.000,-0.015,0.695,0.001,0.718,0.0000000,0.0000000,3080.601,0.000,0.000,0.000,0,00:00:00,-45020,0.000,3080.601,108641.914,23.716,513.412,0.000,0.293,-40.749,0.001,0.003,0.002,-0.002,0.000,0.000
61.025,2,0,-2.752,0.829,3053.929,-4.881,1.546,457.327,-1.560,0.998,-40.708,0.000,0.000,0.0127723,0.000,9144.000,1.338,1.857,3053.929,457.327,1086.480,23.713,-592.244,-1441.774,-40.749,0.038,0.289,-0.010,0.017,-0.000,0.000,0.000,0.000,-0.016,0.696,0.001,0.718,0.0000000,0.0000000,3080.601,0.000,0.000,0.000,0,00:00:00,-45020,0.000,3080.601,108641.914,23.716,513.412,0.000,0.293,-40.749,0.001,0.003,0.002,-0.002,0.000,0.000
61.126,2,0,-2.941,0.894,3099.261,-4.898,1.589,453.318,-1.708,0.903,-40.096,0.000,0.000,0.0128897,0.000,9144.000,1.327,1.759,3099.261,453.318,1082.508,23.400,-560.963,-1410.493,-40.141,-0.046,0.382,-0.001,-0.019,0.006,0.000,0.000,0.000,-0.016,0.695,0.001,0.719,0.0000000,0.0000000,3131.299,0.000,0.000,0.000,0,00:00:00,-45020,0.000,3131.299,108246.516,23.408,509.396,0.000,0.407,-40.054,-0.033,-0.003,-0.016,-0.005,0.000,0.000
61.227,2,0,-3.114,0.958,3144.192,-4.912,1.630,449.308,-1.783,0.910,-40.093,0.000,0.000,0.0129903,0.000,9144.000,1.316,1.867,3144.192,449.308,1082.508,23.400,-560.963,-1410.493,-40.141,-0.046,0.382,-0.001,-0.019,0.006,0.000,0.000,0.000,-0.015,0.695,0.002,0.719,0.0000000,0.0000000,3131.299,0.000,0.000,0.000,0,00:00:00,-45020,0.000,3131.299,108246.516,23.408,509.396,0.000,0.407,-40.054,-0.033,-0.003,-0.016,-0.005,0.000,0.000
61.328,2,0,-3.271,1.019,3188.728,-4.908,1.668,445.362,-1.677,0.903,-39.460,0.000,0.000,0.0131316,0.000,9144.000,1.304,1.975,3188.728,445.362,1086.023,23.679,-588.651,-1438.181,-39.504,0.013,0.350,0.012,0.014,-0.012,0.000,0.000,0.000,-0.015,0.695,0.001,0.719,0.0000000,0.0000000,3181.605,0.000,0.000,0.000,0,00:00:00,-45020,0.000,3181.605,108611.406,23.677,505.443,0.000,0.316,-39.567,-0.059,-0.005,-0.019,0.000,0.000,0.000
61.429,2,0,-3.414,1.078,3232.876,-4.919,1.707,441.478,-1.906,0.954,-38.844,0.000,0.000,0.0132474,0.000,9144.000,1.292,1.898,3232.876,441.478,1081.874,23.350,-555.958,-1405.488,-38.900,-0.017,0.482,-0.025,-0.030,-0.004,0.000,0.000,0.000,-0.016,0.694,0.002,0.720,0.0000000,0.0000000,3231.526,0.000,0.000,0.000,0,00:00:00,-45020,0.000,3231.526,108182.680,23.355,501.551,0.000,0.367,-38.968,-0.039,-0.008,0.007,0.008,0.000,0.000
61.530,2,0,-3.544,1.135,3276.635,-4.935,1.752,437.594,-2.022,1.050,-38.836,0.000,0.000,0.0133447,0.000,9144.000,1.281,2.067,3276.635,437.594,1081.874,23.350,-555.958,-1405.488,-38.900,-0.017,0.482,-0.025,-0.030,-0.004,0.000,0.000,0.000,-0.018,0.693,0.002,0.721,0.0000000,0.0000000,3231.526,0.000,0.000,0.000,0,00:00:00,-45020,0.000,3231.526,108182.680,23.355,501.551,0.000,0.367,-38.968,-0.039,-0.008,0.007,0.008,0.000,0.000
61.631,2,0,-3.662,1.190,3320.010,-4.919,1.788,433.751,-1.770,0.982,-38.433,0.000,0.000,0.0134846,0.000,9144.000,1.270,2.235,3320.010,433.751,1085.030,23.598,-580.831,-1430.361,-38.486,-0.036,0.216,0.011,-0.008,-0.008,0.000,0.000,0.000,-0.017,0.693,0.002,0.721,0.0000000,0.0000000,3281.065,0.000,0.000,0.000,0,00:00:00,-45020,0.000,3281.065,108495.156,23.601,497.718,0.000,0.322,-38.338,-0.109,0.018,0.003,0.007,0.000,0.000
61.732,2,0,-3.768,1.244,3363.008,-4.905,1.821,429.981,-1.843,0.979,-37.702,0.000,0.000,0.0136178,0.000,9144.000,1.258,2.281,3363.008,429.981,1080.692,23.256,-546.629,-1396.159,-37.758,0.056,0.381,0.018,0.017,-0.014,0.000,0.000,0.000,-0.017,0.693,0.001,0.720,0.0000000,0.0000000,3330.231,0.000,0.000,0.000,0,00:00:00,-45020,0.000,3330.231,108076.297,23.257,493.942,0.000,0.240,-37.795,0.007,0.004,-0.012,-0.003,0.000,0.000
61.833,2,0,-3.862,1.295,3405.629,-4.880,1.844,426.210,-1.779,0.908,-37.707,0.000,0.000,0.0137140,0.000,9144.000,1.248,2.184,3405.629,426.210,1080.692,23.256,-546.629,-1396.159,-37.758,0.056,0.381,0.018,0.017,-0.014,0.000,0.000,0.000,-0.017,0.694,-0.001,0.720,0.0000000,0.0000000,3330.231,0.000,0.000,0.000,0,00:00:00,-45020,0.000,3330.231,108076.297,23.257,493.942,0.000,0.240,-37.795,0.007,0.004,-0.012,-0.003,0.000,0.000
61.934,2,0,-3.945,1.343,3447.877,-4.848,1.863,422.478,-1.759,0.891,-37.324,0.000,0.000,0.0138537,0.000,9144.000,1.237,2.088,3447.877,422.478,1083.407,23.470,-568.051,-1417.581,-37.375,0.016,0.275,-0.005,-0.028,0.055,0.000,0.000,0.000,-0.015,0.693,0.002,0.721,0.0000000,0.0000000,3379.027,0.000,0.000,0.000,0,00:00:00,-45020,0.000,3379.027,108330.500,23.467,490.222,0.000,0.330,-37.095,-0.058,-0.010,0.011,-0.015,0.000,0.000
62.035,2,0,-4.017,1.388,3489.752,-4.823,1.882,418.746,-1.860,0.921,-37.319,0.000,0.000,0.0139891,0.000,9144.000,1.226,2.249,3489.752,418.746,1083.407,23.470,-568.051,-1417.581,-37.375,0.016,0.275,-0.005,-0.028,0.055,0.000,0.000,0.000,-0.014,0.692,0.004,0.722,0.0000000,0.0000000,3379.027,0.000,0.000,0.000,0,00:00:00,-45020,0.000,3379.027,108330.500,23.467,490.222,0.000,0.330,-37.095,-0.058,-0.010,0.011,-0.015,0.000,0.000
62.136,2,0,-4.081,1.431,3531.260,-4.808,1.901,415.078,-2.000,0.945,-36.678,0.000,0.000,0.0141626,0.000,9144.000,1.215,2.411,3531.260,415.078,1085.847,23.664,-587.265,-1436.795,-36.743,-0.013,0.392,-0.020,-0.013,-0.016,0.000,0.000,0.000,-0.015,0.691,0.004,0.722,0.0000000,0.0000000,3427.459,0.000,0.000,0.000,0,00:00:00,-45020,0.000,3427.459,108584.953,23.661,486.557,0.000,0.345,-36.753,-0.048,0.013,-0.005,-0.016,0.000,0.000
62.237,2,0,-4.137,1.470,3572.407,-4.794,1.890,411.470,-2.039,0.661,-36.077,0.000,0.000,0.0142981,0.000,9144.000,1.204,2.484,3572.407,411.470,1081.183,23.299,-550.510,-1400.040,-36.137,-0.167,0.471,0.031,0.003,0.001,0.000,0.000,0.000,-0.014,0.692,0.003,0.722,0.0000000,0.0000000,3475.533,0.000,0.000,0.000,0,00:00:00,-45020,0.000,3475.533,108119.883,23.297,482.945,0.000,0.355,-36.054,0.032,-0.007,-0.009,0.000,0.000,0.000
62.338,2,0,-4.187,1.504,3613.193,-4.777,1.866,407.863,-2.030,0.549,-36.079,0.000,0.000,0.0144037,0.000,9144.000,1.194,2.472,3613.193,407.863,1081.183,23.299,-550.510,-1400.040,-36.137,-0.167,0.471,0.031,0.003,0.001,0.000,0.000,0.000,-0.013,0.692,0.002,0.722,0.0000000,0.0000000,3475.533,0.000,0.000,0.000,0,00:00:00,-45020,0.000,3475.533,108119.883,23.297,482.945,0.000,0.355,-36.054,0.032,-0.007,-0.009,0.000,0.000,0.000
62.439,2,0,-4.230,1.532,3653.634,-4.761,1.834,404.412,-2.073,0.488,-34.507,0.000,0.000,0.0145536,0.000,9144.000,1.184,2.459,3653.634,404.412,1945.506,81.775,-5856.015,-6705.545,-34.569,-0.144,0.434,0.017,-0.043,0.033,0.000,0.000,0.000,-0.011,0.690,0.002,0.724,0.0000000,0.0000000,3617.654,0.000,0.000,0.000,0,00:00:00,-45020,0.000,3617.654,194552.953,81.782,472.412,0.000,0.303,-34.666,0.020,0.007,0.001,0.005,0.000,0.000
62.540,2,0,-4.267,1.555,3693.765,-4.727,1.805,401.311,-1.907,0.537,-31.004,0.000,0.000,0.0145548,0.000,9144.000,1.073,2.707,3693.765,401.311,1720.310,67.784,-4695.405,-5544.935,-31.065,0.016,0.380,0.015,-0.017,-0.009,0.000,0.000,0.000,-0.011,0.690,0.002,0.724,0.0000000,0.0000000,3982.050,0.000,0.000,0.000,0,00:00:00,-45020,0.000,3982.050,172038.250,67.788,446.341,0.000,0.341,-31.029,-0.066,0.013,-0.010,-0.003,0.000,0.000
62.641,2,0,-4.297,1.573,3733.614,-4.674,1.782,398.493,-1.738,0.596,-28.187,0.000,0.000,0.0141937,0.000,9144.000,1.086,2.806,3733.614,398.493,1527.836,55.314,-3601.428,-4450.958,-28.245,0.082,0.386,-0.015,0.013,-0.014,0.000,0.000,0.000,-0.012,0.690,0.002,0.724,0.0000000,0.0000000,4326.878,0.000,0.000,0.000,0,00:00:00,-45020,0.000,4326.878,152787.062,55.311,422.780,0.000,0.322,-28.118,-0.109,-0.019,-0.015,0.002,0.000,0.000
62.742,2,0,-4.318,1.586,3773.200,-4.604,1.733,395.858,-1.569,0.354,-26.351,0.000,0.000,0.0136083,0.000,9144.000,1.099,2.728,3773.200,395.858,510.638,-20.223,5416.616,4567.086,-26.398,-0.068,0.313,0.022,0.002,-0.007,0.000,0.000,0.000,-0.011,0.690,0.001,0.724,0.0000000,0.0000000,4573.744,0.000,0.000,0.000,0,00:00:00,-45020,0.000,4573.744,51063.152,-20.223,406.494,0.000,0.349,-26.382,0.027,0.009,-0.005,-0.013,0.000,0.000
62.843,2,0,-4.331,1.593,3812.525,-4.525,1.670,393.251,-1.496,0.209,-26.068,0.000,0.000,0.0129498,0.000,9144.000,1.244,2.716,3812.525,393.251,507.830,-20.488,5457.404,4607.874,-26.111,-0.072,0.257,0.052,0.002,-0.020,0.000,0.000,0.000,-0.010,0.690,-0.002,0.724,0.0000000,0.0000000,4613.962,0.000,0.000,0.000,0,00:00:00,-45020,0.000,4613.962,50792.484,-20.479,403.883,0.000,0.425,-26.153,-0.039,0.008,0.004,-0.011,0.000,0.000
62.944,2,0,-4.335,1.594,3851.599,-4.451,1.610,390.735,-1.556,0.245,-25.161,0.000,0.000,0.0124224,0.000,9144.000,1.236,2.711,3851.599,390.735,499.742,-21.259,5575.900,4726.370,-25.208,-0.093,0.375,-0.029,0.006,-0.027,0.000,0.000,0.000,-0.012,0.690,-0.002,0.723,0.0000000,0.0000000,4733.086,0.000,0.000,0.000,0,00:00:00,-45020,0.000,4733.086,49981.883,-21.251,396.212,0.000,0.264,-25.422,-0.048,-0.018,0.012,-0.002,0.000,0.000
63.045,2,0,-4.333,1.589,3890.421,-4.393,1.559,388.218,-1.704,0.327,-25.167,0.000,0.000,0.0119205,0.000,9144.000,1.230,2.675,3890.421,388.218,497.104,-21.512,5614.893,4765.363,-25.222,-0.049,0.474,-0.015,-0.019,0.018,0.000,0.000,0.000,-0.012,0.690,-0.001,0.724,0.0000000,0.0000000,4772.293,0.000,0.000,0.000,0,00:00:00,-45020,0.000,4772.293,49709.344,-21.513,393.708,0.000,0.329,-25.002,0.039,0.022,-0.004,-0.001,0.000,0.000
63.146,2,0,-4.325,1.581,3928.995,-4.329,1.516,385.740,-1.640,0.413,-24.781,0.000,0.000,0.0115560,0.000,9144.000,1.223,2.782,3928.995,385.740,494.474,-21.766,5653.927,4804.397,-24.835,0.078,0.405,0.014,-0.009,-0.019,0.000,0.000,0.000,-0.012,0.689,-0.002,0.724,0.0000000,0.0000000,4811.253,0.000,0.000,0.000,0,00:00:00,-45020,0.000,4811.253,49446.965,-21.766,391.229,0.000,0.361,-24.767,0.001,0.011,-0.001,-0.006,0.000,0.000
63.247,2,0,-4.312,1.569,3967.322,-4.254,1.471,383.272,-1.523,0.376,-24.683,0.000,0.000,0.0112471,0.000,9144.000,1.216,2.832,3967.322,383.272,491.910,-22.014,5692.148,4842.618,-24.730,0.090,0.353,0.018,0.024,-0.016,0.000,0.000,0.000,-0.012,0.690,-0.003,0.724,0.0000000,0.0000000,4849.968,0.000,0.000,0.000,0,00:00:00,-45020,0.000,4849.968,49191.328,-22.014,388.775,0.000,0.299,-24.542,0.019,0.001,-0.007,0.007,0.000,0.000
63.348,2,0,-4.293,1.554,4005.407,-4.166,1.425,380.853,-1.382,0.367,-24.188,0.000,0.000,0.0110192,0.000,9144.000,1.209,2.695,4005.407,380.853,489.325,-22.266,5730.847,4881.317,-24.228,0.057,0.323,-0.012,0.036,-0.002,0.000,0.000,0.000,-0.012,0.691,-0.003,0.722,0.0000000,0.0000000,4888.442,0.000,0.000,0.000,0,00:00:00,-45020,0.000,4888.442,48938.492,-22.260,386.346,0.000,0.344,-24.237,0.017,-0.001,0.009,0.012,0.000,0.000
63.449,2,0,-4.267,1.537,4043.252,-4.086,1.376,378.452,-1.458,0.316,-24.012,0.000,0.000,0.0108012,0.000,9144.000,1.202,2.486,4043.252,378.452,486.790,-22.514,5768.956,4919.426,-24.055,0.014,0.417,0.001,0.004,-0.001,0.000,0.000,0.000,-0.012,0.692,-0.003,0.722,0.0000000,0.0000000,4926.677,0.000,0.000,0.000,0,00:00:00,-45020,0.000,4926.677,48681.977,-22.511,383.940,0.000,0.324,-24.050,-0.056,0.017,0.002,-0.000,0.000,0.000
63.550,2,0,-4.237,1.516,4080.857,-4.008,1.327,376.050,-1.449,0.312,-24.013,0.000,0.000,0.0106366,0.000,9144.000,1.195,2.465,4080.857,376.050,486.790,-22.514,5768.956,4919.426,-24.055,0.014,0.417,0.001,0.004,-0.001,0.000,0.000,0.000,-0.012,0.692,-0.003,0.722,0.0000000,0.0000000,4926.677,0.000,0.000,0.000,0,00:00:00,-45020,0.000,4926.677,48681.977,-22.511,383.940,0.000,0.324,-24.050,-0.056,0.017,0.002,-0.000,0.000,0.000
63.651,2,0,-4.203,1.493,4118.227,-3.927,1.284,373.703,-1.417,0.360,-23.477,0.000,0.000,0.0105384,0.000,9144.000,1.187,2.443,4118.227,373.703,481.806,-23.004,5844.351,4994.821,-23.520,0.029,0.350,-0.017,-0.025,-0.004,0.000,0.000,0.000,-0.013,0.691,-0.002,0.723,0.0000000,0.0000000,5002.437,0.000,0.000,0.000,0,00:00:00,-45020,0.000,5002.437,48175.461,-23.009,379.199,0.000,0.309,-23.633,-0.065,0.010,-0.003,0.001,0.000,0.000
63.752,2,0,-4.164,1.469,4155.365,-3.853,1.250,371.375,-1.453,0.434,-23.277,0.000,0.000,0.0104163,0.000,9144.000,1.181,2.583,4155.365,371.375,479.342,-23.248,5881.854,5032.324,-23.323,0.005,0.397,-0.044,0.001,-0.007,0.000,0.000,0.000,-0.015,0.691,-0.001,0.723,0.0000000,0.0000000,5039.967,0.000,0.000,0.000,0,00:00:00,-45020,0.000,5039.967,47927.723,-23.255,376.862,0.000,0.396,-23.352,-0.043,-0.007,-0.020,-0.019,0.000,0.000
63.853,2,0,-4.122,1.443,4192.271,-3.765,1.191,369.056,-1.296,0.179,-23.186,0.000,0.000,0.0103232,0.000,9144.000,1.174,2.571,4192.271,369.056,476.893,-23.491,5919.288,5069.758,-23.220,-0.237,0.291,0.005,0.018,-0.015,0.000,0.000,0.000,-0.015,0.692,-0.002,0.722,0.0000000,0.0000000,5077.266,0.000,0.000,0.000,0,00:00:00,-45020,0.000,5077.266,47686.477,-23.494,374.547,0.000,0.432,-23.101,-0.017,0.006,-0.005,-0.009,0.000,0.000
63.954,2,0,-4.076,1.415,4228.948,-3.693,1.151,366.775,-1.430,0.350,-22.815,0.000,0.000,0.0102649,0.000,9144.000,1.167,2.471,4228.948,366.775,474.485,-23.732,5956.248,5106.718,-22.858,-0.048,0.445,0.003,0.004,0.003,0.000,0.000,0.000,-0.015,0.692,-0.002,0.722,0.0000000,0.0000000,5114.337,0.000,0.000,0.000,0,00:00:00,-45020,0.000,5114.337,47443.730,-23.737,372.253,0.000,0.303,-22.948,-0.021,0.013,0.009,0.005,0.000,0.000
64.055,2,0,-4.029,1.385,4265.398,-3.625,1.095,364.499,-1.447,0.173,-22.760,0.000,0.000,0.0101979,0.000,9144.000,1.161,2.450,4265.398,364.499,472.089,-23.972,5993.175,5143.645,-22.803,-0.166,0.396,0.024,-0.031,-0.027,0.000,0.000,0.000,-0.015,0.691,-0.004,0.723,0.0000000,0.0000000,5151.182,0.000,0.000,0.000,0,00:00:00,-45020,0.000,5151.182,47211.711,-23.969,369.981,0.000,0.269,-22.756,0.040,-0.005,-0.003,0.004,0.000,0.000
64.156,2,0,-3.978,1.353,4301.623,-3.538,1.051,362.247,-1.229,0.278,-22.521,0.000,0.000,0.0101684,0.000,9144.000,1.154,2.629,4301.623,362.247,469.713,-24.211,6029.955,5180.425,-22.556,-0.004,0.182,0.027,-0.001,0.011,0.000,0.000,0.000,-0.014,0.690,-0.004,0.723,0.0000000,0.0000000,5187.803,0.000,0.000,0.000,0,00:00:00,-45020,0.000,5187.803,46974.977,-24.207,367.729,0.000,0.290,-22.596,-0.032,-0.012,-0.006,-0.011,0.000,0.000
64.257,2,0,-3.926,1.320,4337.625,-3.478,1.017,360.020,-1.472,0.349,-22.266,0.000,0.000,0.0101371,0.000,9144.000,1.147,2.642,4337.625,360.020,467.414,-24.443,6065.673,5216.143,-22.313,0.087,0.393,0.005,-0.019,0.002,0.000,0.000,0.000,-0.013,0.690,-0.004,0.724,0.0000000,0.0000000,5224.202,0.000,0.000,0.000,0,00:00:00,-45020,0.000,5224.202,46738.527,-24.446,365.498,0.000,0.371,-22.311,-0.041,-0.003,-0.002,0.001,0.000,0.000
64.358,2,0,-3.873,1.288,4373.406,-3.428,0.986,357.813,-1.539,0.373,-22.074,0.000,0.000,0.0101087,0.000,9144.000,1.141,2.751,4373.406,357.813,465.062,-24.682,6102.364,5252.834,-22.127,0.086,0.370,-0.012,-0.044,-0.007,0.000,0.000,0.000,-0.014,0.688,-0.004,0.725,0.0000000,0.0000000,5260.380,0.000,0.000,0.000,0,00:00:00,-45020,0.000,5260.380,46509.863,-24.678,363.286,0.000,0.252,-22.103,-0.030,0.006,-0.001,0.008,0.000,0.000
64.459,2,0,-3.821,1.257,4408.969,-3.373,0.980,355.634,-1.463,0.601,-21.783,0.000,0.000,0.0100890,0.000,9144.000,1.134,3.002,4408.969,355.634,462.800,-24.912,6137.784,5288.254,-21.837,0.245,0.271,-0.032,-0.016,0.002,0.000,0.000,0.000,-0.015,0.688,-0.003,0.726,0.0000000,0.0000000,5296.340,0.000,0.000,0.000,0,00:00:00,-45020,0.000,5296.340,46273.973,-24.918,361.094,0.000,0.335,-21.889,-0.074,0.004,-0.010,0.007,0.000,0.000
64.560,2,0,-3.770,1.227,4444.316,-3.338,0.939,353.464,-1.645,0.242,-21.708,0.000,0.000,0.0100580,0.000,9144.000,1.128,3.087,4444.316,353.464,460.527,-25.145,6173.536,5324.006,-21.766,-0.111,0.490,-0.003,0.011,-0.005,0.000,0.000,0.000,-0.016,0.688,-0.003,0.726,0.0000000,0.0000000,5332.084,0.000,0.000,0.000,0,00:00:00,-45020,0.000,5332.084,46052.570,-25.145,358.921,0.000,0.201,-21.778,0.005,-0.016,-0.005,-0.009,0.000,0.000
64.661,2,0,-3.720,1.197,4479.447,-3.312,0.920,351.317,-1.690,0.440,-21.469,0.000,0.000,0.0100547,0.000,9144.000,1.122,3.025,4479.447,351.317,458.304,-25.373,6208.631,5359.101,-21.534,0.067,0.495,-0.008,-0.023,0.038,0.000,0.000,0.000,-0.015,0.687,-0.001,0.726,0.0000000,0.0000000,5367.613,0.000,0.000,0.000,0,00:00:00,-45020,0.000,5367.613,45826.730,-25.377,356.767,0.000,0.308,-21.508,-0.004,0.001,0.010,0.005,0.000,0.000
64.762,2,0,-3.672,1.168,4514.365,-3.275,0.898,349.180,-1.566,0.399,-21.370,0.000,0.000,0.0100461,0.000,9144.000,1.115,3.155,4514.365,349.180,456.077,-25.603,6243.922,5394.392,-21.428,-0.025,0.354,-0.021,-0.012,0.027,0.000,0.000,0.000,-0.014,0.687,0.000,0.727,0.0000000,0.0000000,5402.930,0.000,0.000,0.000,0,00:00:00,-45020,0.000,5402.930,45602.398,-25.608,354.631,0.000,0.306,-21.426,0.097,-0.008,-0.003,-0.006,0.000,0.000
64.863,2,0,-3.625,1.140,4549.073,-3.233,0.882,347.074,-1.491,0.444,-21.059,0.000,0.000,0.0100514,0.000,9144.000,1.109,3.223,4549.073,347.074,453.859,-25.832,6279.214,5429.684,-21.115,-0.003,0.266,-0.013,-0.014,0.008,0.000,0.000,0.000,-0.015,0.686,0.001,0.727,0.0000000,0.0000000,5438.036,0.000,0.000,0.000,0,00:00:00,-45020,0.000,5438.036,45384.035,-25.834,352.513,0.000,0.397,-21.137,0.011,-0.000,0.002,0.006,0.000,0.000
64.964,2,0,-3.579,1.113,4583.572,-3.188,0.872,344.990,-1.444,0.479,-20.840,0.000,0.000,0.0100322,0.000,9144.000,1.103,3.302,4583.572,344.990,451.693,-26.057,6313.818,5464.288,-20.893,-0.016,0.297,-0.026,0.031,-0.016,0.000,0.000,0.000,-0.016,0.687,0.001,0.726,0.0000000,0.0000000,5472.932,0.000,0.000,0.000,0,00:00:00,-45020,0.000,5472.932,45163.621,-26.063,350.413,0.000,0.428,-20.923,-0.019,-0.004,-0.012,0.006,0.000,0.000
65.065,2,0,-3.533,1.087,4617.863,-3.142,0.854,342.910,-1.395,0.400,-20.797,0.000,0.000,0.0100089,0.000,9144.000,1.097,3.119,4617.863,342.910,449.493,-26.286,6349.103,5499.573,-20.847,-0.082,0.170,0.007,-0.040,0.012,0.000,0.000,0.000,-0.015,0.686,0.002,0.727,0.0000000,0.0000000,5507.621,0.000,0.000,0.000,0,00:00:00,-45020,0.000,5507.621,44954.305,-26.281,348.330,0.000,0.354,-20.802,-0.065,0.002,0.011,0.016,0.000,0.000
65.166,2,0,-3.488,1.063,4651.949,-3.121,0.845,340.867,-1.629,0.470,-20.433,0.000,0.000,0.0100125,0.000,9144.000,1.091,3.347,4651.949,340.867,447.375,-26.508,6383.204,5533.674,-20.500,-0.009,0.400,-0.003,-0.012,0.014,0.000,0.000,0.000,-0.015,0.686,0.002,0.728,0.0000000,0.0000000,5542.104,0.000,0.000,0.000,0,00:00:00,-45020,0.000,5542.104,44740.523,-26.505,346.264,0.000,0.383,-20.686,0.010,-0.004,-0.000,-0.004,0.000,0.000
65.267,2,0,-3.445,1.041,4685.831,-3.103,0.853,338.816,-1.631,0.620,-20.505,0.000,0.000,0.0099871,0.000,9144.000,1.085,3.414,4685.831,338.816,445.265,-26.730,6417.303,5567.773,-20.576,0.145,0.357,0.001,-0.018,-0.023,0.000,0.000,0.000,-0.016,0.685,0.001,0.728,0.0000000,0.0000000,5576.383,0.000,0.000,0.000,0,00:00:00,-45020,0.000,5576.383,44531.410,-26.725,344.214,0.000,0.266,-20.468,0.036,0.007,0.003,0.009,0.000,0.000
65.368,2,0,-3.405,1.021,4719.508,-3.077,0.834,336.775,-1.536,0.356,-20.417,0.000,0.000,0.0100129,0.000,9144.000,1.079,3.516,4719.508,336.775,443.189,-26.949,6450.984,5601.454,-20.476,-0.067,0.291,0.027,0.009,0.018,0.000,0.000,0.000,-0.014,0.685,0.001,0.728,0.0000000,0.0000000,5610.459,0.000,0.000,0.000,0,00:00:00,-45020,0.000,5610.459,44317.516,-26.950,342.181,0.000,0.266,-20.294,-0.010,-0.002,0.009,0.005,0.000,0.000
65.469,2,0,-3.366,1.001,4752.986,-3.061,0.824,334.773,-1.613,0.424,-20.011,0.000,0.000,0.0100441,0.000,9144.000,1.073,3.470,4752.986,334.773,441.102,-27.170,6484.975,5635.445,-20.077,0.053,0.397,0.022,0.003,0.023,0.000,0.000,0.000,-0.013,0.685,0.001,0.728,0.0000000,0.0000000,5644.334,0.000,0.000,0.000,0,00:00:00,-45020,0.000,5644.334,44110.867,-27.169,340.165,0.000,0.395,-20.213,-0.020,-0.015,-0.003,0.003,0.000,0.000
65.570,2,0,-3.329,0.981,4786.261,-3.042,0.807,332.757,-1.557,0.345,-20.166,0.000,0.000,0.0100263,0.000,9144.000,1.067,3.455,4786.261,332.757,439.062,-27.387,6518.322,5668.792,-20.225,-0.071,0.373,-0.020,0.020,0.009,0.000,0.000,0.000,-0.013,0.686,0.002,0.727,0.0000000,0.0000000,5678.011,0.000,0.000,0.000,0,00:00:00,-45020,0.000,5678.011,43914.672,-27.378,338.163,0.000,0.282,-19.988,-0.046,0.007,0.002,0.006,0.000,0.000
65.671,2,0,-3.296,0.963,4819.340,-3.052,0.808,330.787,-1.832,0.520,-19.694,0.000,0.000,0.0100712,0.000,9144.000,1.061,3.340,4819.340,330.787,437.006,-27.606,6552.043,5702.513,-19.774,0.082,0.680,-0.017,0.003,0.018,0.000,0.000,0.000,-0.013,0.686,0.003,0.727,0.0000000,0.0000000,5711.489,0.000,0.000,0.000,0,00:00:00,-45020,0.000,5711.489,43698.398,-27.609,336.178,0.000,0.427,-19.873,-0.048,0.017,-0.000,-0.007,0.000,0.000
65.772,2,0,-3.265,0.946,4852.222,-3.040,0.801,328.813,-1.607,0.431,-19.744,0.000,0.000,0.0100569,0.000,9144.000,1.055,3.322,4852.222,328.813,434.993,-27.822,6585.207,5735.677,-19.810,-0.044,0.424,-0.015,-0.016,0.019,0.000,0.000,0.000,-0.013,0.686,0.005,0.728,0.0000000,0.0000000,5744.771,0.000,0.000,0.000,0,00:00:00,-45020,0.000,5744.771,43500.523,-27.820,334.207,0.000,0.332,-19.726,0.058,0.005,-0.000,0.029,0.000,0.000
65.873,2,0,-3.237,0.931,4884.905,-3.034,0.799,326.839,-1.637,0.464,-19.741,0.000,0.000,0.0100783,0.000,9144.000,1.049,3.410,4884.905,326.839,434.993,-27.822,6585.207,5735.677,-19.810,-0.044,0.424,-0.015,-0.016,0.019,0.000,0.000,0.000,-0.013,0.685,0.006,0.728,0.0000000,0.0000000,5744.771,0.000,0.000,0.000,0,00:00:00,-45020,0.000,5744.771,43500.523,-27.820,334.207,0.000,0.332,-19.726,0.058,0.005,-0.000,0.029,0.000,0.000
65.974,2,0,-3.210,0.916,4917.397,-3.024,0.784,324.914,-1.588,0.331,-19.246,0.000,0.000,0.0101279,0.000,9144.000,1.043,3.499,4917.397,324.914,431.028,-28.249,6650.881,5801.351,-19.310,-0.154,0.386,0.007,-0.011,0.023,0.000,0.000,0.000,-0.012,0.685,0.006,0.729,0.0000000,0.0000000,5810.751,0.000,0.000,0.000,0,00:00:00,-45020,0.000,5810.751,43101.035,-28.251,330.311,0.000,0.312,-19.531,-0.062,0.005,-0.011,-0.004,0.000,0.000
66.075,2,0,-3.185,0.902,4949.695,-3.018,0.784,322.986,-1.620,0.481,-19.285,0.000,0.000,0.0100952,0.000,9144.000,1.038,3.564,4949.695,322.986,429.084,-28.459,6683.256,5833.726,-19.354,0.013,0.441,0.008,0.014,-0.007,0.000,0.000,0.000,-0.012,0.685,0.006,0.728,0.0000000,0.0000000,5843.453,0.000,0.000,0.000,0,00:00:00,-45020,0.000,5843.453,42911.773,-28.456,328.384,0.000,0.339,-19.243,0.003,0.005,0.004,-0.020,0.000,0.000
66.176,2,0,-3.162,0.889,4981.804,-3.010,0.781,321.081,-1.577,0.436,-19.049,0.000,0.000,0.0101104,0.000,9144.000,1.032,3.483,4981.804,321.081,427.133,-28.671,6715.861,5866.331,-19.115,-0.033,0.380,-0.006,-0.016,-0.034,0.000,0.000,0.000,-0.013,0.685,0.005,0.729,0.0000000,0.0000000,5875.963,0.000,0.000,0.000,0,00:00:00,-45020,0.000,5875.963,42709.281,-28.676,326.472,0.000,0.375,-19.151,-0.008,0.010,-0.001,-0.002,0.000,0.000
66.277,2,0,-3.140,0.877,5013.724,-2.995,0.788,319.209,-1.510,0.531,-18.722,0.000,0.000,0.0101021,0.000,9144.000,1.026,3.575,5013.724,319.209,425.208,-28.882,6748.168,5898.638,-18.788,0.060,0.292,-0.004,-0.022,0.006,0.000,0.000,0.000,-0.013,0.684,0.005,0.730,0.0000000,0.0000000,5908.285,0.000,0.000,0.000,0,00:00:00,-45020,0.000,5908.285,42517.133,-28.885,324.573,0.000,0.344,-18.994,0.005,0.007,-0.007,0.005,0.000,0.000
66.378,2,0,-3.119,0.866,5045.456,-2.989,0.776,317.317,-1.573,0.337,-18.915,0.000,0.000,0.0100548,0.000,9144.000,1.021,3.701,5045.456,317.317,423.325,-29.088,6779.871,5930.341,-18.980,-0.114,0.297,0.013,-0.025,0.005,0.000,0.000,0.000,-0.012,0.683,0.005,0.730,0.0000000,0.0000000,5940.419,0.000,0.000,0.000,0,00:00:00,-45020,0.000,5940.419,42328.715,-29.092,322.688,0.000,0.475,-18.829,-0.027,-0.001,-0.000,0.001,0.000,0.000
66.479,2,0,-3.099,0.856,5077.002,-2.965,0.780,315.462,-1.391,0.489,-18.556,0.000,0.000,0.0100896,0.000,9144.000,1.015,3.845,5077.002,315.462,421.397,-29.300,6812.456,5962.926,-18.614,0.076,0.121,0.016,-0.008,-0.024,0.000,0.000,0.000,-0.012,0.683,0.004,0.731,0.0000000,0.0000000,5972.366,0.000,0.000,0.000,0,00:00:00,-45020,0.000,5972.366,42144.418,-29.294,320.816,0.000,0.288,-18.771,-0.004,-0.004,-0.011,0.001,0.000,0.000
66.580,2,0,-3.079,0.847,5108.362,-2.967,0.778,313.593,-1.644,0.426,-18.686,0.000,0.000,0.0100641,0.000,9144.000,1.010,3.894,5108.362,313.593,419.543,-29.504,6843.900,5994.369,-18.760,-0.070,0.368,-0.045,0.001,-0.003,0.000,0.000,0.000,-0.014,0.683,0.005,0.731,0.0000000,0.0000000,6004.128,0.000,0.000,0.000,0,00:00:00,-45020,0.000,6004.128,41957.527,-29.500,318.957,0.000,0.370,-18.563,-0.004,-0.009,0.003,-0.001,0.000,0.000
66.681,2,0,-3.062,0.839,5139.538,-2.971,0.781,311.767,-1.646,0.469,-18.260,0.000,0.000,0.0101127,0.000,9144.000,1.004,3.885,5139.538,311.767,417.679,-29.710,6875.622,6026.092,-18.334,0.022,0.451,0.018,0.029,-0.016,0.000,0.000,0.000,-0.014,0.684,0.004,0.730,0.0000000,0.0000000,6035.706,0.000,0.000,0.000,0,00:00:00,-45020,0.000,6035.706,41769.543,-29.709,317.112,0.000,0.274,-18.441,0.078,-0.003,-0.004,-0.008,0.000,0.000
66.782,2,0,-3.047,0.832,5170.531,-2.971,0.784,309.930,-1.604,0.463,-18.366,0.000,0.000,0.0100865,0.000,9144.000,0.999,3.718,5170.531,309.930,415.862,-29.912,6906.668,6057.138,-18.438,-0.010,0.381,-0.009,-0.012,0.030,0.000,0.000,0.000,-0.013,0.683,0.005,0.730,0.0000000,0.0000000,6067.101,0.000,0.000,0.000,0,00:00:00,-45020,0.000,6067.101,41583.484,-29.915,315.278,0.000,0.317,-18.433,0.038,-0.015,0.001,-0.010,0.000,0.000
66.883,2,0,-3.032,0.826,5201.343,-2.965,0.789,308.121,-1.540,0.483,-18.093,0.000,0.000,0.0101187,0.000,9144.000,0.993,3.788,5201.343,308.121,414.053,-30.114,6937.684,6088.154,-18.162,-0.034,0.323,-0.029,-0.007,-0.018,0.000,0.000,0.000,-0.015,0.683,0.006,0.730,0.0000000,0.0000000,6098.314,0.000,0.000,0.000,0,00:00:00,-45020,0.000,6098.314,41400.953,-30.119,313.458,0.000,0.290,-18.176,-0.014,-0.000,-0.005,-0.016,0.000,0.000
66.984,2,0,-3.019,0.821,5231.976,-2.973,0.811,306.322,-1.664,0.651,-17.991,0.000,0.000,0.0101090,0.000,9144.000,0.988,3.824,5231.976,306.322,412.245,-30.316,6968.779,6119.249,-18.075,0.148,0.379,0.003,-0.039,-0.034,0.000,0.000,0.000,-0.016,0.682,0.004,0.732,0.0000000,0.0000000,6129.347,0.000,0.000,0.000,0,00:00:00,-45020,0.000,6129.347,41220.172,-30.321,311.649,0.000,0.255,-18.096,0.076,0.007,0.012,0.004,0.000,0.000
67.085,2,0,-3.007,0.819,5262.431,-2.954,0.814,304.550,-1.398,0.462,-17.720,0.000,0.000,0.0101161,0.000,9144.000,0.982,4.047,5262.431,304.550,410.475,-30.515,6999.352,6149.822,-17.781,-0.042,0.139,-0.003,0.002,0.001,0.000,0.000,0.000,-0.016,0.682,0.004,0.732,0.0000000,0.0000000,6160.202,0.000,0.000,0.000,0,00:00:00,-45020,0.000,6160.202,41043.309,-30.520,309.856,0.000,0.355,-18.003,-0.015,0.005,-0.005,0.004,0.000,0.000
67.186,2,0,-2.995,0.817,5292.708,-2.948,0.838,302.776,-1.511,0.666,-17.738,0.000,0.000,0.0100716,0.000,9144.000,0.977,4.037,5292.708,302.776,408.689,-30.716,7030.282,6180.752,-17.812,0.128,0.261,-0.019,0.008,0.006,0.000,0.000,0.000,-0.017,0.682,0.005,0.731,0.0000000,0.0000000,6190.879,0.000,0.000,0.000,0,00:00:00,-45020,0.000,6190.879,40870.762,-30.714,308.079,0.000,0.294,-17.732,-0.034,-0.007,-0.020,-0.004,0.000,0.000
67.287,2,0,-2.983,0.819,5322.808,-2.941,0.865,301.002,-1.497,0.700,-17.737,0.000,0.000,0.0100788,0.000,9144.000,0.972,3.991,5322.808,301.002,408.689,-30.716,7030.282,6180.752,-17.812,0.128,0.261,-0.019,0.008,0.006,0.000,0.000,0.000,-0.017,0.682,0.006,0.731,0.0000000,0.0000000,6190.879,0.000,0.000,0.000,0,00:00:00,-45020,0.000,6190.879,40870.762,-30.714,308.079,0.000,0.294,-17.732,-0.034,-0.007,-0.020,-0.004,0.000,0.000
67.388,2,0,-2.972,0.822,5352.731,-2.933,0.895,299.229,-1.483,0.735,-17.737,0.000,0.000,0.0101152,0.000,9144.000,0.966,3.945,5352.731,299.229,408.689,-30.716,7030.282,6180.752,-17.812,0.128,0.261,-0.019,0.008,0.006,0.000,0.000,0.000,-0.018,0.682,0.007,0.731,0.0000000,0.0000000,6190.879,0.000,0.000,0.000,0,00:00:00,-45020,0.000,6190.879,40870.762,-30.714,308.079,0.000,0.294,-17.732,-0.034,-0.007,-0.020,-0.004,0.000,0.000
67.489,2,0,-2.961,0.828,5382.482,-2.924,0.915,297.510,-1.468,0.627,-17.189,0.000,0.000,0.0101755,0.000,9144.000,0.960,3.898,5382.482,297.510,403.499,-31.305,7120.835,6271.305,-17.261,0.057,0.246,0.009,-0.022,-0.020,0.000,0.000,0.000,-0.018,0.682,0.006,0.731,0.0000000,0.0000000,6281.864,0.000,0.000,0.000,0,00:00:00,-45020,0.000,6281.864,40353.059,-31.301,302.833,0.000,0.312,-17.305,0.045,0.006,0.004,0.000,0.000,0.000
67.590,2,0,-2.951,0.834,5412.062,-2.918,0.912,295.798,-1.497,0.410,-17.113,0.000,0.000,0.0101115,0.000,9144.000,0.956,4.026,5412.062,295.798,401.803,-31.499,7150.623,6301.093,-17.181,-0.112,0.294,0.024,0.007,-0.015,0.000,0.000,0.000,-0.018,0.682,0.004,0.731,0.0000000,0.0000000,6311.847,0.000,0.000,0.000,0,00:00:00,-45020,0.000,6311.847,40175.988,-31.504,301.112,0.000,0.349,-17.286,-0.049,0.007,-0.006,-0.002,0.000,0.000
67.691,2,0,-2.941,0.840,5441.472,-2.918,0.924,294.096,-1.545,0.560,-17.027,0.000,0.000,0.0100676,0.000,9144.000,0.951,3.989,5441.472,294.096,400.106,-31.693,7180.535,6331.005,-17.104,0.024,0.320,-0.011,-0.014,-0.018,0.000,0.000,0.000,-0.019,0.681,0.004,0.732,0.0000000,0.0000000,6341.660,0.000,0.000,0.000,0,00:00:00,-45020,0.000,6341.660,40007.043,-31.697,299.405,0.000,0.432,-17.107,0.037,-0.001,-0.010,0.003,0.000,0.000
67.792,2,0,-2.932,0.847,5470.711,-2.919,0.951,292.395,-1.548,0.715,-17.012,0.000,0.000,0.0100447,0.000,9144.000,0.946,4.071,5470.711,292.395,398.439,-31.885,7210.032,6360.502,-17.094,0.216,0.286,0.022,-0.020,0.002,0.000,0.000,0.000,-0.018,0.681,0.004,0.732,0.0000000,0.0000000,6371.304,0.000,0.000,0.000,0,00:00:00,-45020,0.000,6371.304,39844.762,-31.884,297.712,0.000,0.384,-16.922,0.078,0.003,0.013,0.016,0.000,0.000
67.893,2,0,-2.925,0.855,5499.784,-2.940,0.972,290.725,-1.755,0.655,-16.699,0.000,0.000,0.0100557,0.000,9144.000,0.941,4.188,5499.784,290.725,396.772,-32.077,7239.616,6390.086,-16.795,0.151,0.511,-0.013,-0.003,-0.023,0.000,0.000,0.000,-0.019,0.680,0.003,0.733,0.0000000,0.0000000,6400.781,0.000,0.000,0.000,0,00:00:00,-45020,0.000,6400.781,39679.316,-32.075,296.031,0.000,0.405,-16.786,-0.006,0.012,0.002,0.027,0.000,0.000
67.994,2,0,-2.919,0.864,5528.689,-2.944,0.986,289.049,-1.574,0.596,-16.756,0.000,0.000,0.0100216,0.000,9144.000,0.936,4.200,5528.689,289.049,395.136,-32.267,7268.746,6419.216,-16.838,0.085,0.293,0.002,-0.022,0.028,0.000,0.000,0.000,-0.018,0.680,0.004,0.733,0.0000000,0.0000000,6430.092,0.000,0.000,0.000,0,00:00:00,-45020,0.000,6430.092,39519.270,-32.260,294.363,0.000,0.306,-16.658,-0.039,0.005,0.002,0.015,0.000,0.000
68.095,2,0,-2.915,0.874,5557.432,-2.939,0.988,287.434,-1.482,0.479,-16.150,0.000,0.000,0.0100261,0.000,9144.000,0.931,4.324,5557.432,287.434,393.499,-32.457,7297.984,6448.454,-16.223,-0.004,0.268,0.005,0.011,-0.015,0.000,0.000,0.000,-0.018,0.680,0.003,0.733,0.0000000,0.0000000,6459.237,0.000,0.000,0.000,0,00:00:00,-45020,0.000,6459.237,39350.973,-32.456,292.707,0.000,0.339,-16.517,0.092,0.008,-0.002,0.010,0.000,0.000
68.196,2,0,-2.910,0.882,5586.012,-2.940,0.979,285.801,-1.537,0.370,-16.328,0.000,0.000,0.0098823,0.000,9144.000,0.926,4.259,5586.012,285.801,391.879,-32.646,7327.038,6477.508,-16.401,-0.098,0.278,0.015,-0.021,0.025,0.000,0.000,0.000,-0.017,0.679,0.004,0.734,0.0000000,0.0000000,6488.219,0.000,0.000,0.000,0,00:00:00,-45020,0.000,6488.219,39191.047,-32.642,291.063,0.000,0.283,-16.471,0.021,0.004,0.026,0.002,0.000,0.000
68.297,2,0,-2.906,0.888,5614.429,-2.944,0.967,284.169,-1.571,0.350,-16.325,0.000,0.000,0.0098461,0.000,9144.000,0.921,4.381,5614.429,284.169,391.879,-32.646,7327.038,6477.508,-16.401,-0.098,0.278,0.015,-0.021,0.025,0.000,0.000,0.000,-0.016,0.679,0.004,0.734,0.0000000,0.0000000,6488.219,0.000,0.000,0.000,0,00:00:00,-45020,0.000,6488.219,39191.047,-32.642,291.063,0.000,0.283,-16.471,0.021,0.004,0.026,0.002,0.000,0.000
68.398,2,0,-2.903,0.892,5642.683,-2.952,0.953,282.537,-1.604,0.330,-16.322,0.000,0.000,0.0098468,0.000,9144.000,0.916,4.503,5642.683,282.537,391.879,-32.646,7327.038,6477.508,-16.401,-0.098,0.278,0.015,-0.021,0.025,0.000,0.000,0.000,-0.014,0.678,0.005,0.735,0.0000000,0.0000000,6488.219,0.000,0.000,0.000,0,00:00:00,-45020,0.000,6488.219,39191.047,-32.642,291.063,0.000,0.283,-16.471,0.021,0.004,0.026,0.002,0.000,0.000
68.499,2,0,-2.901,0.895,5670.774,-2.951,0.932,280.916,-1.513,0.265,-16.202,0.000,0.000,0.0098776,0.000,9144.000,0.911,4.625,5670.774,280.916,387.137,-33.202,7412.608,6563.077,-16.274,-0.080,0.155,0.052,-0.025,0.013,0.000,0.000,0.000,-0.012,0.677,0.003,0.736,0.0000000,0.0000000,6574.191,0.000,0.000,0.000,0,00:00:00,-45020,0.000,6574.191,38718.207,-33.197,286.201,0.000,0.378,-16.039,-0.093,-0.004,-0.009,0.017,0.000,0.000
68.600,2,0,-2.899,0.896,5698.708,-2.961,0.922,279.334,-1.628,0.369,-15.823,0.000,0.000,0.0098890,0.000,9144.000,0.906,4.774,5698.708,279.334,385.586,-33.385,7440.773,6591.243,-15.908,0.031,0.328,0.000,0.016,0.025,0.000,0.000,0.000,-0.011,0.678,0.004,0.735,0.0000000,0.0000000,6602.529,0.000,0.000,0.000,0,00:00:00,-45020,0.000,6602.529,38560.957,-33.383,284.603,0.000,0.444,-16.019,0.029,0.021,-0.013,0.008,0.000,0.000
68.701,2,0,-2.899,0.895,5726.482,-2.992,0.889,277.746,-1.827,0.147,-15.884,0.000,0.000,0.0098248,0.000,9144.000,0.902,4.681,5726.482,277.746,384.036,-33.569,7469.015,6619.485,-15.981,-0.194,0.497,-0.005,-0.017,-0.026,0.000,0.000,0.000,-0.012,0.677,0.004,0.736,0.0000000,0.0000000,6630.708,0.000,0.000,0.000,0,00:00:00,-45020,0.000,6630.708,38409.906,-33.562,283.016,0.000,0.293,-15.897,-0.050,0.014,0.011,0.005,0.000,0.000
68.802,2,0,-2.901,0.891,5754.101,-2.996,0.875,276.185,-1.566,0.332,-15.605,0.000,0.000,0.0098337,0.000,9144.000,0.897,4.775,5754.101,276.185,382.518,-33.750,7496.771,6647.241,-15.685,0.006,0.238,0.011,-0.013,0.029,0.000,0.000,0.000,-0.011,0.676,0.004,0.736,0.0000000,0.0000000,6658.729,0.000,0.000,0.000,0,00:00:00,-45020,0.000,6658.729,38255.754,-33.745,281.440,0.000,0.277,-15.841,0.038,-0.002,-0.006,0.019,0.000,0.000
68.903,2,0,-2.904,0.887,5781.566,-3.011,0.865,274.649,-1.683,0.362,-15.363,0.000,0.000,0.0097642,0.000,9144.000,0.892,4.849,5781.566,274.649,381.001,-33.930,7524.588,6675.058,-15.454,0.013,0.386,-0.018,0.007,0.001,0.000,0.000,0.000,-0.011,0.677,0.005,0.736,0.0000000,0.0000000,6686.595,0.000,0.000,0.000,0,00:00:00,-45020,0.000,6686.595,38101.066,-33.929,279.874,0.000,0.449,-15.673,0.011,-0.016,-0.005,-0.001,0.000,0.000
69.004,2,0,-2.908,0.883,5808.876,-3.026,0.852,273.102,-1.674,0.337,-15.468,0.000,0.000,0.0096722,0.000,9144.000,0.887,4.807,5808.876,273.102,379.503,-34.110,7552.149,6702.619,-15.556,-0.006,0.406,0.006,0.024,0.014,0.000,0.000,0.000,-0.011,0.678,0.005,0.735,0.0000000,0.0000000,6714.306,0.000,0.000,0.000,0,00:00:00,-45020,0.000,6714.306,37949.062,-34.111,278.318,0.000,0.317,-15.629,-0.006,-0.003,-0.008,0.002,0.000,0.000
69.105,2,0,-2.912,0.877,5836.030,-3.030,0.838,271.541,-1.571,0.324,-15.613,0.000,0.000,0.0096566,0.000,9144.000,0.883,4.668,5836.030,271.541,378.033,-34.286,7579.287,6729.757,-15.693,-0.061,0.261,-0.026,-0.020,-0.016,0.000,0.000,0.000,-0.012,0.677,0.006,0.736,0.0000000,0.0000000,6741.862,0.000,0.000,0.000,0,00:00:00,-45020,0.000,6741.862,37799.895,-34.290,276.772,0.000,0.262,-15.459,-0.004,0.011,0.006,0.009,0.000,0.000
69.206,2,0,-2.917,0.871,5863.029,-3.056,0.837,269.987,-1.788,0.448,-15.536,0.000,0.000,0.0097086,0.000,9144.000,0.878,4.779,5863.029,269.987,376.560,-34.464,7606.572,6757.041,-15.638,0.109,0.462,0.025,-0.013,-0.028,0.000,0.000,0.000,-0.012,0.676,0.004,0.736,0.0000000,0.0000000,6769.265,0.000,0.000,0.000,0,00:00:00,-45020,0.000,6769.265,37652.867,-34.467,275.236,0.000,0.268,-15.314,0.071,0.006,-0.008,0.002,0.000,0.000
69.307,2,0,-2.923,0.865,5889.874,-3.051,0.815,268.456,-1.489,0.240,-15.314,0.000,0.000,0.0097774,0.000,9144.000,0.873,4.854,5889.874,268.456,375.070,-34.643,7634.236,6784.706,-15.387,-0.124,0.178,-0.019,-0.004,-0.011,0.000,0.000,0.000,-0.013,0.676,0.004,0.737,0.0000000,0.0000000,6796.516,0.000,0.000,0.000,0,00:00:00,-45020,0.000,6796.516,37502.922,-34.648,273.710,0.000,0.381,-15.337,0.023,0.002,-0.029,0.011,0.000,0.000
69.408,2,0,-2.928,0.858,5916.570,-3.065,0.804,266.961,-1.677,0.341,-14.944,0.000,0.000,0.0097569,0.000,9144.000,0.869,4.878,5916.570,266.961,373.628,-34.818,7661.106,6811.576,-15.036,0.005,0.416,0.010,0.014,-0.009,0.000,0.000,0.000,-0.013,0.677,0.003,0.736,0.0000000,0.0000000,6823.615,0.000,0.000,0.000,0,00:00:00,-45020,0.000,6823.615,37365.996,-34.814,272.193,0.000,0.438,-15.126,0.039,-0.010,-0.011,-0.008,0.000,0.000
69.509,2,0,-2.933,0.851,5943.116,-3.058,0.802,265.456,-1.475,0.423,-15.054,0.000,0.000,0.0096665,0.000,9144.000,0.864,4.799,5943.116,265.456,372.178,-34.994,7688.214,6838.684,-15.130,0.075,0.213,-0.003,0.005,0.017,0.000,0.000,0.000,-0.013,0.677,0.004,0.736,0.0000000,0.0000000,6850.563,0.000,0.000,0.000,0,00:00:00,-45020,0.000,6850.563,37220.555,-34.991,270.685,0.000,0.296,-15.026,0.009,0.013,0.006,-0.003,0.000,0.000
69.610,2,0,-2.937,0.843,5969.512,-3.042,0.779,263.958,-1.383,0.219,-14.982,0.000,0.000,0.0096389,0.000,9144.000,0.860,4.769,5969.512,263.958,370.772,-35.166,7714.583,6865.053,-15.046,-0.119,0.153,0.006,0.016,-0.008,0.000,0.000,0.000,-0.013,0.678,0.004,0.735,0.0000000,0.0000000,6877.363,0.000,0.000,0.000,0,00:00:00,-45020,0.000,6877.363,37076.559,-35.167,269.186,0.000,0.362,-15.020,-0.052,-0.003,0.013,0.007,0.000,0.000
69.711,2,0,-2.939,0.835,5995.758,-3.027,0.759,262.466,-1.404,0.244,-14.920,0.000,0.000,0.0096068,0.000,9144.000,0.855,4.679,5995.758,262.466,369.358,-35.339,7741.186,6891.656,-14.985,-0.095,0.245,-0.001,0.044,0.020,0.000,0.000,0.000,-0.012,0.679,0.004,0.734,0.0000000,0.0000000,6904.013,0.000,0.000,0.000,0,00:00:00,-45020,0.000,6904.013,36932.891,-35.342,267.696,0.000,0.324,-14.852,0.019,-0.014,0.012,0.005,0.000,0.000
69.812,2,0,-2.941,0.825,6021.857,-3.039,0.731,260.987,-1.664,0.154,-14.785,0.000,0.000,0.0095893,0.000,9144.000,0.851,4.425,6021.857,260.987,367.948,-35.512,7767.792,6918.262,-14.870,-0.167,0.494,0.010,-0.015,0.009,0.000,0.000,0.000,-0.012,0.679,0.004,0.734,0.0000000,0.0000000,6930.516,0.000,0.000,0.000,0,00:00:00,-45020,0.000,6930.516,36793.180,-35.514,266.215,0.000,0.230,-14.822,0.006,0.003,-0.000,0.003,0.000,0.000
69.913,2,0,-2.942,0.813,6047.809,-3.017,0.712,259.522,-1.329,0.236,-14.656,0.000,0.000,0.0095817,0.000,9144.000,0.846,4.510,6047.809,259.522,366.550,-35.684,7794.240,6944.710,-14.716,-0.098,0.175,-0.008,0.003,0.013,0.000,0.000,0.000,-0.011,0.679,0.005,0.734,0.0000000,0.0000000,6956.872,0.000,0.000,0.000,0,00:00:00,-45020,0.000,6956.872,36656.703,-35.682,264.742,0.000,0.358,-14.781,-0.034,0.008,-0.000,0.004,0.000,0.000
70.014,2,0,-2.941,0.802,6073.615,-3.004,0.703,258.060,-1.417,0.338,-14.620,0.000,0.000,0.0095225,0.000,9144.000,0.842,4.493,6073.615,258.060,365.191,-35.852,7820.045,6970.515,-14.689,-0.007,0.279,-0.010,0.010,-0.025,0.000,0.000,0.000,-0.013,0.679,0.004,0.734,0.0000000,0.0000000,6983.082,0.000,0.000,0.000,0,00:00:00,-45020,0.000,6983.082,36521.375,-35.849,263.278,0.000,0.379,-14.687,0.026,0.004,-0.010,0.006,0.000,0.000
70.115,2,0,-2.940,0.790,6099.278,-2.987,0.677,256.627,-1.376,0.160,-14.326,0.000,0.000,0.0094998,0.000,9144.000,0.837,4.433,6099.278,256.627,363.821,-36.021,7846.120,6996.590,-14.389,-0.188,0.268,-0.008,0.004,-0.008,0.000,0.000,0.000,-0.013,0.679,0.004,0.734,0.0000000,0.0000000,7009.146,0.000,0.000,0.000,0,00:00:00,-45020,0.000,7009.146,36381.699,-36.022,261.822,0.000,0.277,-14.544,-0.000,-0.000,-0.003,-0.008,0.000,0.000
70.216,2,0,-2.936,0.777,6124.796,-2.968,0.662,255.184,-1.354,0.257,-14.433,0.000,0.000,0.0093937,0.000,9144.000,0.833,4.412,6124.796,255.184,362.449,-36.192,7872.327,7022.797,-14.496,-0.079,0.275,0.009,0.026,-0.004,0.000,0.000,0.000,-0.013,0.680,0.004,0.733,0.0000000,0.0000000,7035.065,0.000,0.000,0.000,0,00:00:00,-45020,0.000,7035.065,36250.875,-36.184,260.374,0.000,0.356,-14.586,-0.026,0.030,0.003,0.002,0.000,0.000
70.317,2,0,-2.932,0.765,6150.172,-2.960,0.666,253.757,-1.466,0.444,-14.265,0.000,0.000,0.0093730,0.000,9144.000,0.829,4.261,6150.172,253.757,361.110,-36.359,7897.989,7048.459,-14.341,0.049,0.391,-0.043,-0.004,0.015,0.000,0.000,0.000,-0.014,0.680,0.006,0.733,0.0000000,0.0000000,7060.841,0.000,0.000,0.000,0,00:00:00,-45020,0.000,7060.841,36107.887,-36.362,258.934,0.000,0.404,-14.353,-0.010,0.002,0.010,-0.010,0.000,0.000
70.418,2,0,-2.927,0.754,6175.406,-2.955,0.671,252.339,-1.487,0.448,-14.184,0.000,0.000,0.0093383,0.000,9144.000,0.824,4.283,6175.406,252.339,359.772,-36.526,7923.691,7074.161,-14.262,0.068,0.419,0.005,0.002,-0.033,0.000,0.000,0.000,-0.015,0.680,0.005,0.733,0.0000000,0.0000000,7086.474,0.000,0.000,0.000,0,00:00:00,-45020,0.000,7086.474,35983.523,-36.518,257.501,0.000,0.396,-14.309,0.057,0.011,-0.006,0.013,0.000,0.000
70.519,2,0,-2.922,0.746,6200.497,-2.944,0.689,250.916,-1.426,0.565,-14.233,0.000,0.000,0.0093090,0.000,9144.000,0.820,4.274,6200.497,250.916,358.490,-36.686,7948.388,7098.858,-14.308,0.200,0.393,0.013,0.029,0.006,0.000,0.000,0.000,-0.014,0.681,0.004,0.732,0.0000000,0.0000000,7111.965,0.000,0.000,0.000,0,00:00:00,-45020,0.000,7111.965,35850.578,-36.684,256.077,0.000,0.299,-14.288,-0.089,0.004,0.006,-0.010,0.000,0.000
70.620,2,0,-2.917,0.738,6225.447,-2.937,0.667,249.498,-1.469,0.171,-14.180,0.000,0.000,0.0093277,0.000,9144.000,0.816,4.111,6225.447,249.498,357.157,-36.854,7974.170,7124.640,-14.250,-0.189,0.391,0.004,-0.039,0.017,0.000,0.000,0.000,-0.014,0.680,0.005,0.733,0.0000000,0.0000000,7137.314,0.000,0.000,0.000,0,00:00:00,-45020,0.000,7137.314,35715.977,-36.854,254.659,0.000,0.416,-14.196,-0.073,0.022,0.009,-0.007,0.000,0.000
70.721,2,0,-2.911,0.730,6252.065,-2.921,0.675,248.606,-1.371,0.464,-13.922,0.000,0.000,0.0093418,0.000,9144.000,0.811,4.333,6250.258,248.105,355.855,-37.018,7999.397,7149.867,-13.994,0.114,0.277,0.004,-0.023,0.008,0.000,0.000,0.000,-0.013,0.679,0.005,0.734,0.0000000,0.0000000,7162.522,0.000,0.000,0.000,0,00:00:00,-45020,0.000,7162.522,35586.152,-37.017,253.249,0.000,0.392,-14.084,-0.015,0.008,-0.005,0.018,0.000,0.000
70.822,2,0,-2.906,0.723,6279.943,-2.921,0.669,245.879,-1.535,0.316,-14.052,0.000,0.000,0.0092678,0.000,9144.000,0.809,4.466,6274.928,246.700,354.588,-37.178,8024.037,7174.507,-14.134,-0.026,0.405,0.010,-0.020,0.028,0.000,0.000,0.000,-0.012,0.678,0.006,0.735,0.0000000,0.0000000,7187.590,0.000,0.000,0.000,0,00:00:00,-45020,0.000,7187.590,35459.496,-37.177,251.847,0.000,0.389,-14.074,-0.060,0.011,0.001,0.006,0.000,0.000
70.923,3,0,-2.901,0.715,6314.295,-2.931,0.648,245.550,-1.618,0.171,-13.814,0.000,0.000,0.0093231,0.000,9144.000,0.800,4.580,6299.460,245.319,353.313,-37.340,8048.892,7199.362,-13.900,-0.147,0.506,0.014,-0.001,0.013,0.000,0.000,0.000,-0.011,0.678,0.006,0.735,0.0000000,0.0000000,7212.520,0.000,0.000,0.000,0,00:00:00,-45020,0.000,7212.520,35329.703,-37.342,250.451,0.000,0.362,-13.969,0.034,0.009,-0.002,0.001,0.000,0.000
71.024,3,0,-2.896,0.707,6339.875,-2.924,0.637,243.918,-1.454,0.260,-13.843,0.000,0.000,0.0093231,8909.249,9144.000,0.799,4.588,6323.853,243.935,352.054,-37.500,8073.524,7223.994,-13.917,-0.060,0.346,0.003,0.003,0.021,0.000,0.000,0.000,-0.010,0.678,0.006,0.735,0.0000000,0.0000000,7237.310,0.000,0.000,0.000,0,00:00:00,-45020,0.000,7237.310,35201.672,-37.505,249.062,0.000,0.372,-13.844,-0.108,-0.009,0.003,0.006,0.000,0.000
71.125,3,0,-2.891,0.698,6370.008,-2.903,0.617,241.938,-1.314,0.172,-13.629,0.000,0.000,0.0093231,8906.029,9144.000,0.794,4.568,6348.110,242.572,350.815,-37.658,8097.810,7248.280,-13.691,-0.140,0.202,0.002,-0.016,0.003,0.000,0.000,0.000,-0.010,0.678,0.006,0.735,0.0000000,0.0000000,7261.961,0.000,0.000,0.000,0,00:00:00,-45020,0.000,7261.961,35083.211,-37.656,247.680,0.000,0.334,-13.837,0.022,-0.009,0.029,-0.005,0.000,0.000
71.226,3,0,-2.885,0.688,6401.282,-2.890,0.611,242.501,-1.391,0.299,-13.780,0.000,0.000,0.0093231,8900.421,9144.000,0.788,4.661,6372.229,241.194,349.555,-37.819,8122.611,7273.081,-13.850,-0.024,0.304,-0.006,0.028,-0.001,0.000,0.000,0.000,-0.010,0.679,0.007,0.734,0.0000000,0.0000000,7286.477,0.000,0.000,0.000,0,00:00:00,-45020,0.000,7286.477,34955.910,-37.819,246.305,0.000,0.323,-13.879,0.118,-0.001,-0.002,0.016,0.000,0.000
71.327,3,0,-2.878,0.679,6422.515,-2.874,0.605,167.871,-1.353,0.307,-13.784,0.000,0.000,0.0093231,8944.448,9144.000,0.790,4.502,6396.211,239.815,349.555,-37.819,8122.611,7273.081,-13.850,-0.024,0.304,-0.006,0.028,-0.001,0.000,0.000,0.000,-0.010,0.680,0.007,0.733,0.0000000,0.0000000,7286.477,0.000,0.000,0.000,0,00:00:00,-45020,0.000,7286.477,34955.910,-37.819,246.305,0.000,0.323,-13.879,0.118,-0.001,-0.002,0.016,0.000,0.000
71.428,3,0,-2.870,0.671,6716.205,-2.857,0.605,310.813,-1.337,0.348,-13.426,0.000,0.000,0.0093231,7732.822,9144.000,0.547,4.342,6420.058,238.473,347.102,-38.134,8171.051,7321.521,-13.493,0.031,0.320,0.005,0.003,0.020,0.000,0.000,0.000,-0.009,0.680,0.007,0.733,0.0000000,0.0000000,7335.096,0.000,0.000,0.000,0,00:00:00,-45020,0.000,7335.096,34706.758,-38.139,243.574,0.000,0.344,-13.684,-0.056,-0.010,-0.006,-0.007,0.000,0.000
71.529,3,0,-2.862,0.663,6443.766,-2.847,0.595,237.076,-1.408,0.246,-13.962,70.000,2.500,0.0093231,10633.551,9144.000,1.013,4.323,6443.766,237.076,345.893,-38.290,8195.034,7345.504,-14.029,-0.102,0.374,-0.014,0.017,-0.016,0.000,0.000,0.000,-0.011,0.680,0.007,0.733,0.0000000,0.0000000,7359.197,0.000,0.000,0.000,0,00:00:00,-49727,0.000,7359.197,34587.852,-38.292,242.176,0.000,0.310,-13.964,-0.009,-0.005,0.004,-0.000,0.000,0.000
71.630,3,0,-2.853,0.655,6513.965,-2.831,0.592,235.630,-1.337,0.314,-13.414,0.000,0.000,0.0093231,8852.906,9144.000,0.773,4.225,6467.339,235.735,344.698,-38.445,8218.807,7369.277,-13.479,-0.045,0.369,-0.016,0.019,0.026,0.000,0.000,0.000,-0.010,0.681,0.009,0.732,0.0000000,0.0000000,7383.164,0.000,0.000,0.000,0,00:00:00,-60418,0.000,7383.164,34468.570,-38.446,240.827,0.000,0.291,-13.493,-0.066,0.003,0.004,-0.008,0.000,0.000
71.731,3,0,-2.843,0.648,6542.668,-2.802,0.593,235.966,-1.216,0.352,-13.350,0.000,0.000,0.0093231,8938.737,9144.000,0.769,4.118,6490.779,234.400,343.485,-38.602,8243.009,7393.479,-13.406,-0.009,0.287,-0.006,0.026,-0.030,0.000,0.000,0.000,-0.011,0.682,0.008,0.731,0.0000000,0.0000000,7406.998,0.000,0.000,0.000,0,00:00:00,-61641,0.000,7406.998,34347.926,-38.603,239.483,0.000,0.280,-13.394,-0.068,0.010,-0.017,0.006,0.000,0.000
71.832,3,0,-2.831,0.641,6564.772,-2.778,0.594,232.973,-1.253,0.353,-13.271,0.000,0.000,0.0093231,8975.507,9144.000,0.770,3.969,6514.087,233.073,342.310,-38.755,8266.516,7416.985,-13.332,-0.014,0.290,-0.007,-0.029,-0.022,0.000,0.000,0.000,-0.013,0.681,0.007,0.732,0.0000000,0.0000000,7430.697,0.000,0.000,0.000,0,00:00:00,-61641,0.000,7430.697,34233.289,-38.752,238.146,0.000,0.311,-13.395,0.064,-0.004,-0.023,-0.009,0.000,0.000
71.933,3,0,-2.819,0.636,6598.779,-2.749,0.606,231.972,-1.185,0.455,-13.165,0.000,0.000,0.0093231,8943.243,9144.000,0.761,4.137,6537.262,231.756,341.140,-38.908,8289.996,7440.465,-13.224,0.082,0.235,-0.008,0.005,-0.020,0.000,0.000,0.000,-0.013,0.681,0.007,0.732,0.0000000,0.0000000,7454.264,0.000,0.000,0.000,0,00:00:00,-61641,0.000,7454.264,34113.250,-38.909,236.814,0.000,0.393,-13.251,-0.036,-0.005,-0.014,0.007,0.000,0.000
72.034,3,0,-2.805,0.632,6625.472,-2.739,0.621,231.188,-1.383,0.474,-13.291,0.000,0.000,0.0093231,8960.630,9144.000,0.758,4.106,6560.305,230.427,339.971,-39.061,8313.525,7463.995,-13.365,0.095,0.396,-0.003,-0.020,0.004,0.000,0.000,0.000,-0.013,0.680,0.007,0.733,0.0000000,0.0000000,7477.698,0.000,0.000,0.000,0,00:00:00,-61641,0.000,7477.698,33996.414,-39.062,235.488,0.000,0.459,-13.219,-0.007,-0.007,-0.022,-0.000,0.000,0.000
72.135,3,0,-2.792,0.630,6651.219,-2.725,0.618,228.534,-1.328,0.303,-13.181,0.000,0.000,0.0093231,8973.466,9144.000,0.755,4.222,6583.216,229.109,338.833,-39.210,8336.471,7486.941,-13.246,-0.068,0.341,0.008,-0.008,0.040,0.000,0.000,0.000,-0.012,0.680,0.008,0.733,0.0000000,0.0000000,7501.000,0.000,0.000,0.000,0,00:00:00,-61641,0.000,7501.000,33883.293,-39.210,234.168,0.000,0.351,-13.211,-0.143,0.007,-0.004,-0.019,0.000,0.000
72.236,3,0,-2.779,0.628,6683.613,-2.715,0.625,227.800,-1.357,0.402,-13.013,0.000,0.000,0.0093231,8952.238,9144.000,0.747,4.269,6605.997,227.808,337.696,-39.360,8359.477,7509.947,-13.084,0.020,0.400,-0.012,0.013,-0.002,0.000,0.000,0.000,-0.012,0.681,0.009,0.732,0.0000000,0.0000000,7524.170,0.000,0.000,0.000,0,00:00:00,-61641,0.000,7524.170,33766.215,-39.364,232.854,0.000,0.345,-13.148,-0.026,-0.009,-0.001,-0.005,0.000,0.000
72.337,3,0,-2.766,0.626,6708.944,-2.714,0.628,226.650,-1.447,0.361,-13.044,0.000,0.000,0.0093231,8973.056,9144.000,0.745,4.192,6628.647,226.504,336.566,-39.509,8382.403,7532.873,-13.122,0.009,0.431,0.022,-0.042,-0.025,0.000,0.000,0.000,-0.012,0.679,0.007,0.734,0.0000000,0.0000000,7547.210,0.000,0.000,0.000,0,00:00:00,-61641,0.000,7547.210,33650.004,-39.517,231.545,0.000,0.440,-13.081,-0.033,-0.003,-0.014,-0.010,0.000,0.000
72.438,3,0,-2.754,0.625,6735.658,-2.699,0.643,225.620,-1.306,0.474,-12.977,0.000,0.000,0.0093231,8977.294,9144.000,0.741,4.432,6651.168,225.206,335.440,-39.657,8405.288,7555.758,-13.046,0.147,0.304,0.016,0.007,-0.013,0.000,0.000,0.000,-0.012,0.679,0.006,0.734,0.0000000,0.0000000,7570.120,0.000,0.000,0.000,0,00:00:00,-56427,0.000,7570.120,33544.270,-39.657,230.241,0.000,0.277,-13.100,-0.050,-0.008,0.000,0.026,0.000,0.000
72.539,3,0,-2.742,0.626,6761.808,-2.684,0.652,224.299,-1.288,0.418,-12.973,0.000,0.000,0.0093231,8986.808,9144.000,0.738,4.391,6673.559,223.909,334.325,-39.805,8428.035,7578.505,-13.040,0.109,0.286,0.016,-0.001,0.013,0.000,0.000,0.000,-0.011,0.679,0.006,0.734,0.0000000,0.0000000,7592.900,0.000,0.000,0.000,0,00:00:00,-36869,0.000,7592.900,33424.457,-39.816,228.943,0.000,0.276,-12.957,0.008,0.006,0.001,-0.010,0.000,0.000
72.640,3,0,-2.730,0.627,6788.893,-2.677,0.646,223.110,-1.370,0.275,-12.784,0.000,0.000,0.0093231,8990.310,9144.000,0.734,4.398,6695.822,222.630,333.217,-39.953,8450.682,7601.152,-12.855,-0.051,0.355,-0.018,-0.022,-0.005,0.000,0.000,0.000,-0.012,0.679,0.006,0.734,0.0000000,0.0000000,7615.551,0.000,0.000,0.000,0,00:00:00,-27589,0.000,7615.551,33320.758,-39.954,227.650,0.000,0.376,-12.872,0.018,-0.005,-0.007,0.008,0.000,0.000
72.741,3,0,-2.719,0.628,6815.353,-2.679,0.669,221.200,-1.452,0.559,-12.785,0.000,0.000,0.0093231,8996.453,9144.000,0.730,4.524,6717.957,221.352,332.130,-40.098,8472.987,7623.457,-12.870,0.246,0.437,0.008,0.004,-0.019,0.000,0.000,0.000,-0.012,0.679,0.005,0.734,0.0000000,0.0000000,7638.073,0.000,0.000,0.000,0,00:00:00,-27006,0.000,7638.073,33209.141,-40.103,226.362,0.000,0.456,-13.009,0.000,-0.010,-0.002,-0.007,0.000,0.000
72.842,3,0,-2.708,0.631,6844.299,-2.666,0.674,219.890,-1.288,0.377,-12.607,0.000,0.000,0.0093231,8990.185,9144.000,0.724,4.504,6739.966,220.091,331.052,-40.242,8495.149,7645.619,-12.675,0.083,0.293,0.008,0.003,-0.041,0.000,0.000,0.000,-0.013,0.679,0.004,0.734,0.0000000,0.0000000,7660.467,0.000,0.000,0.000,0,00:00:00,-27006,0.000,7660.467,33107.348,-40.239,225.080,0.000,0.345,-12.912,0.019,0.007,0.006,0.005,0.000,0.000
72.943,3,0,-2.697,0.633,6868.289,-2.652,0.677,153.181,-1.286,0.362,-12.608,0.000,0.000,0.0093231,8997.118,9144.000,0.720,4.485,6761.849,218.830,331.052,-40.242,8495.149,7645.619,-12.675,0.083,0.293,0.008,0.003,-0.041,0.000,0.000,0.000,-0.015,0.679,0.002,0.734,0.0000000,0.0000000,7660.467,0.000,0.000,0.000,0,00:00:00,-27007,0.000,7660.467,33107.348,-40.239,225.080,0.000,0.345,-12.912,0.019,0.007,0.006,0.005,0.000,0.000
73.044,3,0,-2.687,0.636,7134.750,-2.648,0.676,285.044,-1.368,0.324,-12.647,0.000,0.000,0.0093231,7976.300,9144.000,0.502,4.467,6783.605,217.565,328.886,-40.532,8539.841,7690.311,-12.719,0.019,0.366,-0.022,-0.005,-0.012,0.000,0.000,0.000,-0.016,0.679,0.002,0.734,0.0000000,0.0000000,7704.871,0.000,0.000,0.000,0,00:00:00,-27007,0.000,7704.871,32886.141,-40.536,222.529,0.000,0.355,-12.724,0.037,0.007,0.001,-0.012,0.000,0.000
73.145,3,0,-2.677,0.638,6805.233,-2.655,0.685,216.275,-1.480,0.425,-12.901,70.000,2.500,0.0093231,10545.424,9144.000,0.934,4.493,6805.233,216.275,327.843,-40.673,8561.449,7711.919,-12.985,0.093,0.412,-0.018,-0.033,-0.017,0.000,0.000,0.000,-0.017,0.677,0.002,0.735,0.0000000,0.0000000,7726.878,0.000,0.000,0.000,0,00:00:00,-27007,0.000,7726.878,32782.520,-40.675,221.227,0.000,0.267,-12.993,0.063,0.011,0.008,0.003,0.000,0.000
73.246,3,0,-2.669,0.641,6949.102,-2.663,0.681,215.640,-1.481,0.301,-12.649,0.000,0.000,0.0093231,8865.052,9144.000,0.709,4.682,6826.734,215.010,326.788,-40.816,8583.377,7733.847,-12.732,-0.017,0.430,0.006,-0.005,0.010,0.000,0.000,0.000,-0.016,0.677,0.002,0.736,0.0000000,0.0000000,7748.760,0.000,0.000,0.000,0,00:00:00,-27007,0.000,7748.760,32679.863,-40.814,219.964,0.000,0.351,-12.671,-0.070,0.007,-0.005,-0.013,0.000,0.000
73.347,3,0,-2.663,0.643,6972.860,-2.664,0.678,214.753,-1.413,0.308,-12.592,0.000,0.000,0.0093231,9029.433,9144.000,0.707,4.711,6848.109,213.751,325.735,-40.958,8605.303,7755.773,-12.671,0.013,0.334,0.020,-0.026,0.002,0.000,0.000,0.000,-0.016,0.676,0.002,0.736,0.0000000,0.0000000,7770.517,0.000,0.000,0.000,0,00:00:00,-27007,0.000,7770.517,32571.605,-40.961,218.706,0.000,0.314,-12.652,-0.018,0.010,0.011,-0.001,0.000,0.000
73.448,3,0,-2.656,0.645,6997.366,-2.665,0.689,212.621,-1.407,0.446,-12.425,0.000,0.000,0.0093231,9037.556,9144.000,0.704,4.861,6869.360,212.509,324.706,-41.098,8626.804,7777.274,-12.507,0.124,0.332,-0.025,-0.006,-0.008,0.000,0.000,0.000,-0.017,0.676,0.002,0.737,0.0000000,0.0000000,7792.148,0.000,0.000,0.000,0,00:00:00,-27007,0.000,7792.148,32471.359,-41.097,217.451,0.000,0.252,-12.640,-0.060,0.013,-0.001,0.006,0.000,0.000
73.549,3,0,-2.651,0.648,7026.295,-2.661,0.704,211.832,-1.353,0.487,-12.396,0.000,0.000,0.0093231,9025.746,9144.000,0.698,4.893,6890.487,211.269,323.677,-41.238,8648.332,7798.802,-12.475,0.163,0.274,0.002,-0.006,0.032,0.000,0.000,0.000,-0.016,0.676,0.004,0.737,0.0000000,0.0000000,7813.654,0.000,0.000,0.000,0,00:00:00,-27007,0.000,7813.654,32367.848,-41.238,216.202,0.000,0.272,-12.540,-0.047,-0.012,-0.019,0.003,0.000,0.000
73.650,3,0,-2.646,0.651,7050.223,-2.666,0.692,210.529,-1.448,0.224,-12.307,0.000,0.000,0.0093231,9041.643,9144.000,0.695,4.928,6911.491,210.038,322.659,-41.377,8669.711,7820.181,-12.387,-0.105,0.383,-0.004,0.001,0.024,0.000,0.000,0.000,-0.015,0.676,0.005,0.737,0.0000000,0.0000000,7835.035,0.000,0.000,0.000,0,00:00:00,-27007,0.000,7835.035,32265.486,-41.377,214.957,0.000,0.208,-12.457,0.014,0.015,0.007,-0.014,0.000,0.000
73.751,3,0,-2.642,0.653,7075.887,-2.684,0.683,209.108,-1.559,0.257,-12.333,0.000,0.000,0.0093231,9043.875,9144.000,0.691,4.924,6932.371,208.805,321.652,-41.515,8690.902,7841.372,-12.423,-0.073,0.503,0.005,0.009,0.054,0.000,0.000,0.000,-0.013,0.676,0.006,0.737,0.0000000,0.0000000,7856.292,0.000,0.000,0.000,0,00:00:00,-27007,0.000,7856.292,32166.379,-41.513,213.716,0.000,0.402,-12.381,-0.014,0.010,-0.005,0.007,0.000,0.000
73.852,3,0,-2.640,0.654,7101.861,-2.682,0.666,207.862,-1.368,0.169,-12.286,0.000,0.000,0.0093231,9046.201,9144.000,0.687,4.874,6953.129,207.577,320.653,-41.652,8711.964,7862.434,-12.359,-0.115,0.276,0.038,-0.033,-0.000,0.000,0.000,0.000,-0.012,0.675,0.005,0.738,0.0000000,0.0000000,7877.426,0.000,0.000,0.000,0,00:00:00,-27007,0.000,7877.426,32070.332,-41.645,212.479,0.000,0.311,-12.322,-0.011,0.006,0.005,0.011,0.000,0.000
73.953,3,0,-2.638,0.653,7127.041,-2.691,0.651,205.970,-1.477,0.201,-12.266,0.000,0.000,0.0093231,9050.458,9144.000,0.683,5.065,6973.764,206.350,319.674,-41.786,8732.677,7883.147,-12.350,-0.077,0.375,0.002,-0.009,-0.017,0.000,0.000,0.000,-0.012,0.675,0.004,0.738,0.0000000,0.0000000,7898.437,0.000,0.000,0.000,0,00:00:00,-27007,0.000,7898.437,31967.990,-41.786,211.247,0.000,0.393,-12.256,0.034,0.005,0.020,0.000,0.000,0.000
74.054,3,0,-2.636,0.650,7154.484,-2.675,0.639,205.283,-1.232,0.223,-12.131,0.000,0.000,0.0093231,9043.874,9144.000,0.677,5.116,6994.278,205.137,318.695,-41.921,8753.445,7903.915,-12.195,-0.055,0.147,0.001,0.003,0.019,0.000,0.000,0.000,-0.011,0.675,0.005,0.738,0.0000000,0.0000000,7919.325,0.000,0.000,0.000,0,00:00:00,-27007,0.000,7919.325,31869.562,-41.921,210.019,0.000,0.318,-12.242,0.021,0.009,0.003,0.002,0.000,0.000
74.155,3,0,-2.634,0.648,7177.435,-2.695,0.642,204.315,-1.579,0.370,-12.160,0.000,0.000,0.0093231,9060.449,9144.000,0.675,5.100,7014.670,203.921,317.719,-42.056,8774.174,7924.644,-12.256,0.101,0.515,0.007,0.021,0.007,0.000,0.000,0.000,-0.011,0.676,0.005,0.737,0.0000000,0.0000000,7940.090,0.000,0.000,0.000,0,00:00:00,-27007,0.000,7940.090,31770.213,-42.059,208.795,0.000,0.323,-12.275,0.018,0.011,-0.011,-0.000,0.000,0.000
74.256,3,0,-2.634,0.646,7197.523,-2.712,0.644,141.893,-1.553,0.363,-12.163,0.000,0.000,0.0093231,9068.352,9144.000,0.672,4.979,7034.940,202.705,317.719,-42.056,8774.174,7924.644,-12.256,0.101,0.515,0.007,0.021,0.007,0.000,0.000,0.000,-0.010,0.676,0.005,0.736,0.0000000,0.0000000,7940.090,0.000,0.000,0.000,0,00:00:00,-27007,0.000,7940.090,31770.213,-42.059,208.795,0.000,0.323,-12.275,0.018,0.011,-0.011,-0.000,0.000,0.000
74.357,3,0,-2.635,0.643,7448.792,-2.707,0.626,262.515,-1.341,0.154,-12.079,0.000,0.000,0.0093231,8157.425,9144.000,0.467,4.858,7055.090,201.497,315.802,-42.322,8815.068,7965.538,-12.149,-0.105,0.358,0.002,0.038,0.002,0.000,0.000,0.000,-0.010,0.678,0.005,0.735,0.0000000,0.0000000,7981.254,0.000,0.000,0.000,0,00:00:00,-27007,0.000,7981.254,31583.373,-42.318,206.359,0.000,0.418,-12.180,0.016,0.010,-0.018,0.008,0.000,0.000
74.458,3,0,-2.635,0.640,7075.116,-2.691,0.628,200.261,-1.228,0.357,-12.362,70.000,2.500,0.0093231,10421.406,9144.000,0.864,4.642,7075.116,200.261,314.832,-42.457,8835.852,7986.322,-12.426,0.038,0.203,-0.040,-0.015,0.023,0.000,0.000,0.000,-0.011,0.677,0.007,0.736,0.0000000,0.0000000,8001.650,0.000,0.000,0.000,0,00:00:00,-32039,0.000,8001.650,31483.879,-42.456,205.119,0.000,0.333,-12.487,-0.039,0.001,-0.023,-0.014,0.000,0.000
74.559,3,0,-2.633,0.637,7276.257,-2.667,0.604,197.632,-1.142,0.096,-12.006,0.000,0.000,0.0093231,8876.557,9144.000,0.659,4.727,7095.022,199.060,313.917,-42.585,8855.477,8005.947,-12.058,-0.220,0.162,-0.006,0.012,-0.006,0.000,0.000,0.000,-0.011,0.678,0.007,0.735,0.0000000,0.0000000,8021.927,0.000,0.000,0.000,0,00:00:00,-43511,0.000,8021.927,31388.258,-42.590,203.911,0.000,0.262,-12.175,-0.026,-0.006,-0.002,0.011,0.000,0.000
74.660,3,0,-2.628,0.631,7301.476,-2.641,0.581,138.501,-1.128,0.102,-12.007,0.000,0.000,0.0093231,9059.649,9144.000,0.651,4.659,7114.808,197.859,313.917,-42.585,8855.477,8005.947,-12.058,-0.220,0.162,-0.006,0.012,-0.006,0.000,0.000,0.000,-0.012,0.678,0.007,0.735,0.0000000,0.0000000,8021.927,0.000,0.000,0.000,0,00:00:00,-44995,0.000,8021.927,31388.258,-42.590,203.911,0.000,0.262,-12.175,-0.026,-0.006,-0.002,0.011,0.000,0.000
74.761,3,0,-2.623,0.625,7541.123,-2.628,0.589,257.386,-1.254,0.410,-12.024,0.000,0.000,0.0093231,8219.494,9144.000,0.456,4.591,7134.473,196.657,312.046,-42.847,8895.785,8046.255,-12.093,0.099,0.296,0.008,0.010,-0.016,0.000,0.000,0.000,-0.012,0.678,0.006,0.735,0.0000000,0.0000000,8062.118,0.000,0.000,0.000,0,00:00:00,-44995,0.000,8062.118,31198.980,-42.855,201.505,0.000,0.359,-11.997,0.118,0.009,0.014,0.007,0.000,0.000
74.862,3,0,-2.617,0.621,7154.019,-2.615,0.596,195.454,-1.243,0.399,-12.026,70.000,2.500,0.0093231,10417.853,9144.000,0.848,4.535,7154.019,195.454,312.046,-42.847,8895.785,8046.255,-12.093,0.099,0.296,0.008,0.010,-0.016,0.000,0.000,0.000,-0.012,0.679,0.006,0.734,0.0000000,0.0000000,8062.118,0.000,0.000,0.000,0,00:00:00,-50199,0.000,8062.118,31198.980,-42.855,201.505,0.000,0.359,-11.997,0.118,0.009,0.014,0.007,0.000,0.000
74.963,3,0,-2.611,0.618,7372.511,-2.628,0.613,253.506,-1.503,0.495,-11.743,0.000,0.000,0.0093231,8880.958,9144.000,0.644,4.479,7173.447,194.280,310.219,-43.104,8935.347,8085.816,-11.835,0.197,0.548,-0.003,-0.025,0.023,0.000,0.000,0.000,-0.012,0.678,0.007,0.735,0.0000000,0.0000000,8101.824,0.000,0.000,0.000,0,00:00:00,-61044,0.000,8101.824,31019.775,-43.107,199.089,0.000,0.328,-11.978,-0.042,-0.008,-0.009,-0.006,0.000,0.000
75.064,3,0,-2.606,0.616,7192.752,-2.619,0.609,193.052,-1.280,0.284,-12.281,70.000,2.500,0.0093231,10164.885,9144.000,0.835,4.623,7192.752,193.052,309.313,-43.232,8955.027,8105.497,-12.347,-0.076,0.291,-0.040,0.006,-0.020,0.000,0.000,0.000,-0.014,0.678,0.007,0.735,0.0000000,0.0000000,8121.496,0.000,0.000,0.000,0,00:00:00,-67146,0.000,8121.496,30932.443,-43.231,197.873,0.000,0.393,-12.177,0.026,0.010,-0.001,0.014,0.000,0.000
75.165,3,0,-2.601,0.614,7419.950,-2.616,0.611,192.522,-1.338,0.345,-11.742,0.000,0.000,0.0093231,8881.685,9144.000,0.636,4.586,7211.940,191.878,308.413,-43.360,8974.623,8125.093,-11.819,-0.031,0.337,-0.027,-0.046,0.004,0.000,0.000,0.000,-0.015,0.676,0.008,0.736,0.0000000,0.0000000,8141.049,0.000,0.000,0.000,0,00:00:00,-78995,0.000,8141.049,30838.057,-43.364,196.687,0.000,0.305,-11.900,-0.064,0.011,0.004,0.007,0.000,0.000
75.266,3,0,-2.596,0.613,7440.919,-2.606,0.629,189.657,-1.269,0.499,-11.650,0.000,0.000,0.0093231,9121.442,9144.000,0.635,4.847,7231.011,190.713,307.546,-43.483,8993.530,8144.000,-11.725,0.140,0.294,0.012,0.004,-0.006,0.000,0.000,0.000,-0.014,0.677,0.008,0.736,0.0000000,0.0000000,8160.484,0.000,0.000,0.000,0,00:00:00,-80517,0.000,8160.484,30754.404,-43.483,195.504,0.000,0.308,-11.866,-0.026,-0.009,0.010,-0.001,0.000,0.000
75.367,3,0,-2.591,0.613,7470.451,-2.613,0.634,190.411,-1.433,0.373,-11.715,0.000,0.000,0.0093231,9096.955,9144.000,0.625,4.754,7249.965,189.541,306.658,-43.609,9012.966,8163.436,-11.800,-0.014,0.446,-0.019,-0.008,0.039,0.000,0.000,0.000,-0.014,0.677,0.010,0.736,0.0000000,0.0000000,8179.801,0.000,0.000,0.000,0,00:00:00,-80518,0.000,8179.801,30664.465,-43.611,194.324,0.000,0.380,-11.891,0.078,0.011,-0.011,0.017,0.000,0.000
75.468,3,0,-2.587,0.614,7486.620,-2.612,0.643,188.876,-1.345,0.407,-11.662,0.000,0.000,0.0093231,9138.896,9144.000,0.628,4.799,7268.803,188.375,305.782,-43.734,9032.161,8182.631,-11.740,-0.020,0.381,-0.036,0.010,-0.016,0.000,0.000,0.000,-0.016,0.677,0.011,0.735,0.0000000,0.0000000,8199.000,0.000,0.000,0.000,0,00:00:00,-80145,0.000,8199.000,30576.021,-43.737,193.148,0.000,0.350,-11.806,-0.025,-0.006,0.000,-0.003,0.000,0.000
75.569,3,0,-2.583,0.616,7511.110,-2.601,0.657,188.600,-1.254,0.466,-11.760,0.000,0.000,0.0093231,9131.133,9144.000,0.623,4.702,7287.523,187.199,304.901,-43.860,9051.540,8202.010,-11.832,0.014,0.324,-0.015,0.034,0.033,0.000,0.000,0.000,-0.015,0.679,0.012,0.734,0.0000000,0.0000000,8218.082,0.000,0.000,0.000,0,00:00:00,-67850,0.000,8218.082,30493.918,-43.854,191.975,0.000,0.347,-11.739,0.005,0.005,-0.002,-0.020,0.000,0.000
75.670,3,0,-2.577,0.619,7530.824,-2.579,0.661,186.698,-1.129,0.365,-11.505,0.000,0.000,0.0093231,9152.491,9144.000,0.623,4.507,7306.127,186.048,304.038,-43.984,9070.550,8221.020,-11.563,-0.088,0.277,-0.007,-0.009,0.015,0.000,0.000,0.000,-0.015,0.680,0.013,0.733,0.0000000,0.0000000,8237.047,0.000,0.000,0.000,0,00:00:00,-44426,0.000,8237.047,30404.385,-43.983,190.805,0.000,0.322,-11.659,0.028,0.012,-0.008,-0.002,0.000,0.000
75.771,3,0,-2.570,0.621,7556.395,-2.545,0.668,185.775,-1.024,0.391,-11.669,0.000,0.000,0.0093231,9143.324,9144.000,0.616,4.223,7324.616,184.881,303.178,-44.107,9089.523,8239.993,-11.718,-0.079,0.219,-0.007,0.036,0.013,0.000,0.000,0.000,-0.015,0.682,0.014,0.731,0.0000000,0.0000000,8255.896,0.000,0.000,0.000,0,00:00:00,-28120,0.000,8255.896,30322.375,-44.100,189.639,0.000,0.337,-11.673,0.086,0.006,0.019,0.007,0.000,0.000
75.872,3,0,-2.561,0.625,7578.023,-2.538,0.682,181.731,-1.271,0.470,-11.664,0.000,0.000,0.0093231,9155.747,9144.000,0.614,3.937,7342.987,183.715,302.370,-44.223,9107.411,8257.880,-11.732,-0.067,0.476,-0.059,0.005,0.001,0.000,0.000,0.000,-0.017,0.683,0.016,0.731,0.0000000,0.0000000,8274.627,0.000,0.000,0.000,0,00:00:00,-25666,0.000,8274.627,30236.537,-44.224,188.475,0.000,0.216,-11.698,0.048,-0.006,0.009,0.001,0.000,0.000
75.973,3,0,-2.553,0.630,7611.168,-2.527,0.710,182.976,-1.231,0.610,-11.819,0.000,0.000,0.0093231,9114.034,9144.000,0.600,3.885,7361.240,182.533,301.532,-44.344,9125.996,8276.466,-11.889,0.040,0.459,-0.022,0.028,-0.002,0.000,0.000,0.000,-0.018,0.684,0.016,0.730,0.0000000,0.0000000,8293.242,0.000,0.000,0.000,0,00:00:00,-25667,0.000,8293.242,30145.877,-44.355,187.315,0.000,0.372,-11.625,0.006,0.004,0.006,-0.005,0.000,0.000
76.074,3,0,-2.543,0.636,7624.938,-2.503,0.714,182.982,-1.107,0.375,-11.669,5.000,2.500,0.0093231,9167.813,9144.000,0.605,3.723,7379.377,181.366,300.683,-44.467,9144.858,8295.327,-11.720,-0.172,0.378,0.014,0.020,0.010,0.000,0.000,0.000,-0.017,0.685,0.016,0.729,0.0000000,0.0000000,8311.738,0.000,0.000,0.000,0,00:00:00,-25667,0.000,8311.738,30068.086,-44.467,186.136,0.000,0.402,-11.807,-0.024,0.000,-0.000,-0.005,0.000,0.000
76.175,3,0,-2.533,0.643,7643.027,-2.488,0.738,180.648,-1.182,0.570,-11.976,5.000,5.000,0.0093231,9167.796,9144.000,0.605,3.565,7397.394,180.169,299.859,-44.586,9163.216,8313.686,-12.039,0.011,0.448,0.002,0.012,0.002,0.000,0.000,0.000,-0.017,0.685,0.016,0.728,0.0000000,0.0000000,8330.111,0.000,0.000,0.000,0,00:00:00,-25667,0.000,8330.111,29982.416,-44.591,184.928,0.000,0.277,-12.159,0.081,0.016,-0.011,-0.011,0.000,0.000
76.276,3,0,-2.522,0.651,7669.572,-2.476,0.761,179.464,-1.205,0.577,-12.082,5.000,5.000,0.0093231,9130.044,9144.000,0.597,3.495,7415.290,178.961,299.042,-44.705,9181.461,8331.931,-12.147,-0.043,0.461,-0.046,-0.003,-0.003,0.000,0.000,0.000,-0.019,0.685,0.017,0.728,0.0000000,0.0000000,8348.364,0.000,0.000,0.000,0,00:00:00,-25667,0.000,8348.364,29903.939,-44.705,183.723,0.000,0.408,-12.070,0.025,-0.002,-0.015,0.003,0.000,0.000
76.377,3,0,-2.511,0.661,7691.677,-2.455,0.788,177.101,-1.117,0.608,-12.146,5.000,5.000,0.0093231,9139.302,9144.000,0.593,3.511,7433.065,177.746,298.249,-44.820,9199.196,8349.666,-12.208,-0.017,0.350,-0.001,-0.017,0.011,0.000,0.000,0.000,-0.018,0.684,0.018,0.729,0.0000000,0.0000000,8366.497,0.000,0.000,0.000,0,00:00:00,-25667,0.000,8366.497,29824.156,-44.821,182.523,0.000,0.382,-11.986,-0.017,-0.006,-0.024,-0.004,0.000,0.000
76.478,3,0,-2.500,0.672,7718.070,-2.445,0.813,176.792,-1.215,0.601,-11.656,0.000,2.500,0.0093231,9126.383,9144.000,0.586,3.607,7450.723,176.580,297.451,-44.937,9217.102,8367.572,-11.724,0.027,0.484,0.022,0.002,-0.014,0.000,0.000,0.000,-0.018,0.684,0.017,0.729,0.0000000,0.0000000,8384.515,0.000,0.000,0.000,0,00:00:00,-25667,0.000,8384.515,29738.602,-44.946,181.357,0.000,0.346,-11.624,-0.013,-0.008,0.006,-0.004,0.000,0.000
76.579,3,0,-2.488,0.684,7736.871,-2.429,0.822,176.149,-1.143,0.453,-11.542,5.000,5.000,0.0093231,9167.474,9144.000,0.585,3.574,7468.265,175.426,296.652,-45.053,9235.063,8385.533,-11.600,-0.096,0.399,0.019,-0.045,0.028,0.000,0.000,0.000,-0.017,0.684,0.017,0.729,0.0000000,0.0000000,8402.411,0.000,0.000,0.000,0,00:00:00,-31401,0.000,8402.411,29661.695,-45.058,180.164,0.000,0.371,-11.960,-0.088,0.001,0.003,0.005,0.000,0.000
76.680,3,0,-2.476,0.696,7756.776,-2.401,0.848,174.935,-1.029,0.624,-12.019,10.000,7.500,0.0093231,9158.015,9144.000,0.583,3.678,7485.688,174.224,295.860,-45.169,9252.899,8403.369,-12.076,0.033,0.271,-0.015,0.013,0.002,0.000,0.000,0.000,-0.017,0.684,0.017,0.729,0.0000000,0.0000000,8420.186,0.000,0.000,0.000,0,00:00:00,-52555,0.000,8420.186,29590.777,-45.162,178.954,0.000,0.380,-12.139,0.041,-0.008,0.017,0.004,0.000,0.000
76.781,3,0,-2.462,0.709,7773.337,-2.373,0.875,121.116,-1.013,0.642,-12.019,10.000,10.000,0.0093231,9148.979,9144.000,0.579,3.603,7502.990,173.022,295.860,-45.169,9252.899,8403.369,-12.076,0.033,0.271,-0.015,0.013,0.002,0.000,0.000,0.000,-0.018,0.685,0.018,0.728,0.0000000,0.0000000,8420.186,0.000,0.000,0.000,0,00:00:00,-76382,0.000,8420.186,29590.777,-45.162,178.954,0.000,0.380,-12.139,0.041,-0.008,0.017,0.004,0.000,0.000
76.882,3,0,-2.447,0.724,7993.461,-2.355,0.907,223.797,-1.109,0.690,-11.961,0.000,7.500,0.0093231,8471.079,9144.000,0.401,3.528,7520.172,171.826,294.317,-45.396,9287.750,8438.220,-12.025,0.075,0.403,-0.007,0.027,0.012,0.000,0.000,0.000,-0.017,0.686,0.019,0.727,0.0000000,0.0000000,8455.366,0.000,0.000,0.000,0,00:00:00,-93755,0.000,8455.366,29432.006,-45.395,176.518,0.000,0.274,-12.045,-0.026,0.004,-0.006,0.029,0.000,0.000
76.983,3,0,-2.431,0.741,7633.492,-2.325,0.937,171.179,-0.988,0.690,-12.331,70.000,10.000,0.0093231,10161.217,9144.000,0.741,3.374,7537.232,170.593,293.548,-45.509,9305.178,8455.647,-12.387,0.034,0.293,-0.016,0.024,0.032,0.000,0.000,0.000,-0.017,0.687,0.020,0.727,0.0000000,0.0000000,8472.772,0.000,0.000,0.000,0,00:00:00,-101703,0.000,8472.772,29358.553,-45.504,175.292,0.000,0.322,-12.271,0.025,0.007,0.010,0.003,0.000,0.000
77.084,3,0,-2.415,0.759,7843.839,-2.310,0.974,169.890,-1.115,0.761,-12.031,0.000,7.500,0.0093231,8955.004,9144.000,0.567,3.237,7554.171,169.390,292.787,-45.622,9322.454,8472.924,-12.097,0.156,0.444,0.026,0.008,-0.042,0.000,0.000,0.000,-0.017,0.687,0.018,0.726,0.0000000,0.0000000,8490.061,0.000,0.000,0.000,0,00:00:00,-111874,0.000,8490.061,29279.092,-45.621,174.099,0.000,0.371,-11.993,0.025,-0.008,0.009,0.010,0.000,0.000
77.185,3,0,-2.399,0.778,7860.005,-2.294,1.005,117.731,-1.108,0.725,-12.034,15.000,10.000,0.0093231,9166.243,9144.000,0.563,3.189,7570.989,168.187,292.787,-45.622,9322.454,8472.924,-12.097,0.156,0.444,0.026,0.008,-0.042,0.000,0.000,0.000,-0.018,0.687,0.016,0.726,0.0000000,0.0000000,8490.061,0.000,0.000,0.000,0,00:00:00,-118508,0.000,8490.061,29279.092,-45.621,174.099,0.000,0.371,-11.993,0.025,-0.008,0.009,0.010,0.000,0.000
77.286,3,0,-2.383,0.798,8074.259,-2.278,1.026,219.140,-1.092,0.624,-11.966,0.000,7.500,0.0093231,8522.209,9144.000,0.390,3.142,7587.688,166.990,291.277,-45.845,9356.878,8507.348,-12.024,0.051,0.446,-0.007,0.012,-0.008,0.000,0.000,0.000,-0.019,0.688,0.015,0.726,0.0000000,0.0000000,8524.273,0.000,0.000,0.000,0,00:00:00,-129220,0.000,8524.273,29127.469,-45.846,171.695,0.000,0.293,-11.898,0.044,0.001,-0.008,-0.015,0.000,0.000
77.387,3,0,-2.366,0.818,7717.826,-2.230,1.053,166.194,-0.769,0.696,-12.161,70.000,10.000,0.0093231,10167.784,9144.000,0.726,3.071,7604.266,165.774,290.538,-45.955,9373.762,8524.232,-12.203,0.107,0.161,-0.003,0.038,0.021,0.000,0.000,0.000,-0.018,0.689,0.016,0.724,0.0000000,0.0000000,8541.198,0.000,0.000,0.000,0,00:00:00,-135140,0.000,8541.198,29055.615,-45.953,170.486,0.000,0.382,-12.195,0.126,0.007,0.005,-0.007,0.000,0.000
77.488,3,0,-2.346,0.838,7929.073,-2.181,1.061,163.690,-0.754,0.525,-11.920,0.000,7.500,0.0093231,8972.860,9144.000,0.551,2.850,7620.724,164.582,289.825,-46.061,9390.085,8540.555,-11.953,-0.055,0.206,-0.006,0.041,-0.042,0.000,0.000,0.000,-0.020,0.691,0.015,0.723,0.0000000,0.0000000,8558.007,0.000,0.000,0.000,0,00:00:00,-133303,0.000,8558.007,28982.910,-46.061,169.307,0.000,0.255,-11.841,0.056,0.003,-0.001,0.008,0.000,0.000
77.589,3,0,-2.324,0.857,7954.668,-2.152,1.066,163.283,-0.931,0.498,-11.931,15.000,10.000,0.0093231,9166.807,9144.000,0.543,2.614,7637.063,163.389,289.108,-46.168,9406.551,8557.021,-11.972,-0.055,0.366,0.022,-0.013,-0.008,0.000,0.000,0.000,-0.019,0.690,0.014,0.723,0.0000000,0.0000000,8574.693,0.000,0.000,0.000,0,00:00:00,-124879,0.000,8574.693,28905.359,-46.177,168.106,0.000,0.333,-11.994,0.080,0.014,-0.009,0.011,0.000,0.000
77.690,3,0,-2.301,0.874,7972.468,-2.119,1.070,162.404,-0.888,0.501,-12.385,20.000,12.500,0.0093231,9173.792,9144.000,0.542,2.689,7653.278,162.150,288.392,-46.276,9423.014,8573.484,-12.423,-0.065,0.305,0.007,0.003,0.011,0.000,0.000,0.000,-0.018,0.690,0.014,0.723,0.0000000,0.0000000,8591.258,0.000,0.000,0.000,0,00:00:00,-124759,0.000,8591.258,28835.670,-46.281,166.892,0.000,0.439,-12.238,0.095,-0.003,0.016,0.001,0.000,0.000
77.791,3,0,-2.278,0.891,7992.021,-2.092,1.079,162.343,-0.931,0.558,-12.518,20.000,15.000,0.0093231,9171.607,9144.000,0.539,2.674,7669.368,160.899,287.665,-46.384,9439.751,8590.221,-12.560,-0.027,0.328,-0.015,-0.009,-0.060,0.000,0.000,0.000,-0.021,0.690,0.012,0.724,0.0000000,0.0000000,8607.697,0.000,0.000,0.000,0,00:00:00,-124759,0.000,8607.697,28763.635,-46.389,165.657,0.000,0.352,-12.372,0.032,-0.002,-0.003,-0.012,0.000,0.000
77.892,3,0,-2.254,0.906,8002.611,-2.068,1.089,111.753,-0.945,0.571,-12.516,25.000,17.500,0.0093231,9178.462,9144.000,0.539,2.722,7685.333,159.647,287.665,-46.384,9439.751,8590.221,-12.560,-0.027,0.328,-0.015,-0.009,-0.060,0.000,0.000,0.000,-0.024,0.689,0.011,0.724,0.0000000,0.0000000,8607.697,0.000,0.000,0.000,0,00:00:00,-124759,0.000,8607.697,28763.635,-46.389,165.657,0.000,0.352,-12.372,0.032,-0.002,-0.003,-0.012,0.000,0.000
77.993,3,0,-2.231,0.921,8210.693,-2.034,1.090,206.974,-0.834,0.497,-12.109,0.000,15.000,0.0093231,8595.769,9144.000,0.371,2.770,7701.176,158.436,286.266,-46.595,9472.094,8622.564,-12.144,-0.065,0.281,0.014,0.035,-0.004,0.000,0.000,0.000,-0.023,0.691,0.010,0.723,0.0000000,0.0000000,8640.203,0.000,0.000,0.000,0,00:00:00,-118982,0.000,8640.203,28625.574,-46.596,163.187,0.000,0.398,-12.257,-0.062,-0.012,0.009,0.003,0.000,0.000
78.094,3,0,-2.206,0.935,7875.427,-1.996,1.101,155.975,-0.782,0.598,-12.299,70.000,17.500,0.0093231,10035.804,9144.000,0.687,2.568,7716.897,157.206,285.599,-46.695,9487.558,8638.028,-12.336,-0.019,0.221,-0.039,0.004,-0.053,0.000,0.000,0.000,-0.027,0.691,0.010,0.723,0.0000000,0.0000000,8656.271,0.000,0.000,0.000,0,00:00:00,-106598,0.000,8656.271,28555.742,-46.701,161.951,0.000,0.328,-12.429,-0.011,-0.011,-0.007,0.009,0.000,0.000
78.195,3,0,-2.180,0.949,8079.307,-1.965,1.119,158.486,-0.844,0.679,-12.363,0.000,15.000,0.0093231,8971.171,9144.000,0.518,2.539,7732.494,155.970,284.884,-46.803,9504.158,8654.628,-12.407,0.033,0.264,-0.022,-0.011,-0.011,0.000,0.000,0.000,-0.028,0.690,0.010,0.723,0.0000000,0.0000000,8672.217,0.000,0.000,0.000,0,00:00:00,-106523,0.000,8672.217,28488.279,-46.803,160.734,0.000,0.283,-12.116,-0.083,-0.014,-0.013,0.012,0.000,0.000
78.296,3,0,-2.154,0.962,8085.646,-1.936,1.116,155.304,-0.847,0.475,-12.181,45.000,17.500,0.0093231,9216.966,9144.000,0.527,2.598,7747.969,154.752,284.204,-46.906,9519.973,8670.443,-12.215,-0.145,0.287,0.011,0.005,-0.017,0.000,0.000,0.000,-0.028,0.691,0.009,0.723,0.0000000,0.0000000,8688.039,0.000,0.000,0.000,0,00:00:00,-112731,0.000,8688.039,28419.535,-46.907,159.508,0.000,0.307,-12.339,0.083,-0.005,0.000,0.003,0.000,0.000
78.397,3,0,-2.128,0.975,8112.721,-1.912,1.135,152.909,-0.874,0.703,-12.297,25.000,20.000,0.0093231,9175.802,9144.000,0.516,2.570,7763.321,153.522,283.548,-47.006,9535.273,8685.743,-12.344,0.123,0.307,0.037,0.007,-0.013,0.000,0.000,0.000,-0.027,0.691,0.007,0.723,0.0000000,0.0000000,8703.736,0.000,0.000,0.000,0,00:00:00,-134210,0.000,8703.736,28351.330,-47.011,158.264,0.000,0.323,-12.573,-0.082,-0.002,-0.008,0.008,0.000,0.000
78.498,3,0,-2.102,0.987,8136.797,-1.900,1.133,151.925,-0.986,0.500,-12.555,25.000,22.500,0.0093231,9164.035,9144.000,0.508,2.538,7778.548,152.267,282.894,-47.105,9550.537,8701.007,-12.597,-0.083,0.407,0.005,-0.006,0.003,0.000,0.000,0.000,-0.027,0.691,0.007,0.723,0.0000000,0.0000000,8719.308,0.000,0.000,0.000,0,00:00:00,-158069,0.000,8719.308,28282.564,-47.115,157.011,0.000,0.293,-12.630,-0.007,-0.008,0.009,-0.012,0.000,0.000
78.599,3,0,-2.079,0.997,8155.750,-1.903,1.116,152.223,-1.124,0.351,-12.701,35.000,25.000,0.0093231,9170.511,9144.000,0.505,2.572,7793.648,150.997,282.225,-47.207,9566.200,8716.670,-12.743,-0.204,0.537,0.026,-0.004,0.010,0.000,0.000,0.000,-0.025,0.690,0.007,0.723,0.0000000,0.0000000,8734.750,0.000,0.000,0.000,0,00:00:00,-181898,0.000,8734.750,28224.014,-47.204,155.744,0.000,0.326,-12.705,-0.056,0.007,0.015,-0.002,0.000,0.000
78.700,3,0,-2.058,1.005,8169.847,-1.893,1.107,150.979,-0.991,0.439,-12.818,45.000,27.500,0.0093231,9184.952,9144.000,0.506,2.598,7808.619,149.715,281.562,-47.308,9581.747,8732.217,-12.858,-0.095,0.400,0.023,0.003,0.008,0.000,0.000,0.000,-0.024,0.691,0.006,0.723,0.0000000,0.0000000,8750.065,0.000,0.000,0.000,0,00:00:00,-205643,0.000,8750.065,28156.176,-47.308,154.469,0.000,0.260,-12.836,-0.027,0.013,0.001,-0.008,0.000,0.000
78.801,3,0,-2.036,1.013,8189.278,-1.859,1.123,147.932,-0.728,0.691,-12.755,45.000,30.000,0.0093231,9179.171,9144.000,0.502,2.586,7823.463,148.439,280.931,-47.404,9596.568,8747.038,-12.793,0.106,0.155,-0.039,0.018,-0.036,0.000,0.000,0.000,-0.027,0.691,0.006,0.722,0.0000000,0.0000000,8765.250,0.000,0.000,0.000,0,00:00:00,-229310,0.000,8765.250,28093.986,-47.403,153.181,0.000,0.392,-12.924,-0.041,-0.013,0.003,0.006,0.000,0.000
78.902,3,0,-2.014,1.022,8215.378,-1.835,1.145,147.655,-0.826,0.752,-13.026,35.000,32.500,0.0093231,9156.182,9144.000,0.492,2.476,7838.177,147.137,280.292,-47.502,9611.604,8762.074,-13.071,0.134,0.266,-0.019,0.021,-0.013,0.000,0.000,0.000,-0.028,0.692,0.006,0.721,0.0000000,0.0000000,8780.305,0.000,0.000,0.000,0,00:00:00,-253020,0.000,8780.305,28033.832,-47.495,151.888,0.000,0.366,-12.943,-0.074,0.003,-0.011,-0.011,0.000,0.000
79.003,3,0,-1.993,1.031,8231.241,-1.825,1.148,147.264,-0.949,0.577,-12.966,55.000,35.000,0.0093231,9175.173,9144.000,0.491,2.353,7852.761,145.840,279.647,-47.601,9626.813,8777.283,-13.008,-0.042,0.386,-0.007,-0.008,-0.004,0.000,0.000,0.000,-0.029,0.692,0.006,0.722,0.0000000,0.0000000,8795.228,0.000,0.000,0.000,0,00:00:00,-276726,0.000,8795.228,27967.465,-47.597,150.583,0.000,0.397,-13.006,0.022,-0.011,-0.001,0.010,0.000,0.000
79.104,3,0,-1.972,1.039,8247.061,-1.821,1.153,143.539,-0.998,0.590,-12.972,55.000,37.500,0.0093231,9180.384,9144.000,0.490,2.400,7867.215,144.543,279.043,-47.694,9641.074,8791.544,-13.016,-0.003,0.444,0.018,0.008,-0.014,0.000,0.000,0.000,-0.028,0.692,0.005,0.721,0.0000000,0.0000000,8810.019,0.000,0.000,0.000,0,00:00:00,-300456,0.000,8810.019,27903.531,-47.695,149.274,0.000,0.410,-12.985,0.025,-0.003,-0.003,0.000,0.000,0.000
79.205,3,0,-1.953,1.047,8275.352,-1.804,1.146,144.161,-0.856,0.484,-13.187,45.000,40.000,0.0093231,9151.039,9144.000,0.478,2.357,7881.537,143.224,278.418,-47.790,9655.855,8806.325,-13.220,-0.127,0.272,-0.001,-0.019,0.021,0.000,0.000,0.000,-0.028,0.691,0.006,0.722,0.0000000,0.0000000,8824.678,0.000,0.000,0.000,0,00:00:00,-324252,0.000,8824.678,27841.332,-47.790,147.957,0.000,0.344,-13.169,-0.071,0.001,0.004,-0.007,0.000,0.000
79.306,3,0,-1.936,1.053,8287.396,-1.821,1.141,142.557,-1.191,0.508,-13.175,60.000,42.500,0.0093231,9181.066,9144.000,0.480,2.467,7895.728,141.907,277.805,-47.884,9670.407,8820.877,-13.224,-0.074,0.603,0.013,-0.001,-0.015,0.000,0.000,0.000,-0.028,0.691,0.005,0.722,0.0000000,0.0000000,8839.204,0.000,0.000,0.000,0,00:00:00,-347950,0.000,8839.204,27779.057,-47.886,146.637,0.000,0.279,-13.130,-0.005,-0.001,-0.012,0.010,0.000,0.000
79.407,3,0,-1.920,1.060,8307.551,-1.809,1.155,141.289,-0.884,0.699,-13.245,60.000,45.000,0.0093231,9172.454,9144.000,0.475,2.475,7909.786,140.582,277.197,-47.978,9684.843,8835.313,-13.288,0.067,0.356,-0.026,0.049,0.038,0.000,0.000,0.000,-0.027,0.693,0.007,0.720,0.0000000,0.0000000,8853.597,0.000,0.000,0.000,0,00:00:00,-371677,0.000,8853.597,27718.877,-47.979,145.310,0.000,0.345,-13.340,-0.016,0.007,0.009,-0.003,0.000,0.000
79.508,3,0,-1.904,1.067,8326.239,-1.780,1.178,139.312,-0.719,0.783,-13.310,65.000,47.500,0.0093231,9174.980,9144.000,0.471,2.192,7923.711,139.251,276.604,-48.070,9698.928,8849.398,-13.350,0.152,0.195,0.007,0.006,0.017,0.000,0.000,0.000,-0.026,0.693,0.008,0.720,0.0000000,0.0000000,8867.855,0.000,0.000,0.000,0,00:00:00,-395475,0.000,8867.855,27663.416,-48.065,143.982,0.000,0.338,-13.339,-0.036,0.002,-0.000,0.000,0.000,0.000
79.609,3,0,-1.888,1.075,8347.663,-1.781,1.178,139.585,-1.003,0.567,-13.292,65.000,50.000,0.0093231,9170.196,9144.000,0.464,2.160,7937.504,137.922,275.996,-48.164,9713.418,8863.888,-13.334,-0.050,0.454,0.006,-0.024,0.008,0.000,0.000,0.000,-0.026,0.692,0.008,0.721,0.0000000,0.0000000,8881.980,0.000,0.000,0.000,0,00:00:00,-419321,0.000,8881.980,27600.658,-48.162,142.649,0.000,0.306,-13.350,0.011,-0.001,0.014,-0.008,0.000,0.000
79.710,3,0,-1.874,1.082,8360.238,-1.779,1.181,135.695,-0.964,0.594,-13.354,70.000,52.500,0.0093231,9190.723,9144.000,0.465,2.297,7951.162,136.587,275.431,-48.252,9726.913,8877.383,-13.397,0.009,0.378,0.025,-0.023,-0.032,0.000,0.000,0.000,-0.026,0.691,0.006,0.722,0.0000000,0.0000000,8895.972,0.000,0.000,0.000,0,00:00:00,-443150,0.000,8895.972,27543.955,-48.250,141.316,0.000,0.353,-13.410,-0.027,-0.001,0.010,0.002,0.000,0.000
79.811,3,0,-1.861,1.089,8388.244,-1.773,1.195,135.296,-0.914,0.718,-13.366,60.000,55.000,0.0093231,9160.682,9144.000,0.452,2.434,7964.687,135.250,274.859,-48.341,9740.589,8891.059,-13.413,0.124,0.292,-0.004,-0.025,0.013,0.000,0.000,0.000,-0.026,0.691,0.006,0.723,0.0000000,0.0000000,8909.829,0.000,0.000,0.000,0,00:00:00,-466929,0.000,8909.829,27482.961,-48.345,139.980,0.000,0.338,-13.475,-0.044,-0.003,-0.011,-0.000,0.000,0.000
79.912,3,0,-1.847,1.096,8403.298,-1.753,1.198,134.730,-0.778,0.602,-13.263,70.000,57.500,0.0093231,9181.697,9144.000,0.451,2.576,7978.080,133.924,274.283,-48.430,9754.387,8904.857,-13.299,-0.021,0.167,-0.022,0.001,0.022,0.000,0.000,0.000,-0.026,0.691,0.008,0.723,0.0000000,0.0000000,8923.552,0.000,0.000,0.000,0,00:00:00,-490735,0.000,8923.552,27431.744,-48.425,138.646,0.000,0.346,-13.423,-0.004,-0.024,0.004,0.006,0.000,0.000
80.013,3,0,-1.834,1.103,8418.832,-1.749,1.208,133.322,-0.927,0.686,-13.236,70.000,60.000,0.0093231,9189.294,9144.000,0.449,2.567,7991.340,132.600,273.715,-48.519,9768.022,8918.492,-13.282,0.053,0.321,-0.010,0.004,0.017,0.000,0.000,0.000,-0.026,0.691,0.009,0.723,0.0000000,0.0000000,8937.141,0.000,0.000,0.000,0,00:00:00,-514545,0.000,8937.141,27368.777,-48.523,137.310,0.000,0.347,-13.355,-0.073,0.011,0.006,0.003,0.000,0.000
80.114,3,0,-1.822,1.111,8431.052,-1.745,1.220,91.894,-0.920,0.701,-13.236,70.000,62.500,0.0093231,9188.318,9144.000,0.445,2.543,8004.467,131.277,273.715,-48.519,9768.022,8918.492,-13.282,0.053,0.321,-0.010,0.004,0.017,0.000,0.000,0.000,-0.025,0.691,0.010,0.722,0.0000000,0.0000000,8937.141,0.000,0.000,0.000,0,00:00:00,-538389,0.000,8937.141,27368.777,-48.523,137.310,0.000,0.347,-13.355,-0.073,0.011,0.006,0.003,0.000,0.000
