State - Time (s),State - Stage,State - Stage,State - PX (m),State - PY (m),State - PZ (m),State - VX (m/s),State - VY (m/s),State - VZ (m/s),State - AX (m/s/s),State - AY (m/s/s),State - AZ (m/s/s),State - Actuation Angle (deg),State - Acutal Angle (deg),State - CdA,State - Est Apo (m),State - Target Apogee (m),State - Mach Number,State - Tilt [deg],State - Pos - Accel Integrated [m],State - Velo - Accel Integrated [m/s],MockBarometer - Pres (hPa),MockBarometer - Temp (C),MockBarometer - Alt ASL (m),MockBarometer - Alt AGL (m),MockIMU - AccX (m/s^2),MockIMU - AccY (m/s^2),MockIMU - AccZ (m/s^2),MockIMU - GyroX (rad/s),MockIMU - GyroY (rad/s),MockIMU - GyroZ (rad/s),MockIMU - MagX (uT),MockIMU - MagY (uT),MockIMU - MagZ (uT),MockIMU - OriX,MockIMU - OriY,MockIMU - OriZ,MockIMU - OriW,MockGPS - Lat,MockGPS - Lon,MockGPS - Alt (m),MockGPS - Disp X (m),MockGPS - Disp Y (m),MockGPS - Disp Z (m),MockGPS - Fix Quality,MockGPS - Time of Day,E5 - Rel Steps,MockBR - Battery Voltage (V),MockBR - ALT (m),MockBR - PRES (Pa),MockBR - TEMP (C),MockBR - VEL (m/s),MockBR - ANG (deg),MockBR - ACCX (m/s^2),MockBR - ACCY (m/s^2),MockBR - ACCZ (m/s^2),MockBR - GYROX (rad/s),MockBR - GYROY (rad/s),MockBR - GYROZ (rad/s),MockBR - ROLL (deg),MockBR - TILT (deg)
32.255,1,0,-1.363,0.363,1.995,-0.935,0.067,17.056,3.860,-3.833,123.920,0.000,0.000,0.0103675,0.000,9144.000,0.004,2.055,17.148,14.975,915.004,9.462,851.594,1.978,124.039,-0.066,0.360,-0.009,0.017,0.009,0.000,0.000,0.000,-0.009,0.695,0.013,0.719,0.0000000,0.0000000,1.860,0.000,0.000,0.000,0,00:00:00,-22,0.000,1.860,91498.227,9.461,12.409,0.000,0.352,124.146,-0.048,0.002,-0.013,-0.008,0.000,0.000
32.356,1,0,-1.300,0.317,6.165,-0.484,-0.323,28.680,3.777,-3.692,124.949,0.000,0.000,0.0103675,0.000,9144.000,0.051,1.959,19.895,27.470,914.652,9.442,854.776,5.160,125.060,0.168,0.305,-0.005,0.014,-0.018,0.000,0.000,0.000,-0.010,0.695,0.012,0.718,0.0000000,0.0000000,4.974,0.000,0.000,0.000,0,00:00:00,-21,0.000,4.974,91461.352,9.439,24.910,0.000,0.441,125.104,-0.021,-0.008,0.002,0.000,0.000,0.000
32.457,1,0,-1.203,0.240,11.177,-0.050,-0.706,41.015,3.664,-3.660,125.874,0.000,0.000,0.0103675,0.000,9144.000,0.085,1.876,23.901,40.057,914.168,9.413,859.144,9.528,125.980,-0.010,0.499,0.019,-0.004,0.000,0.000,0.000,0.000,-0.009,0.695,0.011,0.719,0.0000000,0.0000000,9.350,0.000,0.000,0.000,0,00:00:00,-21,0.000,9.350,91419.938,9.415,37.501,0.000,0.402,125.922,-0.013,-0.008,-0.009,-0.014,0.000,0.000
32.558,1,0,-1.075,0.137,17.128,0.372,-1.067,52.461,3.618,-3.511,126.669,0.000,0.000,0.0103675,0.000,9144.000,0.122,1.899,29.173,52.724,913.590,9.379,864.381,14.764,126.769,0.034,0.422,0.010,0.012,-0.002,0.000,0.000,0.000,-0.009,0.696,0.011,0.718,0.0000000,0.0000000,14.999,0.000,0.000,0.000,0,00:00:00,-21,0.000,14.999,91354.344,9.376,50.181,0.000,0.347,126.751,-0.052,0.011,-0.011,0.014,0.000,0.000
32.659,1,0,-0.921,0.009,24.478,0.785,-1.434,65.822,3.601,-3.625,127.563,0.000,0.000,0.0103675,0.000,9144.000,0.156,1.831,35.721,65.481,912.846,9.335,871.109,21.493,127.665,-0.011,0.456,-0.004,0.001,-0.006,0.000,0.000,0.000,-0.009,0.696,0.011,0.718,0.0000000,0.0000000,21.927,0.000,0.000,0.000,0,00:00:00,-21,0.000,21.927,91290.484,9.339,62.948,0.000,0.317,127.727,-0.033,0.002,-0.001,0.005,0.000,0.000
32.760,1,0,-0.745,-0.138,33.564,1.169,-1.777,80.088,3.408,-3.468,128.563,0.000,0.000,0.0103675,0.000,9144.000,0.196,1.826,43.555,78.337,911.908,9.280,879.611,29.994,128.654,0.113,0.387,0.006,0.022,0.046,0.000,0.000,0.000,-0.007,0.696,0.012,0.717,0.0000000,0.0000000,30.144,0.000,0.000,0.000,0,00:00:00,-21,0.000,30.144,91197.992,9.284,75.802,0.000,0.321,128.581,0.020,0.018,0.017,0.013,0.000,0.000
32.861,1,0,-0.552,-0.303,43.710,1.533,-2.114,92.066,3.317,-3.494,129.263,0.000,0.000,0.0103675,0.000,9144.000,0.238,1.701,52.681,91.263,910.861,9.218,889.098,39.482,129.352,-0.021,0.396,0.010,0.008,0.005,0.000,0.000,0.000,-0.007,0.697,0.012,0.717,0.0000000,0.0000000,39.658,0.000,0.000,0.000,0,00:00:00,-21,0.000,39.658,91081.641,9.216,88.741,0.000,0.285,129.388,-0.020,0.008,0.010,-0.005,0.000,0.000
32.962,1,0,-0.343,-0.485,55.188,1.900,-2.484,105.917,3.450,-3.919,129.891,0.000,0.000,0.0103675,0.000,9144.000,0.274,1.656,63.106,104.252,909.639,9.146,900.188,50.572,129.995,-0.206,0.269,-0.017,0.000,0.013,0.000,0.000,0.000,-0.007,0.697,0.013,0.717,0.0000000,0.0000000,50.478,0.000,0.000,0.000,0,00:00:00,-21,0.000,50.478,90966.078,9.148,101.763,0.000,0.233,130.252,0.009,-0.010,-0.000,-0.003,0.000,0.000
33.063,1,0,-0.124,-0.683,67.677,2.188,-2.822,117.308,2.793,-3.704,130.978,0.000,0.000,0.0103675,0.000,9144.000,0.315,1.655,74.841,117.350,908.336,9.069,912.027,62.410,131.059,-0.081,0.526,0.009,0.033,-0.008,0.000,0.000,0.000,-0.007,0.698,0.013,0.716,0.0000000,0.0000000,62.611,0.000,0.000,0.000,0,00:00:00,-21,0.000,62.611,90833.305,9.069,114.867,0.000,0.335,131.020,0.011,-0.002,-0.004,-0.003,0.000,0.000
33.164,1,0,0.102,-0.893,81.437,2.488,-3.173,130.929,3.021,-3.949,131.820,0.000,0.000,0.0103675,0.000,9144.000,0.349,1.465,87.895,130.532,906.872,8.983,925.344,75.728,131.913,-0.090,0.434,-0.016,-0.009,0.012,0.000,0.000,0.000,-0.007,0.698,0.014,0.716,0.0000000,0.0000000,76.066,0.000,0.000,0.000,0,00:00:00,-21,0.000,76.066,90688.102,8.983,128.049,0.000,0.359,131.814,-0.042,-0.010,-0.008,0.019,0.000,0.000
33.265,1,0,0.334,-1.115,96.684,2.786,-3.523,144.636,3.122,-4.048,132.442,0.000,0.000,0.0103675,0.000,9144.000,0.390,1.517,102.272,143.776,905.246,8.886,940.155,90.538,132.540,-0.082,0.468,-0.006,-0.010,0.041,0.000,0.000,0.000,-0.006,0.697,0.015,0.717,0.0000000,0.0000000,90.849,0.000,0.000,0.000,0,00:00:00,-21,0.000,90.849,90532.531,8.891,141.308,0.000,0.415,132.563,0.036,0.014,0.002,-0.009,0.000,0.000
33.366,1,0,0.573,-1.348,113.337,3.131,-3.847,158.755,3.723,-3.925,133.440,0.000,0.000,0.0103675,0.000,9144.000,0.431,1.575,117.984,157.120,903.447,8.780,956.575,106.958,133.549,-0.051,0.340,0.009,-0.033,-0.017,0.000,0.000,0.000,-0.006,0.696,0.014,0.718,0.0000000,0.0000000,106.969,0.000,0.000,0.000,0,00:00:00,-21,0.000,106.969,90349.180,8.782,154.641,0.000,0.267,133.356,0.012,0.008,0.007,-0.005,0.000,0.000
33.467,1,0,0.822,-1.589,131.119,3.480,-4.179,170.884,3.882,-4.118,134.037,0.000,0.000,0.0103675,0.000,9144.000,0.473,1.763,135.037,170.524,901.549,8.667,973.919,124.302,134.156,-0.037,0.337,-0.014,-0.010,-0.009,0.000,0.000,0.000,-0.007,0.696,0.015,0.718,0.0000000,0.0000000,124.431,0.000,0.000,0.000,0,00:00:00,-21,0.000,124.431,90164.367,8.673,168.044,0.000,0.348,133.974,-0.065,-0.007,0.016,0.002,0.000,0.000
33.568,1,0,1.077,-1.836,150.272,3.787,-4.494,185.638,3.611,-4.083,134.712,0.000,0.000,0.0103675,0.000,9144.000,0.509,1.821,153.436,183.995,899.458,8.542,993.055,143.439,134.822,0.052,0.455,-0.003,0.013,-0.008,0.000,0.000,0.000,-0.007,0.696,0.014,0.718,0.0000000,0.0000000,143.243,0.000,0.000,0.000,0,00:00:00,-21,0.000,143.243,89951.969,8.546,181.515,0.000,0.333,134.668,-0.049,0.002,-0.017,0.002,0.000,0.000
33.669,1,0,1.337,-2.090,170.569,4.099,-4.811,196.408,3.794,-4.239,135.163,0.000,0.000,0.0103675,0.000,9144.000,0.553,1.746,173.187,197.511,897.324,8.415,1012.632,163.016,135.282,0.066,0.278,-0.011,0.001,0.001,0.000,0.000,0.000,-0.008,0.696,0.015,0.718,0.0000000,0.0000000,163.410,0.000,0.000,0.000,0,00:00:00,-21,0.000,163.410,89727.938,8.413,195.048,0.000,0.277,135.301,-0.083,0.002,-0.008,0.025,0.000,0.000
33.770,1,0,1.600,-2.348,192.280,4.378,-5.112,212.732,3.600,-4.212,135.792,0.000,0.000,0.0103675,0.000,9144.000,0.585,1.743,194.296,211.091,894.944,8.273,1034.505,184.889,135.905,-0.190,0.339,0.022,0.011,0.002,0.000,0.000,0.000,-0.007,0.697,0.014,0.717,0.0000000,0.0000000,184.938,0.000,0.000,0.000,0,00:00:00,-21,0.000,184.938,89499.320,8.276,208.641,0.000,0.383,135.954,-0.012,-0.012,-0.003,-0.005,0.000,0.000
33.871,1,0,1.863,-2.608,215.410,4.651,-5.392,224.936,3.686,-4.151,136.303,0.000,0.000,0.0103675,0.000,9144.000,0.634,1.679,216.768,224.721,892.472,8.125,1057.274,207.658,136.415,0.038,0.295,-0.011,-0.002,0.004,0.000,0.000,0.000,-0.007,0.697,0.015,0.717,0.0000000,0.0000000,207.833,0.000,0.000,0.000,0,00:00:00,-21,0.000,207.833,89253.508,8.129,222.286,0.000,0.291,136.433,0.042,-0.006,0.003,0.009,0.000,0.000
33.972,1,0,2.125,-2.871,239.701,4.903,-5.694,237.852,3.613,-4.500,136.872,0.000,0.000,0.0103675,0.000,9144.000,0.671,1.691,240.609,238.408,889.884,7.970,1081.166,231.550,136.993,0.067,0.396,-0.026,-0.001,0.016,0.000,0.000,0.000,-0.007,0.697,0.016,0.717,0.0000000,0.0000000,232.099,0.000,0.000,0.000,0,00:00:00,-21,0.000,232.099,88994.250,7.973,235.980,0.000,0.291,136.890,-0.073,0.005,0.009,0.007,0.000,0.000
34.073,1,0,2.385,-3.137,264.153,5.143,-6.019,176.466,3.623,-4.860,136.859,0.000,0.000,0.0103675,0.000,9144.000,0.709,1.700,265.819,252.094,889.884,7.970,1081.166,231.550,136.993,0.067,0.396,-0.026,-0.001,0.016,0.000,0.000,0.000,-0.008,0.696,0.018,0.717,0.0000000,0.0000000,232.099,0.000,0.000,0.000,0,00:00:00,-21,0.000,232.099,88994.250,7.973,235.980,0.000,0.291,136.890,-0.073,0.005,0.009,0.007,0.000,0.000
34.174,1,0,2.643,-3.408,290.083,5.391,-6.334,343.415,3.849,-4.912,137.402,0.000,0.000,0.0103675,0.000,9144.000,0.527,1.709,292.402,265.834,884.169,7.625,1134.135,284.518,137.543,-0.071,0.465,0.007,-0.020,-0.012,0.000,0.000,0.000,-0.008,0.696,0.017,0.718,0.0000000,0.0000000,284.758,0.000,0.000,0.000,0,00:00:00,-21,0.000,284.758,88411.195,7.622,263.487,0.000,0.328,137.777,-0.036,-0.002,0.006,0.011,0.000,0.000
34.275,1,0,2.901,-3.683,320.364,5.665,-6.664,279.617,4.242,-5.209,137.830,0.000,0.000,0.0103675,0.000,9144.000,1.025,1.823,320.364,279.617,881.115,7.440,1162.546,312.929,137.993,-0.068,0.193,-0.020,-0.008,-0.004,0.000,0.000,0.000,-0.009,0.695,0.017,0.718,0.0000000,0.0000000,313.156,0.000,0.000,0.000,0,00:00:00,-21,0.000,313.156,88104.570,7.436,277.286,0.000,0.406,137.996,0.005,0.007,0.007,0.009,0.000,0.000
34.376,1,0,3.158,-3.961,349.705,5.898,-6.966,293.409,3.961,-5.070,137.924,0.000,0.000,0.0103675,0.000,9144.000,0.835,1.868,349.705,293.409,877.963,7.249,1191.956,342.339,138.073,-0.085,0.419,0.011,0.005,-0.011,0.000,0.000,0.000,-0.009,0.696,0.017,0.718,0.0000000,0.0000000,342.937,0.000,0.000,0.000,0,00:00:00,-21,0.000,342.937,87779.914,7.239,291.105,0.000,0.327,138.237,0.022,0.011,-0.009,0.007,0.000,0.000
34.477,1,0,3.410,-4.243,380.427,6.086,-7.316,307.228,3.653,-5.700,138.184,0.000,0.000,0.0103675,0.000,9144.000,0.876,1.841,380.427,307.228,874.620,7.046,1223.246,373.629,138.349,-0.128,0.370,-0.042,0.027,-0.006,0.000,0.000,0.000,-0.010,0.697,0.018,0.717,0.0000000,0.0000000,374.100,0.000,0.000,0.000,0,00:00:00,-21,0.000,374.100,87465.203,7.048,304.933,0.000,0.292,138.346,-0.022,-0.016,0.010,-0.002,0.000,0.000
34.578,1,0,3.655,-4.530,412.531,6.274,-7.670,321.035,3.789,-5.880,138.072,0.000,0.000,0.0103675,0.000,9144.000,0.918,1.691,412.531,321.035,871.139,6.833,1255.932,406.315,138.249,-0.039,0.283,-0.020,-0.003,-0.013,0.000,0.000,0.000,-0.012,0.696,0.018,0.717,0.0000000,0.0000000,406.644,0.000,0.000,0.000,0,00:00:00,-21,0.000,406.644,87117.008,6.835,318.763,0.000,0.330,138.319,-0.018,0.009,-0.021,0.026,0.000,0.000
34.679,1,0,3.895,-4.823,446.014,6.457,-8.017,334.826,3.860,-5.979,137.910,0.000,0.000,0.0103675,0.000,9144.000,0.959,1.711,446.014,334.826,867.544,6.613,1289.790,440.173,138.093,-0.106,0.320,-0.003,-0.008,0.002,0.000,0.000,0.000,-0.012,0.696,0.018,0.718,0.0000000,0.0000000,440.570,0.000,0.000,0.000,0,00:00:00,-21,0.000,440.570,86761.383,6.617,332.583,0.000,0.239,138.168,0.023,0.000,-0.005,0.009,0.000,0.000
34.780,1,0,4.130,-5.118,480.874,6.670,-8.322,348.608,4.281,-5.706,137.816,0.000,0.000,0.0103675,0.000,9144.000,1.001,1.758,480.874,348.608,863.813,6.384,1325.058,475.441,138.000,0.147,0.238,0.001,-0.025,0.007,0.000,0.000,0.000,-0.011,0.695,0.019,0.718,0.0000000,0.0000000,475.873,0.000,0.000,0.000,0,00:00:00,-21,0.000,475.873,86382.484,6.384,346.381,0.000,0.284,138.017,0.068,0.006,-0.001,0.020,0.000,0.000
34.881,1,0,4.360,-5.412,517.113,6.818,-8.595,362.386,3.762,-5.554,137.781,0.000,0.000,0.0103675,0.000,9144.000,1.042,1.901,517.113,362.386,859.947,6.145,1361.723,512.107,137.944,0.095,0.304,0.015,0.032,0.021,0.000,0.000,0.000,-0.010,0.696,0.019,0.717,0.0000000,0.0000000,512.556,0.000,0.000,0.000,0,00:00:00,-21,0.000,512.556,85998.992,6.148,360.183,0.000,0.339,138.075,0.062,-0.000,-0.006,-0.015,0.000,0.000
34.982,1,0,4.581,-5.702,554.730,6.954,-8.860,376.169,3.752,-5.616,137.835,0.000,0.000,0.0103675,0.000,9144.000,1.084,1.717,554.730,376.169,855.948,5.898,1399.802,550.185,137.999,-0.099,0.383,0.009,-0.005,-0.010,0.000,0.000,0.000,-0.010,0.696,0.018,0.718,0.0000000,0.0000000,550.619,0.000,0.000,0.000,0,00:00:00,-21,0.000,550.619,85601.023,5.901,373.995,0.000,0.296,138.182,-0.086,0.010,0.009,-0.019,0.000,0.000
35.083,1,0,4.793,-5.989,593.725,7.085,-9.095,389.953,3.821,-5.482,137.838,0.000,0.000,0.0103675,0.000,9144.000,1.126,1.743,593.725,389.953,855.948,5.898,1399.802,550.185,137.999,-0.099,0.383,0.009,-0.005,-0.010,0.000,0.000,0.000,-0.010,0.696,0.017,0.718,0.0000000,0.0000000,550.619,0.000,0.000,0.000,0,00:00:00,-21,0.000,550.619,85601.023,5.901,373.995,0.000,0.296,138.182,-0.086,0.010,0.009,-0.019,0.000,0.000
35.184,1,0,4.998,-6.269,634.099,7.213,-9.302,403.737,3.890,-5.348,137.841,0.000,0.000,0.0103675,0.000,9144.000,1.167,1.769,634.099,403.737,855.948,5.898,1399.802,550.185,137.999,-0.099,0.383,0.009,-0.005,-0.010,0.000,0.000,0.000,-0.010,0.696,0.017,0.718,0.0000000,0.0000000,550.619,0.000,0.000,0.000,0,00:00:00,-21,0.000,550.619,85601.023,5.901,373.995,0.000,0.296,138.182,-0.086,0.010,0.009,-0.019,0.000,0.000
35.285,1,0,5.194,-6.540,675.851,7.337,-9.482,417.522,3.959,-5.214,137.845,0.000,0.000,0.0103675,0.000,9144.000,1.208,1.795,675.851,417.522,855.948,5.898,1399.802,550.185,137.999,-0.099,0.383,0.009,-0.005,-0.010,0.000,0.000,0.000,-0.010,0.696,0.016,0.718,0.0000000,0.0000000,550.619,0.000,0.000,0.000,0,00:00:00,-21,0.000,550.619,85601.023,5.901,373.995,0.000,0.296,138.182,-0.086,0.010,0.009,-0.019,0.000,0.000
35.386,1,0,5.384,-6.801,718.985,7.469,-9.632,431.335,4.140,-5.063,138.139,0.000,0.000,0.0103675,0.000,9144.000,1.250,1.821,718.985,431.335,1579.916,58.742,-3907.982,-4757.598,138.293,-0.138,0.323,0.016,-0.010,0.035,0.000,0.000,0.000,-0.008,0.695,0.017,0.718,0.0000000,0.0000000,716.686,0.000,0.000,0.000,0,00:00:00,-21,0.000,716.686,157986.281,58.740,429.279,0.000,0.328,138.180,0.018,-0.011,-0.006,-0.023,0.000,0.000
35.487,1,0,5.568,-7.052,763.496,7.597,-9.822,445.110,4.194,-5.588,137.743,0.000,0.000,0.0103675,0.000,9144.000,1.184,1.874,763.496,445.110,1693.148,66.056,-4547.232,-5396.848,137.920,-0.174,0.366,-0.036,-0.008,0.011,0.000,0.000,0.000,-0.009,0.695,0.018,0.719,0.0000000,0.0000000,761.654,0.000,0.000,0.000,0,00:00:00,-21,0.000,761.654,169317.781,66.059,443.090,0.000,0.355,138.119,-0.029,-0.021,0.004,0.012,0.000,0.000
35.588,1,0,5.749,-7.296,809.385,7.782,-9.975,458.896,4.860,-5.357,137.860,0.000,0.000,0.0103675,0.000,9144.000,1.208,1.924,809.385,458.896,1809.904,73.416,-5171.097,-6020.713,138.049,-0.158,0.360,0.016,-0.047,-0.006,0.000,0.000,0.000,-0.009,0.693,0.018,0.720,0.0000000,0.0000000,808.000,0.000,0.000,0.000,0,00:00:00,-21,0.000,808.000,180978.875,73.424,456.889,0.000,0.271,138.075,0.099,-0.005,0.030,-0.014,0.000,0.000
35.689,1,0,5.930,-7.532,856.652,7.950,-10.150,472.665,4.782,-5.696,137.695,0.000,0.000,0.0103675,0.000,9144.000,1.232,2.195,856.652,472.665,1930.083,80.836,-5780.098,-6629.715,137.895,-0.095,0.395,-0.029,0.002,0.018,0.000,0.000,0.000,-0.009,0.693,0.019,0.720,0.0000000,0.0000000,855.724,0.000,0.000,0.000,0,00:00:00,-21,0.000,855.724,193015.016,80.833,470.674,0.000,0.399,137.760,-0.007,0.000,-0.009,0.011,0.000,0.000
35.790,1,0,6.108,-7.764,905.295,8.105,-10.355,486.433,4.743,-6.105,137.679,0.000,0.000,0.0103675,0.000,9144.000,1.256,2.185,905.295,486.433,1930.083,80.836,-5780.098,-6629.715,137.895,-0.095,0.395,-0.029,0.002,0.018,0.000,0.000,0.000,-0.010,0.693,0.021,0.720,0.0000000,0.0000000,855.724,0.000,0.000,0.000,0,00:00:00,-21,0.000,855.724,193015.016,80.833,470.674,0.000,0.399,137.760,-0.007,0.000,-0.009,0.011,0.000,0.000
35.891,1,0,6.282,-7.991,955.313,8.230,-10.541,500.176,4.547,-6.048,137.429,0.000,0.000,0.0103675,0.000,9144.000,1.293,2.175,955.313,500.176,1082.030,23.361,-557.187,-1406.804,137.636,0.065,0.311,-0.009,0.021,-0.025,0.000,0.000,0.000,-0.011,0.694,0.020,0.719,0.0000000,0.0000000,904.822,0.000,0.000,0.000,0,00:00:00,-21,0.000,904.822,108202.469,23.362,484.443,0.000,0.367,137.727,-0.025,-0.006,0.012,-0.005,0.000,0.000
35.992,1,0,6.450,-8.214,1006.704,8.320,-10.727,513.919,4.274,-6.162,137.432,0.000,0.000,0.0103675,0.000,9144.000,1.452,2.056,1006.704,513.919,1082.030,23.361,-557.187,-1406.804,137.636,0.065,0.311,-0.009,0.021,-0.025,0.000,0.000,0.000,-0.012,0.695,0.020,0.719,0.0000000,0.0000000,904.822,0.000,0.000,0.000,0,00:00:00,-21,0.000,904.822,108202.469,23.362,484.443,0.000,0.367,137.727,-0.025,-0.006,0.012,-0.005,0.000,0.000
36.093,1,0,6.610,-8.433,1059.470,8.420,-10.902,527.654,4.470,-6.168,137.347,0.000,0.000,0.0103675,0.000,9144.000,1.492,1.936,1059.470,527.654,1087.349,23.784,-599.071,-1448.688,137.557,-0.111,0.312,0.012,-0.015,0.008,0.000,0.000,0.000,-0.011,0.694,0.020,0.719,0.0000000,0.0000000,955.293,0.000,0.000,0.000,0,00:00:00,-21,0.000,955.293,108732.148,23.778,498.191,0.000,0.324,137.509,-0.006,0.015,0.003,0.007,0.000,0.000
36.194,1,0,6.766,-8.646,1113.609,8.532,-11.049,541.389,4.672,-6.003,137.347,0.000,0.000,0.0103675,0.000,9144.000,1.531,2.022,1113.609,541.389,1087.349,23.784,-599.071,-1448.688,137.557,-0.111,0.312,0.012,-0.015,0.008,0.000,0.000,0.000,-0.011,0.694,0.020,0.720,0.0000000,0.0000000,955.293,0.000,0.000,0.000,0,00:00:00,-21,0.000,955.293,108732.148,23.778,498.191,0.000,0.324,137.509,-0.006,0.015,0.003,0.007,0.000,0.000
36.295,1,0,6.917,-8.851,1169.121,8.657,-11.169,555.123,4.875,-5.838,137.347,0.000,0.000,0.0103675,0.000,9144.000,1.571,2.108,1169.121,555.123,1087.349,23.784,-599.071,-1448.688,137.557,-0.111,0.312,0.012,-0.015,0.008,0.000,0.000,0.000,-0.010,0.693,0.019,0.720,0.0000000,0.0000000,955.293,0.000,0.000,0.000,0,00:00:00,-21,0.000,955.293,108732.148,23.778,498.191,0.000,0.324,137.509,-0.006,0.015,0.003,0.007,0.000,0.000
36.396,1,0,7.067,-9.047,1226.007,8.795,-11.261,568.858,5.077,-5.673,137.347,0.000,0.000,0.0103675,0.000,9144.000,1.610,2.193,1226.007,568.858,1087.349,23.784,-599.071,-1448.688,137.557,-0.111,0.312,0.012,-0.015,0.008,0.000,0.000,0.000,-0.009,0.693,0.019,0.721,0.0000000,0.0000000,955.293,0.000,0.000,0.000,0,00:00:00,-21,0.000,955.293,108732.148,23.778,498.191,0.000,0.324,137.509,-0.006,0.015,0.003,0.007,0.000,0.000
36.497,1,0,7.214,-9.234,1284.263,8.912,-11.377,582.559,4.957,-6.005,137.006,0.000,0.000,0.0103675,0.000,9144.000,1.650,2.279,1284.263,582.559,1087.041,23.758,-596.654,-1446.271,137.226,-0.091,0.339,-0.027,0.006,-0.010,0.000,0.000,0.000,-0.011,0.693,0.020,0.721,0.0000000,0.0000000,1007.135,0.000,0.000,0.000,0,00:00:00,-21,0.000,1007.135,108704.156,23.756,511.918,0.000,0.365,137.300,-0.043,0.003,0.004,0.006,0.000,0.000
36.598,1,0,7.357,-9.415,1343.889,9.014,-11.520,596.258,4.876,-6.370,136.992,0.000,0.000,0.0103675,0.000,9144.000,1.690,2.244,1343.889,596.258,1087.041,23.758,-596.654,-1446.271,137.226,-0.091,0.339,-0.027,0.006,-0.010,0.000,0.000,0.000,-0.012,0.693,0.020,0.720,0.0000000,0.0000000,1007.135,0.000,0.000,0.000,0,00:00:00,-21,0.000,1007.135,108704.156,23.756,511.918,0.000,0.365,137.300,-0.043,0.003,0.004,0.006,0.000,0.000
36.699,1,0,7.495,-9.593,1404.884,9.100,-11.691,609.956,4.795,-6.736,136.978,0.000,0.000,0.0103675,0.000,9144.000,1.730,2.210,1404.884,609.956,1087.041,23.758,-596.654,-1446.271,137.226,-0.091,0.339,-0.027,0.006,-0.010,0.000,0.000,0.000,-0.013,0.693,0.021,0.720,0.0000000,0.0000000,1007.135,0.000,0.000,0.000,0,00:00:00,-21,0.000,1007.135,108704.156,23.756,511.918,0.000,0.365,137.300,-0.043,0.003,0.004,0.006,0.000,0.000
36.800,1,0,7.629,-9.771,1467.246,9.193,-11.861,623.621,4.930,-6.823,136.655,0.000,0.000,0.0103675,0.000,9144.000,1.770,2.175,1467.246,623.621,1094.407,24.340,-654.397,-1504.014,136.913,0.059,0.345,-0.019,-0.010,-0.020,0.000,0.000,0.000,-0.015,0.693,0.021,0.720,0.0000000,0.0000000,1114.919,0.000,0.000,0.000,0,00:00:00,-21,0.000,1114.919,109449.070,24.345,539.293,0.000,0.405,136.650,0.010,0.011,-0.003,0.010,0.000,0.000
36.901,1,0,7.760,-9.948,1530.970,9.319,-12.051,637.235,5.329,-7.113,136.141,0.000,0.000,0.0103675,0.000,9144.000,1.807,2.234,1530.970,637.235,1095.538,24.425,-663.234,-1512.851,136.430,-0.037,0.393,-0.016,-0.034,0.004,0.000,0.000,0.000,-0.015,0.692,0.022,0.722,0.0000000,0.0000000,1170.856,0.000,0.000,0.000,0,00:00:00,-21,0.000,1170.856,109550.156,24.424,552.937,0.000,0.323,136.330,-0.046,0.007,0.008,0.007,0.000,0.000
37.002,1,0,7.892,-10.126,1596.054,9.485,-12.254,650.846,5.795,-7.333,136.110,0.000,0.000,0.0103675,0.000,9144.000,1.847,2.432,1596.054,650.846,1095.538,24.425,-663.234,-1512.851,136.430,-0.037,0.393,-0.016,-0.034,0.004,0.000,0.000,0.000,-0.015,0.691,0.022,0.723,0.0000000,0.0000000,1170.856,0.000,0.000,0.000,0,00:00:00,-21,0.000,1170.856,109550.156,24.424,552.937,0.000,0.323,136.330,-0.046,0.007,0.008,0.007,0.000,0.000
37.103,1,0,8.026,-10.306,1662.497,9.621,-12.437,664.427,5.566,-7.235,135.803,0.000,0.000,0.0103675,0.000,9144.000,1.886,2.630,1662.497,664.427,1101.494,24.891,-709.652,-1559.269,136.109,0.021,0.396,0.001,0.016,-0.010,0.000,0.000,0.000,-0.016,0.691,0.022,0.722,0.0000000,0.0000000,1228.151,0.000,0.000,0.000,0,00:00:00,-21,0.000,1228.151,110155.125,24.890,566.550,0.000,0.412,136.127,0.072,-0.007,0.007,-0.004,0.000,0.000
37.204,1,0,8.158,-10.487,1730.295,9.742,-12.655,677.977,5.489,-7.671,135.505,0.000,0.000,0.0103675,0.000,9144.000,1.924,2.538,1730.295,677.977,1103.746,25.067,-727.151,-1576.767,135.832,-0.114,0.393,-0.022,0.004,0.024,0.000,0.000,0.000,-0.016,0.691,0.024,0.722,0.0000000,0.0000000,1286.802,0.000,0.000,0.000,0,00:00:00,-21,0.000,1286.802,110381.203,25.073,580.129,0.000,0.282,135.760,-0.070,-0.018,0.018,0.004,0.000,0.000
37.305,1,0,8.291,-10.669,1799.445,9.890,-12.842,691.500,5.826,-7.457,135.232,0.000,0.000,0.0103675,0.000,9144.000,1.963,2.518,1799.445,691.500,1102.263,24.951,-715.628,-1565.245,135.562,0.080,0.299,-0.000,-0.018,-0.012,0.000,0.000,0.000,-0.016,0.691,0.023,0.723,0.0000000,0.0000000,1346.804,0.000,0.000,0.000,0,00:00:00,-21,0.000,1346.804,110226.031,24.954,593.673,0.000,0.353,135.574,-0.008,-0.006,0.010,0.010,0.000,0.000
37.406,1,0,8.425,-10.851,1869.947,10.056,-13.018,705.022,6.079,-7.451,135.221,0.000,0.000,0.0103675,0.000,9144.000,2.002,2.621,1869.947,705.022,1102.263,24.951,-715.628,-1565.245,135.562,0.080,0.299,-0.000,-0.018,-0.012,0.000,0.000,0.000,-0.016,0.690,0.023,0.723,0.0000000,0.0000000,1346.804,0.000,0.000,0.000,0,00:00:00,-21,0.000,1346.804,110226.031,24.954,593.673,0.000,0.353,135.574,-0.008,-0.006,0.010,0.010,0.000,0.000
37.507,1,0,8.563,-11.031,1941.796,10.224,-13.165,718.489,6.166,-7.259,134.661,0.000,0.000,0.0103675,0.000,9144.000,2.041,2.725,1941.796,718.489,1107.392,25.354,-755.424,-1605.040,134.997,0.035,0.413,0.016,-0.017,0.007,0.000,0.000,0.000,-0.016,0.689,0.022,0.724,0.0000000,0.0000000,1408.155,0.000,0.000,0.000,0,00:00:00,-21,0.000,1408.155,110745.398,25.351,607.181,0.000,0.302,135.026,0.033,0.000,-0.005,-0.008,0.000,0.000
37.608,1,0,8.700,-11.207,2014.988,10.347,-13.323,731.923,5.790,-7.457,134.347,0.000,0.000,0.0103675,0.000,9144.000,2.079,2.823,2014.988,731.923,1109.431,25.512,-771.198,-1620.815,134.678,-0.111,0.239,-0.006,0.040,-0.011,0.000,0.000,0.000,-0.016,0.691,0.022,0.723,0.0000000,0.0000000,1470.849,0.000,0.000,0.000,0,00:00:00,-21,0.000,1470.849,110942.148,25.509,620.650,0.000,0.270,134.684,0.002,0.009,0.000,-0.000,0.000,0.000
37.709,1,0,8.837,-11.383,2089.520,10.481,-13.508,745.319,5.978,-7.815,133.957,0.000,0.000,0.0103675,0.000,9144.000,2.117,2.592,2089.520,745.319,1119.543,26.297,-849.097,-1698.714,134.318,0.110,0.396,-0.045,-0.026,-0.007,0.000,0.000,0.000,-0.018,0.690,0.024,0.723,0.0000000,0.0000000,1534.884,0.000,0.000,0.000,0,00:00:00,-21,0.000,1534.884,111962.133,26.294,634.079,0.000,0.334,134.291,0.013,0.006,0.016,-0.016,0.000,0.000
37.810,1,0,8.971,-11.557,2165.388,10.579,-13.626,758.682,5.688,-7.251,133.633,0.000,0.000,0.0103675,0.000,9144.000,2.153,2.745,2165.388,758.682,1127.257,26.890,-908.137,-1757.753,133.950,0.077,0.422,0.043,0.019,-0.007,0.000,0.000,0.000,-0.017,0.690,0.022,0.723,0.0000000,0.0000000,1600.254,0.000,0.000,0.000,0,00:00:00,-21,0.000,1600.254,112720.430,26.891,647.468,0.000,0.343,133.857,-0.087,0.015,-0.013,-0.004,0.000,0.000
37.911,1,0,9.100,-11.721,2242.593,10.646,-13.678,772.050,5.442,-6.675,133.674,0.000,0.000,0.0103675,0.000,9144.000,2.189,2.636,2242.593,772.050,1127.257,26.890,-908.137,-1757.753,133.950,0.077,0.422,0.043,0.019,-0.007,0.000,0.000,0.000,-0.016,0.691,0.020,0.722,0.0000000,0.0000000,1600.254,0.000,0.000,0.000,0,00:00:00,-21,0.000,1600.254,112720.430,26.891,647.468,0.000,0.343,133.857,-0.087,0.015,-0.013,-0.004,0.000,0.000
38.012,2,0,9.183,-11.829,2319.145,9.820,-12.716,765.516,-3.340,3.298,-65.337,0.000,0.000,0.0103675,0.000,9144.000,2.228,2.527,2319.145,765.516,1124.216,26.658,-884.902,-1734.518,-65.504,0.077,0.443,0.013,-0.005,-0.001,0.000,0.000,0.000,-0.015,0.691,0.020,0.722,0.0000000,0.0000000,1663.973,0.000,0.000,0.000,0,00:00:00,-21,0.000,1663.973,112427.336,26.654,640.914,0.000,0.260,-65.561,0.018,0.004,-0.008,0.010,0.000,0.000
38.113,2,0,9.182,-11.839,2395.043,8.992,-11.763,758.982,-3.371,3.213,-65.340,0.000,0.000,0.0098861,0.000,9144.000,2.210,2.553,2395.043,758.982,1124.216,26.658,-884.902,-1734.518,-65.504,0.077,0.443,0.013,-0.005,-0.001,0.000,0.000,0.000,-0.015,0.691,0.019,0.723,0.0000000,0.0000000,1663.973,0.000,0.000,0.000,0,00:00:00,-21,0.000,1663.973,112427.336,26.654,640.914,0.000,0.260,-65.561,0.018,0.004,-0.008,0.010,0.000,0.000
38.214,2,0,9.107,-11.761,2470.316,8.206,-10.828,752.724,-3.000,3.071,-62.583,0.000,0.000,0.0095411,0.000,9144.000,2.191,2.580,2470.316,752.724,1118.330,26.199,-839.782,-1689.398,-62.730,-0.083,0.184,-0.025,-0.001,-0.008,0.000,0.000,0.000,-0.016,0.691,0.020,0.723,0.0000000,0.0000000,1789.524,0.000,0.000,0.000,0,00:00:00,-19,0.000,1789.524,111838.500,26.197,628.236,0.000,0.351,-62.654,-0.087,0.004,0.003,-0.001,0.000,0.000
38.315,2,0,8.967,-11.605,2544.962,7.425,-9.886,746.466,-3.010,3.223,-62.575,0.000,0.000,0.0092219,0.000,9144.000,2.175,2.587,2544.962,746.466,1118.330,26.199,-839.782,-1689.398,-62.730,-0.083,0.184,-0.025,-0.001,-0.008,0.000,0.000,0.000,-0.017,0.691,0.020,0.723,0.0000000,0.0000000,1789.524,0.000,0.000,0.000,0,00:00:00,-19,0.000,1789.524,111838.500,26.197,628.236,0.000,0.351,-62.654,-0.087,0.004,0.003,-0.001,0.000,0.000
38.416,2,0,8.769,-11.379,2618.996,6.635,-8.970,740.338,-3.210,3.085,-61.279,0.000,0.000,0.0090057,0.000,9144.000,2.156,2.595,2618.996,740.338,1115.337,25.970,-816.763,-1666.379,-61.439,-0.144,0.435,0.002,-0.002,0.007,0.000,0.000,0.000,-0.017,0.691,0.020,0.723,0.0000000,0.0000000,1851.383,0.000,0.000,0.000,0,00:00:00,-21,0.000,1851.383,111533.383,25.972,622.101,0.000,0.352,-61.307,0.101,0.008,0.001,0.021,0.000,0.000
38.517,2,0,8.518,-11.091,2692.429,5.859,-8.073,734.332,-3.208,3.056,-60.065,0.000,0.000,0.0088318,0.000,9144.000,2.139,2.605,2692.429,734.332,1112.356,25.741,-793.790,-1643.406,-60.227,-0.042,0.354,0.011,-0.022,0.001,0.000,0.000,0.000,-0.016,0.690,0.020,0.723,0.0000000,0.0000000,1912.648,0.000,0.000,0.000,0,00:00:00,-21,0.000,1912.648,111238.594,25.737,616.095,0.000,0.362,-60.132,-0.071,-0.008,-0.002,0.008,0.000,0.000
38.618,2,0,8.221,-10.748,2765.277,5.124,-7.193,728.474,-2.955,3.051,-58.580,0.000,0.000,0.0086928,0.000,9144.000,2.123,2.733,2765.277,728.474,1109.445,25.513,-771.304,-1620.920,-58.733,-0.170,0.241,-0.036,0.014,-0.033,0.000,0.000,0.000,-0.019,0.690,0.020,0.723,0.0000000,0.0000000,1973.332,0.000,0.000,0.000,0,00:00:00,-21,0.000,1973.332,110939.852,25.513,610.215,0.000,0.391,-58.817,0.044,-0.010,-0.005,-0.015,0.000,0.000
38.719,2,0,7.886,-10.358,2837.538,4.413,-6.315,722.617,-2.886,3.252,-58.572,0.000,0.000,0.0085710,0.000,9144.000,2.107,2.656,2837.538,722.617,1109.445,25.513,-771.304,-1620.920,-58.733,-0.170,0.241,-0.036,0.014,-0.033,0.000,0.000,0.000,-0.021,0.691,0.020,0.723,0.0000000,0.0000000,1973.332,0.000,0.000,0.000,0,00:00:00,-21,0.000,1973.332,110939.852,25.513,610.215,0.000,0.391,-58.817,0.044,-0.010,-0.005,-0.015,0.000,0.000
38.820,2,0,7.517,-9.923,2909.224,3.708,-5.432,716.856,-3.030,3.521,-57.604,0.000,0.000,0.0085122,0.000,9144.000,2.090,2.578,2909.224,716.856,1106.500,25.283,-748.512,-1598.129,-57.789,0.072,0.524,-0.013,0.015,0.029,0.000,0.000,0.000,-0.021,0.691,0.022,0.722,0.0000000,0.0000000,2033.446,0.000,0.000,0.000,0,00:00:00,-21,0.000,2033.446,110651.383,25.289,604.456,0.000,0.369,-57.526,-0.003,-0.002,0.007,0.004,0.000,0.000
38.921,2,0,7.120,-9.449,2980.333,3.034,-4.566,711.096,-2.934,3.604,-57.604,0.000,0.000,0.0084719,0.000,9144.000,2.074,2.492,2980.333,711.096,1106.500,25.283,-748.512,-1598.129,-57.789,0.072,0.524,-0.013,0.015,0.029,0.000,0.000,0.000,-0.020,0.692,0.023,0.721,0.0000000,0.0000000,2033.446,0.000,0.000,0.000,0,00:00:00,-21,0.000,2033.446,110651.383,25.289,604.456,0.000,0.369,-57.526,-0.003,-0.002,0.007,0.004,0.000,0.000
39.022,2,0,6.702,-8.943,3050.880,2.436,-3.743,705.463,-2.394,3.451,-56.332,0.000,0.000,0.0084791,0.000,9144.000,2.057,2.406,3050.880,705.463,1103.571,25.054,-725.792,-1575.409,-56.488,0.117,0.280,0.019,0.046,-0.044,0.000,0.000,0.000,-0.021,0.693,0.021,0.720,0.0000000,0.0000000,2093.002,0.000,0.000,0.000,0,00:00:00,-21,0.000,2093.002,110355.445,25.051,598.814,0.000,0.318,-56.376,0.042,0.005,-0.008,0.002,0.000,0.000
39.123,2,0,6.271,-8.410,3120.862,1.886,-2.959,699.828,-2.151,3.333,-56.349,0.000,0.000,0.0084773,0.000,9144.000,2.042,2.144,3120.862,699.828,1103.571,25.054,-725.792,-1575.409,-56.488,0.117,0.280,0.019,0.046,-0.044,0.000,0.000,0.000,-0.022,0.695,0.019,0.718,0.0000000,0.0000000,2093.002,0.000,0.000,0.000,0,00:00:00,-21,0.000,2093.002,110355.445,25.051,598.814,0.000,0.318,-56.376,0.042,0.005,-0.008,0.002,0.000,0.000
39.224,2,0,5.832,-7.857,3190.282,1.383,-2.217,694.191,-1.908,3.217,-56.365,0.000,0.000,0.0085157,0.000,9144.000,2.025,1.882,3190.282,694.191,1103.571,25.054,-725.792,-1575.409,-56.488,0.117,0.280,0.019,0.046,-0.044,0.000,0.000,0.000,-0.023,0.697,0.016,0.717,0.0000000,0.0000000,2093.002,0.000,0.000,0.000,0,00:00:00,-21,0.000,2093.002,110355.445,25.051,598.814,0.000,0.318,-56.376,0.042,0.005,-0.008,0.002,0.000,0.000
39.325,2,0,5.389,-7.294,3259.160,0.895,-1.580,688.782,-1.994,2.468,-54.094,0.000,0.000,0.0085872,0.000,9144.000,2.009,1.622,3259.160,688.782,1107.589,25.366,-756.948,-1606.565,-54.184,-0.302,0.495,0.037,0.011,0.003,0.000,0.000,0.000,-0.021,0.697,0.015,0.717,0.0000000,0.0000000,2210.483,0.000,0.000,0.000,0,00:00:00,-21,0.000,2210.483,110761.250,25.376,587.863,0.000,0.403,-54.184,0.029,0.010,0.003,-0.002,0.000,0.000
39.426,2,0,4.944,-6.727,3327.497,0.437,-0.994,683.371,-1.936,2.267,-54.105,0.000,0.000,0.0085956,0.000,9144.000,1.992,1.562,3327.497,683.371,1107.589,25.366,-756.948,-1606.565,-54.184,-0.302,0.495,0.037,0.011,0.003,0.000,0.000,0.000,-0.020,0.697,0.014,0.716,0.0000000,0.0000000,2210.483,0.000,0.000,0.000,0,00:00:00,-21,0.000,2210.483,110761.250,25.376,587.863,0.000,0.403,-54.184,0.029,0.010,0.003,-0.002,0.000,0.000
39.527,2,0,4.501,-6.160,3395.302,0.015,-0.422,678.048,-1.812,2.428,-53.236,0.000,0.000,0.0086422,0.000,9144.000,1.977,1.503,3395.302,678.048,1104.452,25.124,-732.635,-1582.251,-53.320,0.079,0.364,0.034,-0.005,0.003,0.000,0.000,0.000,-0.018,0.697,0.013,0.716,0.0000000,0.0000000,2268.429,0.000,0.000,0.000,0,00:00:00,-21,0.000,2268.429,110447.211,25.130,582.548,0.000,0.282,-53.122,-0.019,-0.001,-0.007,-0.020,0.000,0.000
39.628,2,0,4.061,-5.596,3462.585,-0.381,0.111,672.835,-1.788,2.330,-52.134,0.000,0.000,0.0086848,0.000,9144.000,1.962,1.535,3462.585,672.835,1101.323,24.876,-708.327,-1557.943,-52.215,-0.040,0.382,-0.013,0.002,0.001,0.000,0.000,0.000,-0.019,0.697,0.013,0.716,0.0000000,0.0000000,2325.859,0.000,0.000,0.000,0,00:00:00,-21,0.000,2325.859,110137.461,24.879,577.334,0.000,0.351,-52.135,0.023,-0.002,0.021,-0.016,0.000,0.000
39.729,2,0,3.629,-5.037,3529.358,-0.748,0.628,667.729,-1.723,2.469,-51.055,0.000,0.000,0.0087130,0.000,9144.000,1.948,1.523,3529.358,667.729,1098.174,24.632,-683.799,-1533.416,-51.142,0.061,0.325,-0.017,-0.004,-0.004,0.000,0.000,0.000,-0.020,0.697,0.014,0.716,0.0000000,0.0000000,2382.783,0.000,0.000,0.000,0,00:00:00,-21,0.000,2382.783,109821.047,24.633,572.219,0.000,0.333,-51.106,-0.044,0.018,-0.004,-0.014,0.000,0.000
39.830,2,0,3.204,-4.484,3595.621,-1.094,1.124,662.624,-1.744,2.556,-51.050,0.000,0.000,0.0087297,0.000,9144.000,1.934,1.544,3595.621,662.624,1098.174,24.632,-683.799,-1533.416,-51.142,0.061,0.325,-0.017,-0.004,-0.004,0.000,0.000,0.000,-0.020,0.697,0.014,0.717,0.0000000,0.0000000,2382.783,0.000,0.000,0.000,0,00:00:00,-21,0.000,2382.783,109821.047,24.633,572.219,0.000,0.333,-51.106,-0.044,0.018,-0.004,-0.014,0.000,0.000
39.931,2,0,2.787,-3.939,3661.381,-1.435,1.592,657.608,-1.911,2.560,-50.157,0.000,0.000,0.0087826,0.000,9144.000,1.919,1.566,3661.381,657.608,1095.012,24.385,-659.121,-1508.738,-50.258,0.070,0.268,-0.008,-0.049,-0.000,0.000,0.000,0.000,-0.021,0.695,0.015,0.718,0.0000000,0.0000000,2439.210,0.000,0.000,0.000,0,00:00:00,-21,0.000,2439.210,109499.047,24.387,567.199,0.000,0.306,-50.189,-0.099,-0.026,0.011,0.015,0.000,0.000
40.032,2,0,2.381,-3.404,3726.651,-1.727,2.023,652.693,-1.638,2.482,-49.158,0.000,0.000,0.0088259,0.000,9144.000,1.905,1.848,3726.651,652.693,1101.071,24.859,-706.366,-1555.982,-49.247,-0.040,0.261,-0.017,0.048,-0.005,0.000,0.000,0.000,-0.021,0.697,0.015,0.717,0.0000000,0.0000000,2495.148,0.000,0.000,0.000,0,00:00:00,-21,0.000,2495.148,110106.703,24.860,562.271,0.000,0.251,-49.178,0.050,-0.009,-0.006,0.010,0.000,0.000
40.133,2,0,1.988,-2.880,3791.428,-1.975,2.436,647.777,-1.405,2.565,-49.161,0.000,0.000,0.0088542,0.000,9144.000,1.890,1.575,3791.428,647.777,1101.071,24.859,-706.366,-1555.982,-49.247,-0.040,0.261,-0.017,0.048,-0.005,0.000,0.000,0.000,-0.022,0.699,0.015,0.715,0.0000000,0.0000000,2495.148,0.000,0.000,0.000,0,00:00:00,-21,0.000,2495.148,110106.703,24.860,562.271,0.000,0.251,-49.178,0.050,-0.009,-0.006,0.010,0.000,0.000
40.234,2,0,1.611,-2.371,3855.723,-2.192,2.787,642.950,-1.303,2.234,-48.268,0.000,0.000,0.0089165,0.000,9144.000,1.875,1.302,3855.723,642.950,1097.743,24.597,-680.441,-1530.058,-48.336,-0.173,0.342,0.031,0.033,0.004,0.000,0.000,0.000,-0.021,0.700,0.014,0.714,0.0000000,0.0000000,2550.608,0.000,0.000,0.000,0,00:00:00,-21,0.000,2550.608,109770.516,24.601,557.433,0.000,0.397,-48.348,-0.061,0.014,0.008,0.016,0.000,0.000
40.335,2,0,1.251,-1.879,3919.535,-2.373,3.097,638.122,-1.142,2.084,-48.279,0.000,0.000,0.0089631,0.000,9144.000,1.862,1.113,3919.535,638.122,1097.743,24.597,-680.441,-1530.058,-48.336,-0.173,0.342,0.031,0.033,0.004,0.000,0.000,0.000,-0.020,0.701,0.013,0.713,0.0000000,0.0000000,2550.608,0.000,0.000,0.000,0,00:00:00,-19,0.000,2550.608,109770.516,24.601,557.433,0.000,0.397,-48.348,-0.061,0.014,0.008,0.016,0.000,0.000
40.436,2,0,0.909,-1.407,3982.865,-2.521,3.368,633.293,-0.981,1.934,-48.288,0.000,0.000,0.0090406,0.000,9144.000,1.848,0.925,3982.865,633.293,1097.743,24.597,-680.441,-1530.058,-48.336,-0.173,0.342,0.031,0.033,0.004,0.000,0.000,0.000,-0.019,0.702,0.012,0.712,0.0000000,0.0000000,2550.608,0.000,0.000,0.000,0,00:00:00,-21,0.000,2550.608,109770.516,24.601,557.433,0.000,0.397,-48.348,-0.061,0.014,0.008,0.016,0.000,0.000
40.537,2,0,0.587,-0.954,4045.728,-2.660,3.643,628.634,-1.071,2.229,-46.587,0.000,0.000,0.0091437,0.000,9144.000,1.834,0.736,4045.728,628.634,1090.989,24.071,-627.643,-1477.260,-46.650,0.136,0.457,-0.013,0.001,0.005,0.000,0.000,0.000,-0.019,0.702,0.013,0.711,0.0000000,0.0000000,2660.123,0.000,0.000,0.000,0,00:00:00,-22,0.000,2660.123,109097.227,24.066,548.015,0.000,0.355,-46.615,0.057,-0.015,0.007,0.011,0.000,0.000
40.638,2,0,0.283,-0.520,4108.131,-2.779,3.877,624.028,-1.031,2.036,-46.063,0.000,0.000,0.0091825,0.000,9144.000,1.822,0.731,4108.131,624.028,1096.276,24.484,-668.996,-1518.612,-46.117,0.018,0.509,0.010,0.019,-0.019,0.000,0.000,0.000,-0.019,0.703,0.012,0.711,0.0000000,0.0000000,2714.195,0.000,0.000,0.000,0,00:00:00,-23,0.000,2714.195,109619.289,24.488,543.429,0.000,0.337,-45.810,0.069,-0.011,0.010,0.007,0.000,0.000
40.739,2,0,-0.002,-0.107,4170.073,-2.875,4.083,619.421,-0.946,1.987,-46.067,0.000,0.000,0.0092260,0.000,9144.000,1.808,0.622,4170.073,619.421,1096.276,24.484,-668.996,-1518.612,-46.117,0.018,0.509,0.010,0.019,-0.019,0.000,0.000,0.000,-0.019,0.704,0.011,0.710,0.0000000,0.0000000,2714.195,0.000,0.000,0.000,0,00:00:00,-22,0.000,2714.195,109619.289,24.488,543.429,0.000,0.337,-45.810,0.069,-0.011,0.010,0.007,0.000,0.000
40.840,2,0,-0.268,0.285,4231.564,-2.924,4.269,614.906,-0.629,1.994,-45.156,0.000,0.000,0.0093014,0.000,9144.000,1.794,0.512,4231.564,614.906,1092.722,24.208,-641.215,-1490.832,-45.203,0.021,0.236,-0.009,0.009,-0.036,0.000,0.000,0.000,-0.021,0.704,0.010,0.710,0.0000000,0.0000000,2767.821,0.000,0.000,0.000,0,00:00:00,-22,0.000,2767.821,109268.070,24.202,538.922,0.000,0.353,-45.056,-0.042,0.002,-0.003,0.007,0.000,0.000
40.941,2,0,-0.511,0.656,4292.611,-2.939,4.421,610.477,-0.420,1.850,-44.284,0.000,0.000,0.0093532,0.000,9144.000,1.782,0.459,4292.611,610.477,1089.120,23.926,-612.980,-1462.597,-44.324,-0.066,0.205,0.004,0.037,0.031,0.000,0.000,0.000,-0.020,0.705,0.011,0.709,0.0000000,0.0000000,2821.007,0.000,0.000,0.000,0,00:00:00,-22,0.000,2821.007,108911.781,23.925,534.491,0.000,0.268,-44.300,0.021,-0.007,-0.005,0.010,0.000,0.000
41.042,2,0,-0.731,1.005,4353.216,-2.926,4.553,606.049,-0.251,1.832,-44.286,0.000,0.000,0.0093865,0.000,9144.000,1.770,0.248,4353.216,606.049,1089.120,23.926,-612.980,-1462.597,-44.324,-0.066,0.205,0.004,0.037,0.031,0.000,0.000,0.000,-0.019,0.707,0.012,0.707,0.0000000,0.0000000,2821.007,0.000,0.000,0.000,0,00:00:00,-23,0.000,2821.007,108911.781,23.925,534.491,0.000,0.268,-44.300,0.021,-0.007,-0.005,0.010,0.000,0.000
41.143,2,0,-0.930,1.332,4413.386,-2.919,4.657,601.696,-0.419,1.734,-43.523,0.000,0.000,0.0094536,0.000,9144.000,1.757,0.037,4413.386,601.696,1085.553,23.642,-584.953,-1434.570,-43.558,-0.060,0.305,0.016,-0.015,-0.010,0.000,0.000,0.000,-0.018,0.706,0.011,0.708,0.0000000,0.0000000,2873.761,0.000,0.000,0.000,0,00:00:00,-35,0.000,2873.761,108545.914,23.651,530.135,0.000,0.425,-43.642,0.031,-0.007,0.009,0.003,0.000,0.000
41.244,2,0,-1.110,1.638,4473.128,-2.919,4.768,597.424,-0.581,1.957,-42.726,0.000,0.000,0.0095040,0.000,9144.000,1.746,0.124,4473.128,597.424,1090.091,23.998,-620.603,-1470.219,-42.773,0.178,0.355,-0.004,-0.027,0.018,0.000,0.000,0.000,-0.018,0.705,0.012,0.709,0.0000000,0.0000000,2926.091,0.000,0.000,0.000,0,00:00:00,-40,0.000,2926.091,109004.008,24.000,525.851,0.000,0.355,-42.805,0.034,-0.017,0.016,-0.005,0.000,0.000
41.345,2,0,-1.273,1.925,4532.443,-2.921,4.865,593.152,-0.693,1.975,-42.723,0.000,0.000,0.0095390,0.000,9144.000,1.732,0.280,4532.443,593.152,1090.091,23.998,-620.603,-1470.219,-42.773,0.178,0.355,-0.004,-0.027,0.018,0.000,0.000,0.000,-0.017,0.704,0.012,0.710,0.0000000,0.0000000,2926.091,0.000,0.000,0.000,0,00:00:00,-39,0.000,2926.091,109004.008,24.000,525.851,0.000,0.355,-42.805,0.034,-0.017,0.016,-0.005,0.000,0.000
41.446,2,0,-1.421,2.193,4591.336,-2.919,4.936,588.930,-0.729,1.851,-42.214,0.000,0.000,0.0096075,0.000,9144.000,1.720,0.435,4591.336,588.930,1086.337,23.702,-591.117,-1440.734,-42.259,0.073,0.342,-0.000,-0.013,0.003,0.000,0.000,0.000,-0.017,0.704,0.013,0.710,0.0000000,0.0000000,2978.003,0.000,0.000,0.000,0,00:00:00,-38,0.000,2978.003,108632.344,23.701,521.637,0.000,0.379,-42.130,-0.022,0.005,0.005,-0.011,0.000,0.000
41.547,2,0,-1.554,2.441,4649.817,-2.914,4.980,584.809,-0.762,1.720,-41.213,0.000,0.000,0.0096719,0.000,9144.000,1.708,0.507,4649.817,584.809,1090.445,24.026,-623.378,-1472.994,-41.254,0.017,0.412,0.007,0.007,-0.015,0.000,0.000,0.000,-0.018,0.704,0.012,0.710,0.0000000,0.0000000,3029.505,0.000,0.000,0.000,0,00:00:00,-38,0.000,3029.505,109045.531,24.020,517.491,0.000,0.260,-41.451,-0.044,0.017,-0.001,-0.001,0.000,0.000
41.648,2,0,-1.674,2.669,4707.886,-2.899,5.008,580.687,-0.735,1.689,-41.215,0.000,0.000,0.0097014,0.000,9144.000,1.695,0.467,4707.886,580.687,1090.445,24.026,-623.378,-1472.994,-41.254,0.017,0.412,0.007,0.007,-0.015,0.000,0.000,0.000,-0.018,0.704,0.011,0.710,0.0000000,0.0000000,3029.505,0.000,0.000,0.000,0,00:00:00,-38,0.000,3029.505,109045.531,24.020,517.491,0.000,0.260,-41.451,-0.044,0.017,-0.001,-0.001,0.000,0.000
41.749,2,0,-1.781,2.877,4765.543,-2.876,5.023,576.566,-0.708,1.658,-41.217,0.000,0.000,0.0097654,0.000,9144.000,1.683,0.426,4765.543,576.566,1090.445,24.026,-623.378,-1472.994,-41.254,0.017,0.412,0.007,0.007,-0.015,0.000,0.000,0.000,-0.018,0.704,0.010,0.709,0.0000000,0.0000000,3029.505,0.000,0.000,0.000,0,00:00:00,-38,0.000,3029.505,109045.531,24.020,517.491,0.000,0.260,-41.451,-0.044,0.017,-0.001,-0.001,0.000,0.000
41.850,2,0,-1.875,3.067,4822.797,-2.830,5.019,572.545,-0.534,1.570,-40.209,0.000,0.000,0.0098579,0.000,9144.000,1.672,0.385,4822.797,572.545,1082.521,23.398,-561.066,-1410.683,-40.242,0.076,0.302,0.027,0.014,0.003,0.000,0.000,0.000,-0.017,0.705,0.009,0.709,0.0000000,0.0000000,3131.299,0.000,0.000,0.000,0,00:00:00,-38,0.000,3131.299,108244.938,23.406,509.396,0.000,0.348,-40.121,-0.053,-0.002,0.002,-0.011,0.000,0.000
41.951,2,0,-1.956,3.237,4879.650,-2.774,4.995,568.523,-0.475,1.462,-40.214,0.000,0.000,0.0099062,0.000,9144.000,1.662,0.305,4879.650,568.523,1082.521,23.398,-561.066,-1410.683,-40.242,0.076,0.302,0.027,0.014,0.003,0.000,0.000,0.000,-0.016,0.706,0.008,0.708,0.0000000,0.0000000,3131.299,0.000,0.000,0.000,0,00:00:00,-38,0.000,3131.299,108244.938,23.406,509.396,0.000,0.348,-40.121,-0.053,-0.002,0.002,-0.011,0.000,0.000
42.052,2,0,-2.023,3.389,4936.107,-2.707,4.954,564.574,-0.398,1.382,-39.490,0.000,0.000,0.0099861,0.000,9144.000,1.650,0.224,4936.107,564.574,1086.037,23.680,-588.762,-1438.379,-39.516,0.076,0.242,0.014,0.004,-0.013,0.000,0.000,0.000,-0.016,0.706,0.008,0.708,0.0000000,0.0000000,3181.605,0.000,0.000,0.000,0,00:00:00,-38,0.000,3181.605,108605.148,23.681,505.443,0.000,0.436,-39.557,-0.065,-0.005,0.005,-0.002,0.000,0.000
42.153,2,0,-2.078,3.522,4992.169,-2.635,4.901,560.625,-0.384,1.328,-39.492,0.000,0.000,0.0100414,0.000,9144.000,1.638,0.203,4992.169,560.625,1086.037,23.680,-588.762,-1438.379,-39.516,0.076,0.242,0.014,0.004,-0.013,0.000,0.000,0.000,-0.016,0.706,0.007,0.708,0.0000000,0.0000000,3181.605,0.000,0.000,0.000,0,00:00:00,-38,0.000,3181.605,108605.148,23.681,505.443,0.000,0.436,-39.557,-0.065,-0.005,0.005,-0.002,0.000,0.000
42.254,2,0,-2.120,3.637,5047.844,-2.560,4.845,556.742,-0.371,1.355,-38.834,0.000,0.000,0.0101273,0.000,9144.000,1.626,0.182,5047.844,556.742,1081.860,23.352,-555.851,-1405.468,-38.858,0.133,0.296,0.002,0.016,0.019,0.000,0.000,0.000,-0.015,0.706,0.007,0.708,0.0000000,0.0000000,3231.526,0.000,0.000,0.000,0,00:00:00,-38,0.000,3231.526,108191.984,23.352,501.551,0.000,0.292,-38.935,0.084,-0.007,-0.019,0.001,0.000,0.000
42.355,2,0,-2.152,3.735,5103.133,-2.472,4.757,552.895,-0.259,1.094,-38.469,0.000,0.000,0.0101910,0.000,9144.000,1.616,0.089,5103.133,552.895,1084.987,23.598,-580.494,-1430.111,-38.485,0.011,0.260,0.033,0.019,0.009,0.000,0.000,0.000,-0.014,0.707,0.006,0.707,0.0000000,0.0000000,3281.065,0.000,0.000,0.000,0,00:00:00,-38,0.000,3281.065,108499.547,23.602,497.718,0.000,0.215,-38.361,0.013,0.015,0.011,-0.012,0.000,0.000
42.456,2,0,-2.172,3.815,5158.038,-2.376,4.652,549.048,-0.185,0.967,-38.473,0.000,0.000,0.0102561,0.000,9144.000,1.604,-0.018,5158.038,549.048,1084.987,23.598,-580.494,-1430.111,-38.485,0.011,0.260,0.033,0.019,0.009,0.000,0.000,0.000,-0.012,0.708,0.005,0.706,0.0000000,0.0000000,3281.065,0.000,0.000,0.000,0,00:00:00,-38,0.000,3281.065,108499.547,23.602,497.718,0.000,0.215,-38.361,0.013,0.015,0.011,-0.012,0.000,0.000
42.557,2,0,-2.182,3.878,5212.565,-2.302,4.544,545.274,-0.423,0.968,-37.732,0.000,0.000,0.0103505,0.000,9144.000,1.593,-0.125,5212.565,545.274,1080.691,23.257,-546.623,-1396.240,-37.743,0.093,0.481,0.016,-0.004,0.024,0.000,0.000,0.000,-0.011,0.708,0.006,0.706,0.0000000,0.0000000,3330.231,0.000,0.000,0.000,0,00:00:00,-38,0.000,3330.231,108063.258,23.259,493.942,0.000,0.320,-37.729,0.046,-0.003,0.008,0.015,0.000,0.000
42.658,2,0,-2.184,3.924,5266.715,-2.231,4.427,541.501,-0.437,0.907,-37.733,0.000,0.000,0.0104124,0.000,9144.000,1.583,-0.098,5266.715,541.501,1080.691,23.257,-546.623,-1396.240,-37.743,0.093,0.481,0.016,-0.004,0.024,0.000,0.000,0.000,-0.009,0.707,0.006,0.707,0.0000000,0.0000000,3330.231,0.000,0.000,0.000,0,00:00:00,-38,0.000,3330.231,108063.258,23.259,493.942,0.000,0.320,-37.729,0.046,-0.003,0.008,0.015,0.000,0.000
42.759,2,0,-2.180,3.956,5320.493,-2.160,4.309,537.774,-0.453,0.914,-37.276,0.000,0.000,0.0105045,0.000,9144.000,1.572,-0.072,5320.493,537.774,1083.373,23.470,-567.779,-1417.396,-37.287,0.131,0.440,0.006,-0.015,0.005,0.000,0.000,0.000,-0.009,0.707,0.006,0.707,0.0000000,0.0000000,3379.027,0.000,0.000,0.000,0,00:00:00,-38,0.000,3379.027,108330.586,23.472,490.222,0.000,0.377,-37.178,0.058,0.001,0.013,0.013,0.000,0.000
42.860,2,0,-2.170,3.972,5373.902,-2.080,4.160,534.096,-0.343,0.608,-36.775,0.000,0.000,0.0105852,0.000,9144.000,1.561,0.013,5373.902,534.096,1085.826,23.664,-587.099,-1436.715,-36.781,-0.079,0.202,0.024,-0.035,0.002,0.000,0.000,0.000,-0.008,0.706,0.005,0.708,0.0000000,0.0000000,3427.459,0.000,0.000,0.000,0,00:00:00,-38,0.000,3427.459,108582.453,23.665,486.557,0.000,0.387,-36.672,-0.020,-0.026,-0.030,-0.013,0.000,0.000
42.961,2,0,-2.153,3.973,5426.944,-2.013,4.001,530.419,-0.473,0.522,-36.775,0.000,0.000,0.0106515,0.000,9144.000,1.549,0.216,5426.944,530.419,1085.826,23.664,-587.099,-1436.715,-36.781,-0.079,0.202,0.024,-0.035,0.002,0.000,0.000,0.000,-0.007,0.704,0.004,0.710,0.0000000,0.0000000,3427.459,0.000,0.000,0.000,0,00:00:00,-38,0.000,3427.459,108582.453,23.665,486.557,0.000,0.387,-36.672,-0.020,-0.026,-0.030,-0.013,0.000,0.000
43.062,2,0,-2.133,3.959,5479.625,-1.958,3.843,526.812,-0.576,0.518,-36.069,0.000,0.000,0.0107478,0.000,9144.000,1.539,0.419,5479.625,526.812,1081.158,23.298,-550.310,-1399.927,-36.075,0.070,0.394,0.039,0.023,0.027,0.000,0.000,0.000,-0.005,0.705,0.004,0.709,0.0000000,0.0000000,3475.533,0.000,0.000,0.000,0,00:00:00,-38,0.000,3475.533,108114.625,23.291,482.945,0.000,0.264,-36.219,0.009,0.009,0.002,-0.006,0.000,0.000
43.163,2,0,-2.109,3.931,5531.946,-1.896,3.673,523.204,-0.492,0.377,-36.072,0.000,0.000,0.0108092,0.000,9144.000,1.529,0.288,5531.946,523.204,1081.158,23.298,-550.310,-1399.927,-36.075,0.070,0.394,0.039,0.023,0.027,0.000,0.000,0.000,-0.002,0.706,0.004,0.708,0.0000000,0.0000000,3475.533,0.000,0.000,0.000,0,00:00:00,-38,0.000,3475.533,108114.625,23.291,482.945,0.000,0.264,-36.219,0.009,0.009,0.002,-0.006,0.000,0.000
43.264,2,0,-2.082,3.891,5583.937,-1.834,3.517,519.915,-0.480,0.506,-32.896,0.000,0.000,0.0109018,0.000,9144.000,1.519,0.156,5583.937,519.915,1828.320,74.564,-5266.507,-6116.124,-32.901,0.234,0.337,0.002,-0.016,-0.003,0.000,0.000,0.000,-0.002,0.706,0.003,0.709,0.0000000,0.0000000,3802.423,0.000,0.000,0.000,0,00:00:00,-38,0.000,3802.423,182833.125,74.566,459.031,0.000,0.435,-32.766,-0.022,-0.006,0.005,-0.021,0.000,0.000
43.365,2,0,-2.052,3.840,5635.629,-1.790,3.341,516.920,-0.648,0.272,-29.952,0.000,0.000,0.0107402,0.000,9144.000,1.393,0.250,5635.629,516.920,1644.715,62.952,-4278.176,-5127.792,-29.956,0.006,0.502,-0.007,-0.005,-0.033,0.000,0.000,0.000,-0.004,0.705,0.002,0.709,0.0000000,0.0000000,4113.550,0.000,0.000,0.000,0,00:00:00,-38,0.000,4113.550,164468.094,62.949,437.237,0.000,0.309,-29.968,-0.022,0.010,0.003,-0.003,0.000,0.000
43.466,2,0,-2.020,3.777,5687.049,-1.722,3.172,514.193,-0.389,0.319,-27.261,0.000,0.000,0.0103844,0.000,9144.000,1.409,0.277,5687.049,514.193,519.108,-19.430,5294.679,4445.062,-27.264,0.085,0.247,0.003,-0.004,0.012,0.000,0.000,0.000,-0.003,0.705,0.003,0.709,0.0000000,0.0000000,4451.519,0.000,0.000,0.000,0,00:00:00,-38,0.000,4451.519,51911.488,-19.429,414.501,0.000,0.304,-27.323,0.018,0.006,0.006,0.001,0.000,0.000
43.567,2,0,-1.986,3.704,5738.213,-1.663,2.982,511.639,-0.458,0.066,-25.544,0.000,0.000,0.0098854,0.000,9144.000,1.613,0.298,5738.213,511.639,502.421,-21.002,5536.491,4686.875,-25.545,-0.153,0.385,-0.001,0.024,-0.028,0.000,0.000,0.000,-0.004,0.706,0.002,0.708,0.0000000,0.0000000,4693.631,0.000,0.000,0.000,0,00:00:00,-38,0.000,4693.631,50247.941,-20.997,398.742,0.000,0.327,-25.622,-0.114,-0.003,0.008,-0.007,0.000,0.000
43.668,2,0,-1.948,3.622,5789.126,-1.586,2.809,509.133,-0.265,0.190,-25.057,0.000,0.000,0.0093533,0.000,9144.000,1.610,0.163,5789.126,509.133,497.121,-21.510,5614.646,4765.029,-25.058,0.059,0.217,0.034,0.010,0.004,0.000,0.000,0.000,-0.003,0.706,0.001,0.708,0.0000000,0.0000000,4772.293,0.000,0.000,0.000,0,00:00:00,-38,0.000,4772.293,49708.836,-21.514,393.708,0.000,0.355,-24.967,0.007,0.011,-0.002,0.010,0.000,0.000
43.769,2,0,-1.907,3.530,5839.793,-1.517,2.607,506.676,-0.321,-0.140,-24.572,0.000,0.000,0.0089045,0.000,9144.000,1.604,0.109,5839.793,506.676,491.894,-22.016,5692.391,4842.775,-24.573,-0.139,0.255,0.053,-0.008,-0.021,0.000,0.000,0.000,-0.002,0.706,-0.002,0.708,0.0000000,0.0000000,4849.968,0.000,0.000,0.000,0,00:00:00,-38,0.000,4849.968,49188.746,-22.017,388.775,0.000,0.397,-24.501,-0.051,0.002,-0.007,-0.019,0.000,0.000
43.870,2,0,-1.864,3.429,5890.221,-1.448,2.439,504.276,-0.296,0.139,-24.004,0.000,0.000,0.0085214,0.000,9144.000,1.598,0.154,5890.221,504.276,486.805,-22.512,5768.723,4919.106,-24.005,0.115,0.229,-0.010,-0.001,0.005,0.000,0.000,0.000,-0.002,0.706,-0.001,0.708,0.0000000,0.0000000,4926.677,0.000,0.000,0.000,0,00:00:00,-38,0.000,4926.677,48677.508,-22.515,383.940,0.000,0.386,-24.035,-0.049,0.012,0.008,0.018,0.000,0.000
43.971,2,0,-1.819,3.323,5940.409,-1.400,2.267,501.877,-0.483,0.041,-23.983,0.000,0.000,0.0103675,0.000,9144.000,1.592,0.159,5940.409,501.877,484.275,-22.761,5806.928,4957.311,-23.986,0.026,0.346,0.004,-0.029,0.016,0.000,0.000,0.000,-0.001,0.705,-0.001,0.709,0.0000000,0.0000000,4964.674,0.000,0.000,0.000,0,00:00:00,-38,0.000,4964.674,48424.422,-22.764,381.558,0.000,0.382,-23.873,0.009,-0.003,0.019,0.009,0.000,0.000
44.072,2,0,-1.775,3.211,5990.361,-1.364,2.101,499.526,-0.576,0.047,-23.514,0.000,0.000,0.0096776,0.000,9144.000,1.585,0.327,5990.361,499.526,481.769,-23.008,5844.912,4995.295,-23.518,0.006,0.374,-0.012,-0.029,-0.035,0.000,0.000,0.000,-0.003,0.704,-0.002,0.710,0.0000000,0.0000000,5002.437,0.000,0.000,0.000,0,00:00:00,-38,0.000,5002.437,48176.551,-23.008,379.199,0.000,0.413,-23.675,-0.020,0.002,0.003,-0.006,0.000,0.000
44.173,2,0,-1.731,3.094,6040.080,-1.307,1.926,497.188,-0.341,-0.105,-23.376,0.000,0.000,0.0091004,0.000,9144.000,1.578,0.492,6040.080,497.188,479.336,-23.249,5881.948,5032.332,-23.378,-0.002,0.201,0.062,0.026,-0.012,0.000,0.000,0.000,-0.001,0.705,-0.004,0.709,0.0000000,0.0000000,5039.967,0.000,0.000,0.000,0,00:00:00,-38,0.000,5039.967,47924.938,-23.257,376.862,0.000,0.298,-23.409,-0.019,0.019,0.003,-0.002,0.000,0.000
44.274,2,0,-1.686,2.972,6089.566,-1.266,1.756,494.859,-0.478,-0.120,-23.291,0.000,0.000,0.0086444,0.000,9144.000,1.572,0.346,6089.566,494.859,476.895,-23.491,5919.265,5069.649,-23.294,0.011,0.370,0.012,0.014,0.042,0.000,0.000,0.000,0.001,0.705,-0.003,0.709,0.0000000,0.0000000,5077.266,0.000,0.000,0.000,0,00:00:00,-38,0.000,5077.266,47685.773,-23.495,374.547,0.000,0.374,-23.105,-0.016,-0.004,-0.009,-0.015,0.000,0.000
44.375,2,0,-1.641,2.846,6138.821,-1.219,1.592,492.552,-0.406,-0.125,-23.073,0.000,0.000,0.0103675,0.000,9144.000,1.565,0.266,6138.821,492.552,474.472,-23.733,5956.454,5106.838,-23.076,0.007,0.266,0.002,-0.014,0.033,0.000,0.000,0.000,0.002,0.705,-0.002,0.709,0.0000000,0.0000000,5114.337,0.000,0.000,0.000,0,00:00:00,-38,0.000,5114.337,47451.379,-23.729,372.253,0.000,0.342,-22.866,0.126,0.003,-0.011,0.001,0.000,0.000
44.476,2,0,-1.597,2.717,6187.849,-1.183,1.422,490.274,-0.475,-0.256,-22.781,0.000,0.000,0.0096681,0.000,9144.000,1.559,0.347,6187.849,490.274,472.093,-23.972,5993.110,5143.493,-22.785,-0.087,0.332,0.017,-0.002,-0.013,0.000,0.000,0.000,0.002,0.705,-0.003,0.709,0.0000000,0.0000000,5151.182,0.000,0.000,0.000,0,00:00:00,-38,0.000,5151.182,47209.043,-23.972,369.981,0.000,0.357,-22.842,-0.073,0.000,0.011,-0.011,0.000,0.000
44.577,2,0,-1.555,2.585,6236.651,-1.164,1.271,488.027,-0.631,-0.137,-22.465,0.000,0.000,0.0090988,0.000,9144.000,1.552,0.359,6236.651,488.027,469.723,-24.210,6029.785,5180.169,-22.469,0.099,0.487,0.031,-0.002,-0.003,0.000,0.000,0.000,0.003,0.705,-0.004,0.709,0.0000000,0.0000000,5187.803,0.000,0.000,0.000,0,00:00:00,-38,0.000,5187.803,46973.016,-24.209,367.729,0.000,0.293,-22.537,-0.012,0.005,-0.008,-0.019,0.000,0.000
44.678,2,0,-1.513,2.451,6285.231,-1.117,1.109,485.792,-0.333,-0.315,-22.352,0.000,0.000,0.0086303,0.000,9144.000,1.546,0.368,6285.231,485.792,467.404,-24.444,6065.831,5216.214,-22.356,-0.043,0.180,0.017,-0.004,-0.005,0.000,0.000,0.000,0.003,0.705,-0.005,0.710,0.0000000,0.0000000,5224.202,0.000,0.000,0.000,0,00:00:00,-38,0.000,5224.202,46742.648,-24.442,365.498,0.000,0.383,-22.321,-0.005,0.002,0.001,0.015,0.000,0.000
44.779,2,0,-1.471,2.316,6333.589,-1.073,0.961,483.582,-0.335,-0.248,-22.104,0.000,0.000,0.0103675,0.000,9144.000,1.539,0.393,6333.589,483.582,465.097,-24.678,6101.814,5252.197,-22.107,-0.012,0.199,-0.014,0.007,0.050,0.000,0.000,0.000,0.005,0.705,-0.003,0.709,0.0000000,0.0000000,5260.380,0.000,0.000,0.000,0,00:00:00,-38,0.000,5260.380,46512.332,-24.676,363.286,0.000,0.322,-22.140,0.078,0.002,-0.019,-0.008,0.000,0.000
44.880,2,0,-1.430,2.180,6381.730,-1.037,0.811,481.408,-0.402,-0.335,-21.732,0.000,0.000,0.0096446,0.000,9144.000,1.533,0.351,6381.730,481.408,462.795,-24.913,6137.867,5288.251,-21.736,-0.109,0.315,-0.003,0.022,0.004,0.000,0.000,0.000,0.005,0.706,-0.003,0.708,0.0000000,0.0000000,5296.340,0.000,0.000,0.000,0,00:00:00,-38,0.000,5296.340,46281.223,-24.911,361.094,0.000,0.319,-21.881,0.018,-0.006,0.004,-0.010,0.000,0.000
44.981,2,0,-1.389,2.044,6429.652,-1.006,0.682,479.224,-0.418,-0.202,-21.846,0.000,0.000,0.0090448,0.000,9144.000,1.527,0.225,6429.652,479.224,460.552,-25.142,6173.133,5323.516,-21.848,-0.046,0.364,-0.032,0.015,-0.010,0.000,0.000,0.000,0.003,0.706,-0.002,0.708,0.0000000,0.0000000,5332.084,0.000,0.000,0.000,0,00:00:00,-38,0.000,5332.084,46052.121,-25.145,358.921,0.000,0.381,-21.696,-0.020,-0.008,-0.002,0.010,0.000,0.000
45.082,2,0,-1.349,1.909,6477.359,-0.964,0.570,477.073,-0.299,-0.109,-21.503,0.000,0.000,0.0085970,0.000,9144.000,1.521,0.142,6477.359,477.073,458.296,-25.374,6208.758,5359.142,-21.503,0.065,0.297,0.009,0.024,-0.000,0.000,0.000,0.000,0.004,0.707,-0.002,0.707,0.0000000,0.0000000,5367.613,0.000,0.000,0.000,0,00:00:00,-38,0.000,5367.613,45830.629,-25.373,356.767,0.000,0.351,-21.600,0.044,-0.001,0.016,-0.006,0.000,0.000
45.183,2,0,-1.310,1.777,6524.853,-0.950,0.452,474.936,-0.545,-0.231,-21.372,0.000,0.000,0.0103675,0.000,9144.000,1.515,0.005,6524.853,474.936,456.079,-25.602,6243.894,5394.278,-21.375,-0.105,0.454,-0.022,-0.041,-0.000,0.000,0.000,0.000,0.003,0.706,-0.001,0.709,0.0000000,0.0000000,5402.930,0.000,0.000,0.000,0,00:00:00,-42,0.000,5402.930,45603.324,-25.607,354.631,0.000,0.394,-21.325,-0.062,-0.006,-0.009,0.009,0.000,0.000
45.284,2,0,-1.273,1.646,6572.134,-0.934,0.341,472.811,-0.511,-0.232,-21.251,0.000,0.000,0.0096403,0.000,9144.000,1.509,0.242,6572.134,472.811,453.864,-25.831,6279.132,5429.515,-21.254,-0.133,0.391,-0.013,-0.014,-0.017,0.000,0.000,0.000,0.002,0.705,-0.001,0.709,0.0000000,0.0000000,5438.036,0.000,0.000,0.000,0,00:00:00,-42,0.000,5438.036,45382.105,-25.836,352.513,0.000,0.293,-21.207,-0.014,0.018,0.010,-0.009,0.000,0.000
45.385,2,0,-1.238,1.520,6619.206,-0.909,0.267,470.719,-0.405,0.066,-20.927,0.000,0.000,0.0090635,0.000,9144.000,1.502,0.323,6619.206,470.719,451.709,-26.055,6313.557,5463.940,-20.929,0.149,0.269,-0.007,-0.009,-0.002,0.000,0.000,0.000,0.002,0.705,-0.001,0.709,0.0000000,0.0000000,5472.932,0.000,0.000,0.000,0,00:00:00,-42,0.000,5472.932,45168.992,-26.057,350.413,0.000,0.298,-21.127,0.058,-0.013,0.019,0.000,0.000,0.000
45.486,2,0,-1.204,1.398,6666.068,-0.888,0.201,468.626,-0.423,0.081,-20.926,0.000,0.000,0.0085819,0.000,9144.000,1.497,0.372,6666.068,468.626,451.709,-26.055,6313.557,5463.940,-20.929,0.149,0.269,-0.007,-0.009,-0.002,0.000,0.000,0.000,0.001,0.705,-0.001,0.710,0.0000000,0.0000000,5472.932,0.000,0.000,0.000,0,00:00:00,-41,0.000,5472.932,45168.992,-26.057,350.413,0.000,0.298,-21.127,0.058,-0.013,0.019,0.000,0.000,0.000
45.587,2,0,-1.171,1.282,6712.725,-0.868,0.132,466.563,-0.422,-0.015,-20.628,0.000,0.000,0.0103675,0.000,9144.000,1.490,0.421,6712.725,466.563,447.375,-26.508,6383.208,5533.592,-20.629,0.044,0.334,-0.004,0.031,-0.011,0.000,0.000,0.000,0.001,0.706,-0.001,0.709,0.0000000,0.0000000,5542.104,0.000,0.000,0.000,0,00:00:00,-41,0.000,5542.104,44737.734,-26.508,346.264,0.000,0.241,-20.720,0.108,-0.003,-0.012,-0.003,0.000,0.000
45.688,2,0,-1.140,1.172,6759.177,-0.861,0.087,464.525,-0.528,0.173,-20.385,0.000,0.000,0.0096265,0.000,9144.000,1.485,0.244,6759.177,464.525,445.272,-26.729,6417.184,5567.568,-20.386,0.192,0.482,-0.020,0.020,-0.008,0.000,0.000,0.000,-0.000,0.706,-0.001,0.708,0.0000000,0.0000000,5576.383,0.000,0.000,0.000,0,00:00:00,-40,0.000,5576.383,44531.887,-26.724,344.214,0.000,0.496,-20.521,0.073,0.001,0.004,0.006,0.000,0.000
45.789,2,0,-1.111,1.067,6805.426,-0.845,0.032,462.492,-0.427,0.018,-20.326,0.000,0.000,0.0090230,0.000,9144.000,1.479,0.128,6805.426,462.492,443.187,-26.949,6451.018,5601.402,-20.325,0.059,0.463,0.012,0.040,0.027,0.000,0.000,0.000,0.001,0.708,-0.000,0.706,0.0000000,0.0000000,5610.459,0.000,0.000,0.000,0,00:00:00,-40,0.000,5610.459,44318.949,-26.949,342.181,0.000,0.266,-20.323,0.052,0.020,0.007,0.003,0.000,0.000
45.890,2,0,-1.083,0.968,6851.473,-0.808,-0.012,460.465,-0.201,0.075,-20.265,0.000,0.000,0.0085506,0.000,9144.000,1.473,-0.102,6851.473,460.465,441.105,-27.170,6484.915,5635.299,-20.265,0.150,0.223,0.016,-0.007,0.002,0.000,0.000,0.000,0.002,0.707,-0.001,0.707,0.0000000,0.0000000,5644.334,0.000,0.000,0.000,0,00:00:00,-42,0.000,5644.334,44112.559,-27.167,340.165,0.000,0.273,-20.175,-0.031,-0.007,0.001,0.002,0.000,0.000
45.991,2,0,-1.054,0.874,6897.321,-0.790,-0.064,458.477,-0.381,-0.052,-19.888,0.000,0.000,0.0103675,0.000,9144.000,1.467,-0.062,6897.321,458.477,439.030,-27.390,6518.835,5669.218,-19.889,-0.038,0.372,-0.030,-0.016,-0.025,0.000,0.000,0.000,-0.000,0.707,-0.001,0.707,0.0000000,0.0000000,5678.011,0.000,0.000,0.000,0,00:00:00,-51,0.000,5678.011,43900.957,-27.392,338.163,0.000,0.286,-20.094,-0.004,0.007,0.004,0.012,0.000,0.000
46.092,2,0,-1.027,0.784,6942.969,-0.769,-0.107,456.486,-0.328,-0.017,-19.907,0.000,0.000,0.0096068,0.000,9144.000,1.462,0.028,6942.969,456.486,437.040,-27.603,6551.485,5701.868,-19.908,-0.005,0.288,-0.001,-0.015,-0.018,0.000,0.000,0.000,-0.001,0.706,-0.001,0.708,0.0000000,0.0000000,5711.489,0.000,0.000,0.000,0,00:00:00,-52,0.000,5711.489,43698.289,-27.609,336.178,0.000,0.353,-19.849,-0.030,0.007,0.012,-0.015,0.000,0.000
46.193,2,0,-1.000,0.699,6988.422,-0.764,-0.134,454.524,-0.481,0.095,-19.622,0.000,0.000,0.0090187,0.000,9144.000,1.456,0.114,6988.422,454.524,435.003,-27.821,6585.034,5735.417,-19.625,0.070,0.360,-0.020,-0.042,-0.009,0.000,0.000,0.000,-0.002,0.705,-0.001,0.709,0.0000000,0.0000000,5744.771,0.000,0.000,0.000,0,00:00:00,-48,0.000,5744.771,43494.195,-27.827,334.207,0.000,0.371,-19.761,-0.047,-0.001,-0.008,0.009,0.000,0.000
46.294,2,0,-0.976,0.620,7033.679,-0.758,-0.166,452.574,-0.451,0.009,-19.494,0.000,0.000,0.0085296,0.000,9144.000,1.450,0.351,7033.679,452.574,433.007,-28.035,6618.045,5768.429,-19.497,0.020,0.320,0.019,-0.005,-0.003,0.000,0.000,0.000,-0.001,0.705,-0.002,0.709,0.0000000,0.0000000,5777.858,0.000,0.000,0.000,0,00:00:00,-48,0.000,5777.858,43301.664,-28.034,332.252,0.000,0.298,-19.543,-0.024,-0.018,-0.002,-0.012,0.000,0.000
46.395,2,0,-0.954,0.545,7078.742,-0.754,-0.198,450.625,-0.462,-0.028,-19.494,0.000,0.000,0.0103675,0.000,9144.000,1.445,0.383,7078.742,450.625,433.007,-28.035,6618.045,5768.429,-19.497,0.020,0.320,0.019,-0.005,-0.003,0.000,0.000,0.000,-0.001,0.705,-0.002,0.710,0.0000000,0.0000000,5777.858,0.000,0.000,0.000,0,00:00:00,-48,0.000,5777.858,43301.664,-28.034,332.252,0.000,0.298,-19.543,-0.024,-0.018,-0.002,-0.012,0.000,0.000
46.496,2,0,-0.933,0.474,7123.612,-0.742,-0.228,448.700,-0.371,-0.045,-19.250,0.000,0.000,0.0096275,0.000,9144.000,1.438,0.415,7123.612,448.700,429.062,-28.462,6683.628,5834.011,-19.252,-0.049,0.237,-0.026,0.003,0.039,0.000,0.000,0.000,-0.000,0.705,-0.000,0.710,0.0000000,0.0000000,5843.453,0.000,0.000,0.000,0,00:00:00,-51,0.000,5843.453,42908.324,-28.459,328.384,0.000,0.333,-19.231,-0.046,0.014,0.011,-0.011,0.000,0.000
46.597,2,0,-0.912,0.408,7168.292,-0.725,-0.247,446.808,-0.315,0.023,-18.923,0.000,0.000,0.0090194,0.000,9144.000,1.434,0.400,7168.292,446.808,427.124,-28.672,6716.020,5866.404,-18.925,0.069,0.146,0.027,-0.020,0.019,0.000,0.000,0.000,0.001,0.704,-0.000,0.710,0.0000000,0.0000000,5875.963,0.000,0.000,0.000,0,00:00:00,-51,0.000,5875.963,42713.688,-28.671,326.472,0.000,0.314,-19.136,-0.041,0.020,-0.009,-0.006,0.000,0.000
46.698,2,0,-0.893,0.346,7212.783,-0.718,-0.265,444.908,-0.401,0.004,-18.997,0.000,0.000,0.0085044,0.000,9144.000,1.428,0.512,7212.783,444.908,425.202,-28.882,6748.264,5898.648,-19.000,-0.012,0.247,-0.033,0.009,-0.013,0.000,0.000,0.000,-0.000,0.704,0.000,0.710,0.0000000,0.0000000,5908.285,0.000,0.000,0.000,0,00:00:00,-50,0.000,5908.285,42520.434,-28.882,324.573,0.000,0.346,-19.017,-0.031,0.017,0.007,-0.013,0.000,0.000
46.799,2,0,-0.875,0.288,7257.086,-0.726,-0.290,443.033,-0.538,-0.092,-18.745,0.000,0.000,0.0103675,0.000,9144.000,1.423,0.463,7257.086,443.033,423.296,-29.091,6780.352,5930.736,-18.749,-0.134,0.375,-0.014,-0.006,0.022,0.000,0.000,0.000,-0.000,0.704,0.002,0.710,0.0000000,0.0000000,5940.419,0.000,0.000,0.000,0,00:00:00,-50,0.000,5940.419,42325.715,-29.095,322.688,0.000,0.361,-18.895,0.008,-0.001,-0.003,-0.007,0.000,0.000
46.900,2,0,-0.859,0.235,7301.202,-0.729,-0.296,441.158,-0.478,0.062,-18.752,0.000,0.000,0.0095942,0.000,9144.000,1.417,0.497,7301.202,441.158,421.404,-29.299,6812.336,5962.720,-18.757,-0.014,0.244,-0.017,-0.038,0.041,0.000,0.000,0.000,0.001,0.703,0.004,0.712,0.0000000,0.0000000,5972.366,0.000,0.000,0.000,0,00:00:00,-51,0.000,5972.366,42141.535,-29.298,320.816,0.000,0.318,-18.710,0.021,-0.002,0.012,0.009,0.000,0.000
47.001,2,0,-0.846,0.185,7345.132,-0.732,-0.306,439.297,-0.476,-0.005,-18.612,0.000,0.000,0.0089937,0.000,9144.000,1.412,0.717,7345.132,439.297,419.531,-29.505,6844.108,5994.491,-18.615,-0.090,0.323,-0.004,0.043,0.009,0.000,0.000,0.000,0.001,0.704,0.004,0.710,0.0000000,0.0000000,6004.128,0.000,0.000,0.000,0,00:00:00,-51,0.000,6004.128,41957.984,-29.500,318.957,0.000,0.298,-18.536,0.020,0.012,-0.015,-0.003,0.000,0.000
47.102,2,0,-0.834,0.140,7388.876,-0.751,-0.301,437.442,-0.626,0.130,-18.553,0.000,0.000,0.0085102,0.000,9144.000,1.406,0.470,7388.876,437.442,417.680,-29.710,6875.613,6025.997,-18.559,0.001,0.425,-0.024,-0.027,0.010,0.000,0.000,0.000,0.000,0.703,0.005,0.711,0.0000000,0.0000000,6035.706,0.000,0.000,0.000,0,00:00:00,-50,0.000,6035.706,41773.121,-29.705,317.112,0.000,0.308,-18.432,0.037,-0.017,0.006,0.010,0.000,0.000
47.203,2,0,-0.825,0.100,7432.437,-0.768,-0.290,435.610,-0.604,0.163,-18.313,0.000,0.000,0.0103675,0.000,9144.000,1.401,0.624,7432.437,435.610,415.852,-29.913,6906.843,6057.227,-18.318,0.031,0.435,-0.003,0.016,-0.013,0.000,0.000,0.000,-0.000,0.704,0.005,0.710,0.0000000,0.0000000,6067.101,0.000,0.000,0.000,0,00:00:00,-50,0.000,6067.101,41587.293,-29.911,315.278,0.000,0.267,-18.367,0.013,-0.005,-0.006,0.001,0.000,0.000
47.304,2,0,-0.819,0.064,7475.815,-0.782,-0.276,433.779,-0.574,0.167,-18.314,0.000,0.000,0.0096009,0.000,9144.000,1.396,0.532,7475.815,433.779,415.852,-29.913,6906.843,6057.227,-18.318,0.031,0.435,-0.003,0.016,-0.013,0.000,0.000,0.000,-0.001,0.704,0.005,0.710,0.0000000,0.0000000,6067.101,0.000,0.000,0.000,0,00:00:00,-50,0.000,6067.101,41587.293,-29.911,315.278,0.000,0.267,-18.367,0.013,-0.005,-0.006,0.001,0.000,0.000
47.405,2,0,-0.814,0.033,7519.011,-0.800,-0.272,431.960,-0.604,0.054,-18.191,0.000,0.000,0.0090051,0.000,9144.000,1.390,0.440,7519.011,431.960,412.224,-30.319,6969.152,6119.535,-18.196,-0.112,0.436,-0.018,-0.016,-0.028,0.000,0.000,0.000,-0.002,0.704,0.004,0.710,0.0000000,0.0000000,6129.347,0.000,0.000,0.000,0,00:00:00,-50,0.000,6129.347,41226.812,-30.314,311.649,0.000,0.365,-18.003,0.085,0.012,0.016,-0.007,0.000,0.000
47.506,2,0,-0.811,0.005,7562.027,-0.803,-0.268,430.163,-0.452,0.047,-17.967,0.000,0.000,0.0085272,0.000,9144.000,1.385,0.530,7562.027,430.163,410.446,-30.518,6999.840,6150.224,-17.970,-0.108,0.271,0.004,-0.008,-0.020,0.000,0.000,0.000,-0.003,0.704,0.003,0.711,0.0000000,0.0000000,6160.202,0.000,0.000,0.000,0,00:00:00,-50,0.000,6160.202,41047.766,-30.515,309.856,0.000,0.369,-17.918,-0.011,0.000,0.001,-0.007,0.000,0.000
47.607,2,0,-0.810,-0.018,7604.867,-0.840,-0.244,428.395,-0.791,0.232,-17.677,0.000,0.000,0.0103675,0.000,9144.000,1.380,0.576,7604.867,428.395,408.697,-30.715,7030.148,6180.532,-17.687,0.043,0.564,-0.021,-0.027,-0.014,0.000,0.000,0.000,-0.004,0.703,0.004,0.712,0.0000000,0.0000000,6190.879,0.000,0.000,0.000,0,00:00:00,-50,0.000,6190.879,40868.488,-30.717,308.079,0.000,0.452,-17.741,0.024,0.007,0.009,-0.000,0.000,0.000
47.708,2,0,-0.812,-0.038,7647.529,-0.856,-0.215,426.627,-0.586,0.265,-17.685,0.000,0.000,0.0095729,0.000,9144.000,1.375,0.733,7647.529,426.627,406.944,-30.913,7060.622,6211.005,-17.693,0.013,0.353,-0.036,-0.003,-0.015,0.000,0.000,0.000,-0.006,0.702,0.004,0.712,0.0000000,0.0000000,6221.381,0.000,0.000,0.000,0,00:00:00,-50,0.000,6221.381,40692.824,-30.915,306.316,0.000,0.369,-17.676,-0.060,0.012,0.002,0.002,0.000,0.000
47.809,2,0,-0.814,-0.052,7690.016,-0.860,-0.181,424.864,-0.470,0.304,-17.631,0.000,0.000,0.0089528,0.000,9144.000,1.370,0.752,7690.016,424.864,405.202,-31.111,7091.016,6241.400,-17.638,0.115,0.241,0.036,0.001,0.022,0.000,0.000,0.000,-0.004,0.702,0.004,0.712,0.0000000,0.0000000,6251.709,0.000,0.000,0.000,0,00:00:00,-50,0.000,6251.709,40518.047,-31.113,304.567,0.000,0.346,-17.470,0.056,-0.001,-0.007,-0.003,0.000,0.000
47.910,2,0,-0.817,-0.063,7732.329,-0.875,-0.156,423.127,-0.575,0.214,-17.365,0.000,0.000,0.0084639,0.000,9144.000,1.365,0.745,7732.329,423.127,403.490,-31.306,7121.001,6271.385,-17.371,0.043,0.396,0.008,0.027,-0.026,0.000,0.000,0.000,-0.004,0.703,0.003,0.711,0.0000000,0.0000000,6281.864,0.000,0.000,0.000,0,00:00:00,-50,0.000,6281.864,40351.949,-31.303,302.833,0.000,0.344,-17.375,0.014,-0.007,-0.014,-0.001,0.000,0.000
48.011,2,0,-0.821,-0.070,7774.468,-0.884,-0.133,421.391,-0.528,0.199,-17.366,0.000,0.000,0.0103675,0.000,9144.000,1.360,0.588,7774.468,421.391,403.490,-31.306,7121.001,6271.385,-17.371,0.043,0.396,0.008,0.027,-0.026,0.000,0.000,0.000,-0.005,0.704,0.001,0.710,0.0000000,0.0000000,6281.864,0.000,0.000,0.000,0,00:00:00,-49,0.000,6281.864,40351.949,-31.303,302.833,0.000,0.344,-17.375,0.014,-0.007,-0.014,-0.001,0.000,0.000
48.112,2,0,-0.825,-0.075,7816.438,-0.881,-0.116,419.701,-0.402,0.121,-16.900,0.000,0.000,0.0095854,0.000,9144.000,1.354,0.432,7816.438,419.701,400.091,-31.695,7180.804,6331.187,-16.903,-0.078,0.241,-0.028,-0.020,0.005,0.000,0.000,0.000,-0.006,0.704,0.003,0.710,0.0000000,0.0000000,6341.660,0.000,0.000,0.000,0,00:00:00,-49,0.000,6341.660,40011.414,-31.692,299.405,0.000,0.292,-17.188,0.052,0.000,0.014,-0.003,0.000,0.000
48.213,2,0,-0.828,-0.077,7858.240,-0.885,-0.090,418.025,-0.479,0.218,-16.762,0.000,0.000,0.0088945,0.000,9144.000,1.350,0.544,7858.240,418.025,398.461,-31.882,7209.633,6360.016,-16.767,0.020,0.305,0.001,-0.008,0.015,0.000,0.000,0.000,-0.005,0.703,0.003,0.711,0.0000000,0.0000000,6371.304,0.000,0.000,0.000,0,00:00:00,-49,0.000,6371.304,39842.492,-31.886,297.712,0.000,0.385,-16.993,0.033,-0.004,-0.010,0.000,0.000,0.000
48.314,2,0,-0.831,-0.078,7899.875,-0.883,-0.089,416.344,-0.416,-0.028,-16.805,0.000,0.000,0.0083348,0.000,9144.000,1.345,0.593,7899.875,416.344,396.766,-32.078,7239.720,6390.103,-16.807,-0.194,0.237,0.019,-0.003,-0.008,0.000,0.000,0.000,-0.005,0.703,0.002,0.711,0.0000000,0.0000000,6400.781,0.000,0.000,0.000,0,00:00:00,-49,0.000,6400.781,39682.938,-32.071,296.031,0.000,0.355,-16.841,0.119,-0.007,-0.010,0.006,0.000,0.000
48.415,2,0,-0.835,-0.079,7941.342,-0.898,-0.080,414.673,-0.582,0.051,-16.708,0.000,0.000,0.0103675,0.000,9144.000,1.340,0.609,7941.342,414.673,395.153,-32.265,7268.440,6418.824,-16.711,-0.104,0.452,0.005,0.028,-0.001,0.000,0.000,0.000,-0.005,0.704,0.002,0.710,0.0000000,0.0000000,6430.092,0.000,0.000,0.000,0,00:00:00,-49,0.000,6430.092,39517.469,-32.262,294.363,0.000,0.325,-16.716,-0.035,0.003,0.014,-0.016,0.000,0.000
48.516,2,0,-0.839,-0.077,7982.642,-0.901,-0.046,413.005,-0.472,0.294,-16.680,0.000,0.000,0.0095362,0.000,9144.000,1.335,0.446,7982.642,413.005,393.508,-32.456,7297.829,6448.212,-16.685,0.129,0.322,-0.006,-0.011,-0.016,0.000,0.000,0.000,-0.006,0.704,0.002,0.710,0.0000000,0.0000000,6459.237,0.000,0.000,0.000,0,00:00:00,-49,0.000,6459.237,39351.938,-32.455,292.707,0.000,0.340,-16.615,-0.111,0.006,0.004,-0.014,0.000,0.000
48.617,2,0,-0.842,-0.073,8023.779,-0.898,-0.022,411.369,-0.412,0.191,-16.363,0.000,0.000,0.0088818,0.000,9144.000,1.330,0.509,8023.779,411.369,391.898,-32.643,7326.681,6477.065,-16.366,0.094,0.312,0.039,0.029,-0.031,0.000,0.000,0.000,-0.005,0.705,-0.001,0.709,0.0000000,0.0000000,6488.219,0.000,0.000,0.000,0,00:00:00,-49,0.000,6488.219,39191.012,-32.642,291.063,0.000,0.344,-16.505,-0.056,-0.008,-0.012,-0.023,0.000,0.000
48.718,2,0,-0.845,-0.067,8064.753,-0.898,0.002,409.733,-0.447,0.208,-16.360,0.000,0.000,0.0083148,0.000,9144.000,1.326,0.346,8064.753,409.733,390.309,-32.829,7355.276,6505.659,-16.364,0.111,0.308,0.000,-0.024,0.006,0.000,0.000,0.000,-0.005,0.704,-0.001,0.710,0.0000000,0.0000000,6517.038,0.000,0.000,0.000,0,00:00:00,-49,0.000,6517.038,39035.500,-32.824,289.431,0.000,0.299,-16.334,-0.015,0.011,-0.005,0.001,0.000,0.000
48.819,2,0,-0.849,-0.061,8105.564,-0.913,0.002,408.109,-0.592,-0.034,-16.236,0.000,0.000,0.0103675,0.000,9144.000,1.321,0.481,8105.564,408.109,388.708,-33.017,7384.165,6534.549,-16.241,-0.091,0.444,0.025,-0.007,0.031,0.000,0.000,0.000,-0.003,0.704,-0.000,0.710,0.0000000,0.0000000,6545.694,0.000,0.000,0.000,0,00:00:00,-49,0.000,6545.694,38873.137,-33.014,287.810,0.000,0.302,-16.139,0.064,0.016,-0.010,0.009,0.000,0.000
48.920,2,0,-0.853,-0.055,8146.214,-0.917,-0.001,406.504,-0.489,-0.056,-16.057,0.000,0.000,0.0095129,0.000,9144.000,1.316,0.522,8146.214,406.504,387.153,-33.200,7412.316,6562.699,-16.060,-0.125,0.331,-0.006,-0.007,0.050,0.000,0.000,0.000,-0.002,0.704,0.002,0.711,0.0000000,0.0000000,6574.191,0.000,0.000,0.000,0,00:00:00,-50,0.000,6574.191,38712.898,-33.203,286.201,0.000,0.293,-16.107,0.000,0.003,-0.005,0.005,0.000,0.000
49.021,2,0,-0.857,-0.049,8186.702,-0.929,0.010,404.881,-0.575,0.081,-16.227,0.000,0.000,0.0088088,0.000,9144.000,1.311,0.562,8186.702,404.881,385.592,-33.385,7440.661,6591.045,-16.232,0.001,0.415,-0.006,-0.000,-0.004,0.000,0.000,0.000,-0.002,0.704,0.002,0.711,0.0000000,0.0000000,6602.529,0.000,0.000,0.000,0,00:00:00,-49,0.000,6602.529,38557.707,-33.386,284.603,0.000,0.330,-16.033,0.029,0.003,0.002,-0.009,0.000,0.000
49.122,2,0,-0.862,-0.044,8227.030,-0.939,0.010,403.276,-0.553,-0.021,-16.053,0.000,0.000,0.0082952,0.000,9144.000,1.307,0.563,8227.030,403.276,384.040,-33.569,7468.949,6619.333,-16.059,-0.134,0.327,-0.021,-0.043,-0.001,0.000,0.000,0.000,-0.003,0.702,0.002,0.712,0.0000000,0.0000000,6630.708,0.000,0.000,0.000,0,00:00:00,-49,0.000,6630.708,38407.781,-33.564,283.016,0.000,0.260,-15.810,0.033,0.005,0.006,-0.009,0.000,0.000
49.223,2,0,-0.869,-0.038,8267.200,-0.965,0.020,401.705,-0.711,0.076,-15.708,0.000,0.000,0.0103675,0.000,9144.000,1.302,0.808,8267.200,401.705,382.509,-33.751,7496.928,6647.311,-15.716,-0.027,0.508,0.004,0.012,0.003,0.000,0.000,0.000,-0.002,0.703,0.002,0.712,0.0000000,0.0000000,6658.729,0.000,0.000,0.000,0,00:00:00,-49,0.000,6658.729,38251.488,-33.750,281.440,0.000,0.375,-15.812,0.058,0.005,0.008,-0.012,0.000,0.000
49.324,2,0,-0.876,-0.033,8307.216,-0.980,0.018,400.156,-0.612,-0.040,-15.489,0.000,0.000,0.0094744,0.000,9144.000,1.297,0.738,8307.216,400.156,381.002,-33.930,7524.569,6674.952,-15.496,-0.125,0.375,0.011,-0.024,-0.010,0.000,0.000,0.000,-0.002,0.702,0.002,0.713,0.0000000,0.0000000,6686.595,0.000,0.000,0.000,0,00:00:00,-49,0.000,6686.595,38100.789,-33.930,279.874,0.000,0.370,-15.783,0.060,0.015,0.013,0.002,0.000,0.000
49.425,2,0,-0.884,-0.028,8347.075,-0.998,0.024,398.592,-0.644,0.046,-15.643,0.000,0.000,0.0087285,0.000,9144.000,1.293,0.878,8347.075,398.592,379.513,-34.108,7551.970,6702.354,-15.652,-0.070,0.357,-0.020,-0.030,-0.017,0.000,0.000,0.000,-0.004,0.701,0.002,0.714,0.0000000,0.0000000,6714.306,0.000,0.000,0.000,0,00:00:00,-49,0.000,6714.306,37950.992,-34.109,278.318,0.000,0.323,-15.568,-0.000,-0.005,-0.008,0.004,0.000,0.000
49.526,2,0,-0.893,-0.022,8386.779,-0.999,0.048,397.044,-0.479,0.228,-15.473,0.000,0.000,0.0103675,0.000,9144.000,1.288,1.050,8386.779,397.044,378.010,-34.289,7579.719,6730.103,-15.480,0.112,0.175,-0.002,-0.012,-0.059,0.000,0.000,0.000,-0.006,0.700,-0.000,0.714,0.0000000,0.0000000,6741.862,0.000,0.000,0.000,0,00:00:00,-49,0.000,6741.862,37803.785,-34.286,276.772,0.000,0.377,-15.537,0.016,0.013,-0.006,0.008,0.000,0.000
49.627,2,0,-0.902,-0.015,8426.329,-1.024,0.059,395.501,-0.717,0.104,-15.438,0.000,0.000,0.0094671,0.000,9144.000,1.284,1.118,8426.329,395.501,376.540,-34.466,7606.942,6757.325,-15.450,-0.015,0.423,-0.003,0.005,0.022,0.000,0.000,0.000,-0.005,0.700,0.000,0.714,0.0000000,0.0000000,6769.265,0.000,0.000,0.000,0,00:00:00,-49,0.000,6769.265,37654.504,-34.465,275.236,0.000,0.390,-15.381,0.018,-0.003,-0.007,-0.012,0.000,0.000
49.728,2,0,-0.912,-0.007,8465.726,-1.059,0.081,393.963,-0.832,0.216,-15.374,0.000,0.000,0.0087589,0.000,9144.000,1.279,1.089,8465.726,393.963,375.092,-34.641,7633.836,6784.219,-15.387,0.096,0.581,-0.004,0.028,-0.035,0.000,0.000,0.000,-0.007,0.701,-0.001,0.713,0.0000000,0.0000000,6796.516,0.000,0.000,0.000,0,00:00:00,-48,0.000,6796.516,37505.973,-34.645,273.710,0.000,0.403,-15.341,0.038,0.020,-0.003,0.009,0.000,0.000
49.829,2,0,-0.925,0.001,8504.972,-1.089,0.086,392.458,-0.779,0.051,-15.052,0.000,0.000,0.0103675,0.000,9144.000,1.275,0.929,8504.972,392.458,373.627,-34.818,7661.131,6811.515,-15.064,0.009,0.503,0.052,-0.021,0.019,0.000,0.000,0.000,-0.004,0.701,-0.002,0.714,0.0000000,0.0000000,6823.615,0.000,0.000,0.000,0,00:00:00,-48,0.000,6823.615,37362.336,-34.819,272.193,0.000,0.333,-15.187,-0.015,-0.001,0.009,0.003,0.000,0.000
49.930,2,0,-0.938,0.010,8544.068,-1.089,0.116,390.960,-0.493,0.297,-14.979,0.000,0.000,0.0094286,0.000,9144.000,1.270,1.049,8544.068,390.960,372.161,-34.996,7688.531,6838.915,-14.987,0.224,0.252,-0.020,0.023,-0.002,0.000,0.000,0.000,-0.005,0.701,-0.001,0.713,0.0000000,0.0000000,6850.563,0.000,0.000,0.000,0,00:00:00,-48,0.000,6850.563,37216.191,-34.996,270.685,0.000,0.253,-15.071,0.001,0.009,-0.002,0.019,0.000,0.000
50.031,2,0,-0.949,0.021,8583.016,-1.089,0.147,389.484,-0.500,0.315,-14.756,0.000,0.000,0.0086701,0.000,9144.000,1.266,0.914,8583.016,389.484,370.759,-35.167,7714.823,6865.207,-14.765,0.214,0.250,-0.019,-0.008,0.022,0.000,0.000,0.000,-0.005,0.701,0.000,0.713,0.0000000,0.0000000,6877.363,0.000,0.000,0.000,0,00:00:00,-48,0.000,6877.363,37076.164,-35.167,269.186,0.000,0.327,-14.884,0.001,0.005,-0.015,-0.004,0.000,0.000
50.132,2,0,-0.960,0.034,8621.817,-1.090,0.180,388.009,-0.511,0.344,-14.755,0.000,0.000,0.0103675,0.000,9144.000,1.262,0.961,8621.817,388.009,370.759,-35.167,7714.823,6865.207,-14.765,0.214,0.250,-0.019,-0.008,0.022,0.000,0.000,0.000,-0.005,0.701,0.002,0.713,0.0000000,0.0000000,6877.363,0.000,0.000,0.000,0,00:00:00,-48,0.000,6877.363,37076.164,-35.167,269.186,0.000,0.327,-14.884,0.001,0.005,-0.015,-0.004,0.000,0.000
50.233,2,0,-0.970,0.048,8660.469,-1.093,0.189,386.523,-0.543,0.119,-14.863,0.000,0.000,0.0094008,0.000,9144.000,1.257,1.008,8660.469,386.523,367.944,-35.512,7767.860,6918.244,-14.871,-0.005,0.273,0.005,-0.006,0.022,0.000,0.000,0.000,-0.004,0.701,0.002,0.714,0.0000000,0.0000000,6930.516,0.000,0.000,0.000,0,00:00:00,-48,0.000,6930.516,36803.914,-35.501,266.215,0.000,0.283,-14.839,0.073,0.009,0.001,-0.018,0.000,0.000
50.334,2,0,-0.979,0.061,8698.973,-1.102,0.199,385.041,-0.599,0.127,-14.816,0.000,0.000,0.0086636,0.000,9144.000,1.253,1.042,8698.973,385.041,366.561,-35.683,7794.031,6944.415,-14.824,0.008,0.350,0.004,0.013,0.011,0.000,0.000,0.000,-0.003,0.701,0.003,0.713,0.0000000,0.0000000,6956.872,0.000,0.000,0.000,0,00:00:00,-48,0.000,6956.872,36655.414,-35.683,264.742,0.000,0.364,-14.782,-0.144,-0.005,0.001,-0.000,0.000,0.000
50.435,2,0,-0.988,0.074,8737.330,-1.092,0.210,383.565,-0.424,0.153,-14.760,0.000,0.000,0.0103675,0.000,9144.000,1.249,0.966,8737.330,383.565,365.185,-35.852,7820.156,6970.540,-14.765,0.058,0.186,0.016,0.008,-0.015,0.000,0.000,0.000,-0.003,0.701,0.002,0.713,0.0000000,0.0000000,6983.082,0.000,0.000,0.000,0,00:00:00,-48,0.000,6983.082,36524.328,-35.845,263.278,0.000,0.395,-14.687,0.043,-0.006,-0.013,0.006,0.000,0.000
50.536,2,0,-0.994,0.087,8775.539,-1.081,0.219,382.089,-0.412,0.129,-14.760,0.000,0.000,0.0094392,0.000,9144.000,1.244,0.921,8775.539,382.089,365.185,-35.852,7820.156,6970.540,-14.765,0.058,0.186,0.016,0.008,-0.015,0.000,0.000,0.000,-0.003,0.702,0.000,0.712,0.0000000,0.0000000,6983.082,0.000,0.000,0.000,0,00:00:00,-48,0.000,6983.082,36524.328,-35.845,263.278,0.000,0.395,-14.687,0.043,-0.006,-0.013,0.006,0.000,0.000
50.637,2,0,-1.000,0.099,8813.602,-1.079,0.224,380.635,-0.505,0.106,-14.546,0.000,0.000,0.0087105,0.000,9144.000,1.240,0.876,8813.602,380.635,362.481,-36.188,7871.717,7022.100,-14.552,0.055,0.263,0.013,-0.013,0.019,0.000,0.000,0.000,-0.002,0.701,0.001,0.713,0.0000000,0.0000000,7035.065,0.000,0.000,0.000,0,00:00:00,-49,0.000,7035.065,36247.012,-36.189,260.374,0.000,0.351,-14.527,0.007,0.012,-0.010,0.007,0.000,0.000
50.738,2,0,-1.004,0.110,8851.521,-1.064,0.218,379.189,-0.378,-0.002,-14.454,0.000,0.000,0.0103675,0.000,9144.000,1.236,0.952,8851.521,379.189,361.132,-36.356,7897.563,7047.947,-14.458,-0.003,0.169,0.034,0.021,-0.024,0.000,0.000,0.000,-0.001,0.702,-0.001,0.712,0.0000000,0.0000000,7060.841,0.000,0.000,0.000,0,00:00:00,-49,0.000,7060.841,36110.035,-36.360,258.934,0.000,0.409,-14.428,-0.061,-0.001,-0.007,-0.016,0.000,0.000
50.839,2,0,-1.008,0.119,8889.297,-1.076,0.200,377.755,-0.655,-0.114,-14.338,0.000,0.000,0.0094076,0.000,9144.000,1.231,0.830,8889.297,377.755,359.785,-36.524,7923.431,7073.815,-14.347,-0.080,0.408,0.024,-0.028,0.006,0.000,0.000,0.000,-0.000,0.701,-0.002,0.713,0.0000000,0.0000000,7086.474,0.000,0.000,0.000,0,00:00:00,-49,0.000,7086.474,35982.484,-36.519,257.501,0.000,0.336,-14.359,-0.071,0.001,-0.004,0.015,0.000,0.000
50.940,2,0,-1.012,0.125,8926.930,-1.088,0.177,376.336,-0.646,-0.169,-14.197,0.000,0.000,0.0086332,0.000,9144.000,1.227,0.989,8926.930,376.336,358.473,-36.689,7948.733,7099.116,-14.206,-0.138,0.424,-0.002,0.015,-0.013,0.000,0.000,0.000,-0.001,0.702,-0.002,0.713,0.0000000,0.0000000,7111.965,0.000,0.000,0.000,0,00:00:00,-49,0.000,7111.965,35849.074,-36.686,256.077,0.000,0.280,-14.359,0.014,0.005,0.018,0.015,0.000,0.000
51.041,2,0,-1.017,0.129,8964.421,-1.100,0.170,374.912,-0.655,0.005,-14.238,0.000,0.000,0.0103675,0.000,9144.000,1.223,0.901,8964.421,374.912,357.165,-36.853,7973.998,7124.382,-14.247,0.057,0.400,0.013,-0.022,-0.024,0.000,0.000,0.000,-0.001,0.701,-0.004,0.713,0.0000000,0.0000000,7137.314,0.000,0.000,0.000,0,00:00:00,-49,0.000,7137.314,35713.863,-36.856,254.659,0.000,0.393,-14.208,-0.010,-0.006,0.001,0.007,0.000,0.000
51.142,2,0,-1.022,0.132,9001.773,-1.098,0.152,373.519,-0.524,-0.112,-13.928,0.000,0.000,0.0094032,0.000,9144.000,1.219,1.026,9001.773,373.519,355.850,-37.019,7999.492,7149.876,-13.935,-0.055,0.308,0.005,0.023,-0.028,0.000,0.000,0.000,-0.002,0.702,-0.005,0.713,0.0000000,0.0000000,7162.522,0.000,0.000,0.000,0,00:00:00,-49,0.000,7162.522,35591.984,-37.010,253.249,0.000,0.310,-14.103,0.059,-0.022,0.004,0.004,0.000,0.000
51.243,2,0,-1.027,0.132,9038.985,-1.089,0.129,372.118,-0.449,-0.156,-14.007,0.000,0.000,0.0085642,0.000,9144.000,1.215,0.892,9038.985,372.118,354.586,-37.179,8024.084,7174.468,-14.011,-0.182,0.264,-0.059,0.022,0.018,0.000,0.000,0.000,-0.004,0.702,-0.002,0.712,0.0000000,0.0000000,7187.590,0.000,0.000,0.000,0,00:00:00,-50,0.000,7187.590,35460.016,-37.177,251.847,0.000,0.319,-13.999,-0.006,-0.021,0.026,-0.005,0.000,0.000
51.344,2,0,-1.030,0.132,9076.057,-1.093,0.137,370.720,-0.578,0.147,-13.982,0.000,0.000,0.0103675,0.000,9144.000,1.211,0.763,9076.057,370.720,353.319,-37.339,8048.776,7199.160,-13.990,0.136,0.361,0.009,-0.020,-0.020,0.000,0.000,0.000,-0.004,0.702,-0.003,0.713,0.0000000,0.0000000,7212.520,0.000,0.000,0.000,0,00:00:00,-50,0.000,7212.520,35330.320,-37.341,250.451,0.000,0.283,-14.093,-0.014,0.001,0.019,0.016,0.000,0.000
51.445,2,0,-1.034,0.132,9112.991,-1.097,0.128,369.334,-0.586,-0.017,-13.858,0.000,0.000,0.0093767,0.000,9144.000,1.206,0.879,9112.991,369.334,352.048,-37.501,8073.633,7224.016,-13.866,-0.071,0.324,-0.029,-0.036,0.028,0.000,0.000,0.000,-0.004,0.700,-0.001,0.714,0.0000000,0.0000000,7237.310,0.000,0.000,0.000,0,00:00:00,-50,0.000,7237.310,35202.492,-37.504,249.062,0.000,0.351,-13.878,0.076,0.006,-0.005,-0.001,0.000,0.000
51.546,2,0,-1.036,0.132,9149.784,-1.079,0.145,367.930,-0.364,0.241,-14.041,0.000,0.000,0.0085647,0.000,9144.000,1.202,1.082,9149.784,367.930,350.791,-37.661,8098.293,7248.676,-14.046,0.175,0.113,-0.007,0.012,-0.011,0.000,0.000,0.000,-0.005,0.701,-0.001,0.713,0.0000000,0.0000000,7261.961,0.000,0.000,0.000,0,00:00:00,-50,0.000,7261.961,35080.453,-37.659,247.680,0.000,0.292,-13.854,0.048,0.001,-0.004,0.005,0.000,0.000
51.647,2,0,-1.038,0.132,9186.439,-1.090,0.140,366.550,-0.659,0.011,-13.806,0.000,0.000,0.0103675,0.000,9144.000,1.198,1.014,9186.439,366.550,349.553,-37.819,8122.640,7273.024,-13.817,-0.039,0.355,0.008,-0.043,-0.016,0.000,0.000,0.000,-0.005,0.699,-0.002,0.715,0.0000000,0.0000000,7286.477,0.000,0.000,0.000,0,00:00:00,-50,0.000,7286.477,34956.578,-37.818,246.305,0.000,0.379,-13.768,-0.078,0.005,0.010,-0.015,0.000,0.000
51.748,2,0,-1.041,0.133,9222.957,-1.104,0.137,365.183,-0.688,0.041,-13.670,0.000,0.000,0.0093725,0.000,9144.000,1.194,1.260,9222.957,365.183,348.326,-37.977,8146.843,7297.227,-13.682,-0.004,0.392,0.003,0.004,-0.017,0.000,0.000,0.000,-0.006,0.699,-0.003,0.715,0.0000000,0.0000000,7310.854,0.000,0.000,0.000,0,00:00:00,-50,0.000,7310.854,34831.668,-37.978,244.936,0.000,0.310,-13.698,0.067,-0.005,0.004,0.006,0.000,0.000
51.849,2,0,-1.045,0.133,9259.340,-1.119,0.135,363.837,-0.693,0.048,-13.455,0.000,0.000,0.0085546,0.000,9144.000,1.190,1.238,9259.340,363.837,347.098,-38.135,8171.135,7321.518,-13.466,-0.051,0.404,-0.040,0.002,0.021,0.000,0.000,0.000,-0.006,0.699,-0.001,0.715,0.0000000,0.0000000,7335.096,0.000,0.000,0.000,0,00:00:00,-50,0.000,7335.096,34710.469,-38.134,243.574,0.000,0.289,-13.615,-0.016,-0.009,-0.007,-0.010,0.000,0.000
51.950,2,0,-1.050,0.133,9295.589,-1.135,0.137,362.482,-0.714,0.097,-13.549,0.000,0.000,0.0103675,0.000,9144.000,1.186,1.224,9295.589,362.482,345.891,-38.291,8195.090,7345.473,-13.561,-0.031,0.435,-0.023,0.008,-0.043,0.000,0.000,0.000,-0.009,0.700,-0.001,0.714,0.0000000,0.0000000,7359.203,0.000,0.000,0.000,0,00:00:00,-50,0.000,7359.203,34588.648,-38.291,242.218,0.000,0.412,-13.655,-0.049,0.003,0.003,-0.002,0.000,0.000
52.051,2,0,-1.056,0.133,9331.702,-1.142,0.144,361.136,-0.619,0.140,-13.466,0.000,0.000,0.0093448,0.000,9144.000,1.182,1.176,9331.702,361.136,344.674,-38.448,8219.297,7369.680,-13.477,-0.004,0.345,-0.011,0.003,0.001,0.000,0.000,0.000,-0.009,0.700,-0.001,0.714,0.0000000,0.0000000,7383.174,0.000,0.000,0.000,0,00:00:00,-50,0.000,7383.174,34470.250,-38.444,240.868,0.000,0.354,-13.452,0.002,0.005,-0.003,0.001,0.000,0.000
52.152,2,0,-1.062,0.134,9367.682,-1.152,0.145,359.795,-0.664,0.081,-13.405,0.000,0.000,0.0085120,0.000,9144.000,1.178,1.158,9367.682,359.795,343.488,-38.602,8242.950,7393.333,-13.416,-0.111,0.391,-0.037,-0.001,-0.005,0.000,0.000,0.000,-0.010,0.700,0.000,0.714,0.0000000,0.0000000,7407.012,0.000,0.000,0.000,0,00:00:00,-50,0.000,7407.012,34346.133,-38.605,239.524,0.000,0.311,-13.469,0.012,-0.006,0.003,0.016,0.000,0.000
52.253,2,0,-1.067,0.135,9403.527,-1.142,0.160,358.450,-0.454,0.213,-13.452,0.000,0.000,0.0103675,0.000,9144.000,1.174,1.163,9403.527,358.450,342.321,-38.754,8266.311,7416.694,-13.460,0.048,0.187,0.022,0.007,-0.001,0.000,0.000,0.000,-0.010,0.700,-0.001,0.714,0.0000000,0.0000000,7430.715,0.000,0.000,0.000,0,00:00:00,-50,0.000,7430.715,34231.605,-38.754,238.187,0.000,0.252,-13.375,0.025,-0.008,0.006,0.001,0.000,0.000
52.354,2,0,-1.071,0.136,9439.237,-1.143,0.139,357.103,-0.581,-0.133,-13.465,0.000,0.000,0.0093451,0.000,9144.000,1.170,1.125,9439.237,357.103,341.151,-38.906,8289.780,7440.163,-13.473,-0.257,0.284,0.030,-0.025,0.029,0.000,0.000,0.000,-0.008,0.699,-0.001,0.715,0.0000000,0.0000000,7454.286,0.000,0.000,0.000,0,00:00:00,-50,0.000,7454.286,34113.938,-38.908,236.855,0.000,0.302,-13.345,0.003,0.005,0.014,0.009,0.000,0.000
52.455,2,0,-1.076,0.137,9474.814,-1.159,0.150,355.773,-0.725,0.179,-13.307,0.000,0.000,0.0085476,0.000,9144.000,1.166,1.270,9474.814,355.773,339.978,-39.060,8313.366,7463.750,-13.319,0.070,0.469,0.010,0.031,0.016,0.000,0.000,0.000,-0.007,0.700,-0.001,0.714,0.0000000,0.0000000,7477.725,0.000,0.000,0.000,0,00:00:00,-50,0.000,7477.725,34000.422,-39.056,235.529,0.000,0.347,-13.281,0.006,0.015,-0.008,-0.023,0.000,0.000
52.556,2,0,-1.081,0.138,9510.261,-1.160,0.166,354.468,-0.577,0.229,-13.052,0.000,0.000,0.0103675,0.000,9144.000,1.162,1.095,9510.261,354.468,338.825,-39.211,8336.634,7487.018,-13.063,0.133,0.297,0.011,-0.022,0.037,0.000,0.000,0.000,-0.005,0.700,0.000,0.715,0.0000000,0.0000000,7501.031,0.000,0.000,0.000,0,00:00:00,-50,0.000,7501.031,33887.035,-39.205,234.209,0.000,0.358,-13.107,0.150,0.003,0.000,0.004,0.000,0.000
52.657,2,0,-1.086,0.141,9545.577,-1.164,0.180,353.162,-0.606,0.217,-13.051,0.000,0.000,0.0092718,0.000,9144.000,1.158,1.222,9545.577,353.162,338.825,-39.211,8336.634,7487.018,-13.063,0.133,0.297,0.011,-0.022,0.037,0.000,0.000,0.000,-0.003,0.699,0.001,0.715,0.0000000,0.0000000,7501.031,0.000,0.000,0.000,0,00:00:00,-50,0.000,7501.031,33887.035,-39.205,234.209,0.000,0.358,-13.107,0.150,0.003,0.000,0.004,0.000,0.000
52.758,2,0,-1.091,0.144,9580.762,-1.162,0.179,351.849,-0.556,0.060,-13.134,0.000,0.000,0.0084076,0.000,9144.000,1.154,1.350,9580.762,351.849,336.552,-39.510,8382.671,7533.054,-13.144,-0.049,0.234,-0.019,-0.010,-0.034,0.000,0.000,0.000,-0.005,0.698,0.001,0.716,0.0000000,0.0000000,7547.250,0.000,0.000,0.000,0,00:00:00,-50,0.000,7547.250,33655.949,-39.509,231.585,0.000,0.414,-13.116,-0.030,-0.003,-0.009,0.007,0.000,0.000
52.859,2,0,-1.095,0.147,9615.817,-1.163,0.182,350.547,-0.590,0.112,-13.020,0.000,0.000,0.0103675,0.000,9144.000,1.150,1.404,9615.817,350.547,335.448,-39.656,8405.142,7555.525,-13.032,0.004,0.235,-0.001,-0.027,-0.012,0.000,0.000,0.000,-0.006,0.697,0.000,0.717,0.0000000,0.0000000,7570.163,0.000,0.000,0.000,0,00:00:00,-50,0.000,7570.163,33545.590,-39.655,230.282,0.000,0.384,-13.009,-0.047,0.002,-0.008,-0.005,0.000,0.000
52.960,2,0,-1.099,0.151,9650.741,-1.178,0.196,349.236,-0.717,0.215,-13.108,0.000,0.000,0.0092960,0.000,9144.000,1.146,1.559,9650.741,349.236,334.314,-39.807,8428.257,7578.640,-13.124,0.123,0.371,0.014,0.009,0.023,0.000,0.000,0.000,-0.004,0.698,0.001,0.716,0.0000000,0.0000000,7592.947,0.000,0.000,0.000,0,00:00:00,-50,0.000,7592.947,33432.793,-39.805,228.983,0.000,0.389,-13.076,0.045,-0.018,0.006,-0.000,0.000,0.000
53.061,2,0,-1.104,0.155,9685.534,-1.189,0.209,347.932,-0.691,0.213,-13.042,0.000,0.000,0.0084868,0.000,9144.000,1.143,1.510,9685.534,347.932,333.210,-39.954,8450.826,7601.210,-13.056,0.124,0.385,0.003,0.029,0.024,0.000,0.000,0.000,-0.003,0.699,0.001,0.715,0.0000000,0.0000000,7615.602,0.000,0.000,0.000,0,00:00:00,-50,0.000,7615.602,33320.961,-39.954,227.690,0.000,0.250,-12.901,-0.005,0.006,0.010,-0.008,0.000,0.000
53.162,2,0,-1.109,0.160,9720.198,-1.188,0.208,346.645,-0.571,0.070,-12.870,0.000,0.000,0.0103675,0.000,9144.000,1.139,1.342,9720.198,346.645,332.123,-40.099,8473.121,7623.504,-12.880,-0.022,0.272,-0.004,0.002,-0.006,0.000,0.000,0.000,-0.004,0.699,0.001,0.715,0.0000000,0.0000000,7638.128,0.000,0.000,0.000,0,00:00:00,-50,0.000,7638.128,33216.922,-40.092,226.402,0.000,0.332,-12.862,0.003,0.004,-0.002,-0.011,0.000,0.000
53.263,2,0,-1.114,0.164,9754.735,-1.179,0.216,345.365,-0.501,0.168,-12.804,0.000,0.000,0.0092836,0.000,9144.000,1.135,1.332,9754.735,345.365,331.036,-40.244,8495.477,7645.861,-12.813,0.058,0.235,-0.016,0.026,-0.060,0.000,0.000,0.000,-0.006,0.700,-0.000,0.714,0.0000000,0.0000000,7660.525,0.000,0.000,0.000,0,00:00:00,-50,0.000,7660.525,33107.449,-40.239,225.119,0.000,0.332,-12.856,0.004,0.007,0.016,-0.001,0.000,0.000
53.364,2,0,-1.117,0.167,9789.143,-1.181,0.196,344.085,-0.610,-0.106,-12.799,0.000,0.000,0.0084045,0.000,9144.000,1.131,1.185,9789.143,344.085,329.958,-40.388,8517.691,7668.074,-12.806,-0.217,0.396,-0.001,0.039,0.017,0.000,0.000,0.000,-0.006,0.701,0.000,0.713,0.0000000,0.0000000,7682.795,0.000,0.000,0.000,0,00:00:00,-50,0.000,7682.795,32997.426,-40.386,223.841,0.000,0.439,-12.777,-0.055,-0.007,0.003,0.007,0.000,0.000
53.465,2,0,-1.120,0.170,9823.425,-1.182,0.204,342.814,-0.599,0.163,-12.706,0.000,0.000,0.0103675,0.000,9144.000,1.127,0.961,9823.425,342.814,328.895,-40.531,8539.662,7690.045,-12.715,0.041,0.390,-0.010,0.005,0.001,0.000,0.000,0.000,-0.006,0.701,0.001,0.713,0.0000000,0.0000000,7704.938,0.000,0.000,0.000,0,00:00:00,-50,0.000,7704.938,32888.023,-40.533,222.568,0.000,0.376,-12.706,-0.048,0.001,-0.007,-0.000,0.000,0.000
53.566,2,0,-1.123,0.172,9857.579,-1.178,0.193,341.545,-0.543,-0.019,-12.688,0.000,0.000,0.0092687,0.000,9144.000,1.123,0.934,9857.579,341.545,327.829,-40.675,8561.740,7712.123,-12.695,-0.123,0.340,0.015,0.003,-0.007,0.000,0.000,0.000,-0.006,0.701,0.000,0.713,0.0000000,0.0000000,7726.954,0.000,0.000,0.000,0,00:00:00,-50,0.000,7726.954,32783.461,-40.674,221.300,0.000,0.346,-12.803,0.104,0.001,-0.009,0.012,0.000,0.000
53.667,2,0,-1.125,0.174,9891.607,-1.172,0.204,340.282,-0.541,0.206,-12.630,0.000,0.000,0.0083902,0.000,9144.000,1.119,0.916,9891.607,340.282,326.785,-40.816,8583.434,7733.818,-12.638,0.147,0.345,0.035,0.006,-0.001,0.000,0.000,0.000,-0.005,0.702,-0.001,0.713,0.0000000,0.0000000,7748.843,0.000,0.000,0.000,0,00:00:00,-50,0.000,7748.843,32681.148,-40.812,220.037,0.000,0.407,-12.519,-0.016,0.009,-0.003,-0.014,0.000,0.000
53.768,2,0,-1.127,0.176,9925.509,-1.167,0.194,339.013,-0.539,-0.007,-12.694,0.000,0.000,0.0103675,0.000,9144.000,1.116,0.883,9925.509,339.013,325.735,-40.958,8605.299,7755.682,-12.702,-0.050,0.328,0.012,-0.012,-0.040,0.000,0.000,0.000,-0.006,0.701,-0.003,0.713,0.0000000,0.0000000,7770.607,0.000,0.000,0.000,0,00:00:00,-50,0.000,7770.607,32571.348,-40.961,218.778,0.000,0.392,-12.559,-0.050,-0.016,0.022,0.010,0.000,0.000
53.869,2,0,-1.127,0.177,9959.284,-1.157,0.180,337.757,-0.492,-0.051,-12.554,0.000,0.000,0.0092939,0.000,9144.000,1.112,0.954,9959.284,337.757,324.695,-41.099,8627.026,7777.409,-12.560,-0.083,0.297,0.008,0.011,0.011,0.000,0.000,0.000,-0.005,0.702,-0.003,0.713,0.0000000,0.0000000,7792.245,0.000,0.000,0.000,0,00:00:00,-50,0.000,7792.245,32469.934,-41.099,217.523,0.000,0.301,-12.641,0.035,-0.016,0.003,-0.001,0.000,0.000
53.970,2,0,-1.127,0.176,9992.935,-1.155,0.165,336.505,-0.571,-0.049,-12.525,0.000,0.000,0.0083963,0.000,9144.000,1.108,0.892,9992.935,336.505,323.680,-41.238,8648.285,7798.668,-12.532,-0.055,0.388,0.020,0.009,-0.012,0.000,0.000,0.000,-0.005,0.702,-0.004,0.712,0.0000000,0.0000000,7813.758,0.000,0.000,0.000,0,00:00:00,-50,0.000,7813.758,32365.076,-41.242,216.274,0.000,0.220,-12.498,-0.019,0.023,-0.006,0.002,0.000,0.000
54.071,2,0,-1.127,0.174,10026.460,-1.151,0.148,335.252,-0.560,-0.075,-12.525,0.000,0.000,0.0103675,0.000,9144.000,1.104,0.841,10026.460,335.252,323.680,-41.238,8648.285,7798.668,-12.532,-0.055,0.388,0.020,0.009,-0.012,0.000,0.000,0.000,-0.004,0.702,-0.005,0.712,0.0000000,0.0000000,7813.758,0.000,0.000,0.000,0,00:00:00,-50,0.000,7813.758,32365.076,-41.242,216.274,0.000,0.220,-12.498,-0.019,0.023,-0.006,0.002,0.000,0.000
54.172,2,0,-1.126,0.170,10059.861,-1.144,0.123,334.009,-0.516,-0.158,-12.434,0.000,0.000,0.0092726,0.000,9144.000,1.100,0.790,10059.861,334.009,321.655,-41.514,8690.827,7841.211,-12.441,-0.132,0.337,0.006,-0.008,0.015,0.000,0.000,0.000,-0.004,0.702,-0.005,0.712,0.0000000,0.0000000,7856.411,0.000,0.000,0.000,0,00:00:00,-50,0.000,7856.411,32169.010,-41.509,213.787,0.000,0.328,-12.441,-0.015,-0.016,-0.010,-0.016,0.000,0.000
54.273,2,0,-1.125,0.164,10093.137,-1.137,0.098,332.765,-0.525,-0.165,-12.434,0.000,0.000,0.0083744,0.000,9144.000,1.097,0.834,10093.137,332.765,321.655,-41.514,8690.827,7841.211,-12.441,-0.132,0.337,0.006,-0.008,0.015,0.000,0.000,0.000,-0.003,0.702,-0.005,0.712,0.0000000,0.0000000,7856.411,0.000,0.000,0.000,0,00:00:00,-50,0.000,7856.411,32169.010,-41.509,213.787,0.000,0.328,-12.441,-0.015,-0.016,-0.010,-0.016,0.000,0.000
54.374,2,0,-1.123,0.158,10126.291,-1.140,0.097,331.533,-0.622,0.078,-12.323,0.000,0.000,0.0103675,0.000,9144.000,1.093,0.878,10126.291,331.533,319.672,-41.787,8732.726,7883.110,-12.330,0.119,0.456,0.005,0.020,-0.012,0.000,0.000,0.000,-0.003,0.702,-0.005,0.712,0.0000000,0.0000000,7898.570,0.000,0.000,0.000,0,00:00:00,-50,0.000,7898.570,31963.668,-41.792,211.318,0.000,0.344,-12.327,0.002,0.001,-0.004,0.010,0.000,0.000
54.475,2,0,-1.122,0.151,10159.321,-1.128,0.084,330.303,-0.475,-0.052,-12.302,0.000,0.000,0.0092400,0.000,9144.000,1.089,0.766,10159.321,330.303,318.698,-41.921,8753.374,7903.758,-12.308,-0.029,0.280,-0.013,-0.025,-0.003,0.000,0.000,0.000,-0.004,0.701,-0.005,0.713,0.0000000,0.0000000,7919.464,0.000,0.000,0.000,0,00:00:00,-50,0.000,7919.464,31868.479,-41.923,210.090,0.000,0.266,-12.425,-0.002,-0.012,0.004,0.012,0.000,0.000
54.576,2,0,-1.119,0.143,10192.231,-1.116,0.058,329.096,-0.469,-0.186,-12.070,0.000,0.000,0.0083298,0.000,9144.000,1.086,0.909,10192.231,329.096,317.695,-42.060,8774.690,7925.073,-12.076,-0.181,0.307,-0.016,0.022,-0.028,0.000,0.000,0.000,-0.005,0.702,-0.005,0.712,0.0000000,0.0000000,7940.236,0.000,0.000,0.000,0,00:00:00,-50,0.000,7940.236,31769.311,-42.060,208.865,0.000,0.390,-12.211,-0.022,-0.003,0.005,0.006,0.000,0.000
54.677,2,0,-1.116,0.135,10225.019,-1.107,0.049,327.881,-0.493,-0.013,-12.151,0.000,0.000,0.0103675,0.000,9144.000,1.082,0.783,10225.019,327.881,316.740,-42.192,8795.036,7945.420,-12.155,0.015,0.372,0.017,0.037,-0.020,0.000,0.000,0.000,-0.005,0.704,-0.007,0.711,0.0000000,0.0000000,7960.887,0.000,0.000,0.000,0,00:00:00,-50,0.000,7960.887,31676.137,-42.189,207.645,0.000,0.388,-12.267,-0.026,0.012,-0.013,-0.009,0.000,0.000
54.778,2,0,-1.112,0.126,10257.683,-1.086,0.031,326.642,-0.378,-0.113,-12.386,0.000,0.000,0.0091985,0.000,9144.000,1.078,0.575,10257.683,326.642,315.794,-42.323,8815.248,7965.632,-12.390,-0.059,0.266,0.022,0.009,-0.011,0.000,0.000,0.000,-0.005,0.704,-0.008,0.710,0.0000000,0.0000000,7981.415,0.000,0.000,0.000,0,00:00:00,-50,0.000,7981.415,31577.764,-42.326,206.429,0.000,0.351,-12.139,-0.030,-0.004,-0.009,0.030,0.000,0.000
54.879,2,0,-1.106,0.117,10290.224,-1.068,0.023,325.413,-0.401,-0.018,-12.293,0.000,0.000,0.0083558,0.000,9144.000,1.074,0.526,10290.224,325.413,314.844,-42.456,8835.597,7985.981,-12.296,0.065,0.314,0.023,0.021,-0.004,0.000,0.000,0.000,-0.004,0.705,-0.009,0.710,0.0000000,0.0000000,8001.822,0.000,0.000,0.000,0,00:00:00,-50,0.000,8001.822,31486.732,-42.452,205.217,0.000,0.354,-12.098,0.023,0.005,0.025,-0.018,0.000,0.000
54.980,2,0,-1.099,0.107,10322.645,-1.060,0.007,324.208,-0.496,-0.106,-12.044,0.000,0.000,0.0103675,0.000,9144.000,1.071,0.410,10322.645,324.208,313.885,-42.589,8856.178,8006.561,-12.047,-0.047,0.416,-0.019,0.003,0.035,0.000,0.000,0.000,-0.004,0.705,-0.007,0.709,0.0000000,0.0000000,8022.108,0.000,0.000,0.000,0,00:00:00,-50,0.000,8022.108,31386.221,-42.593,204.008,0.000,0.345,-12.092,-0.080,-0.006,0.000,0.016,0.000,0.000
55.081,2,0,-1.092,0.098,10354.945,-1.040,0.013,322.996,-0.384,0.113,-12.125,0.000,0.000,0.0091908,0.000,9144.000,1.067,0.389,10354.945,322.996,312.964,-42.718,8875.992,8026.376,-12.128,0.155,0.262,-0.013,-0.031,-0.012,0.000,0.000,0.000,-0.005,0.704,-0.007,0.711,0.0000000,0.0000000,8042.274,0.000,0.000,0.000,0,00:00:00,-50,0.000,8042.274,31296.211,-42.719,202.803,0.000,0.354,-12.040,0.009,0.014,0.009,0.003,0.000,0.000
55.182,2,0,-1.084,0.089,10387.123,-1.028,-0.002,321.782,-0.450,-0.099,-12.137,0.000,0.000,0.0103675,0.000,9144.000,1.063,0.565,10387.123,321.782,312.044,-42.847,8895.831,8046.214,-12.139,-0.100,0.369,-0.036,0.031,0.024,0.000,0.000,0.000,-0.005,0.705,-0.005,0.709,0.0000000,0.0000000,8062.319,0.000,0.000,0.000,0,00:00:00,-50,0.000,8062.319,31202.686,-42.850,201.602,0.000,0.303,-12.035,-0.022,-0.001,-0.017,0.005,0.000,0.000
55.283,2,0,-1.077,0.081,10419.184,-1.034,-0.001,320.616,-0.624,0.049,-11.662,0.000,0.000,0.0092441,0.000,9144.000,1.060,0.386,10419.184,320.616,311.121,-42.977,8915.786,8066.170,-11.666,0.048,0.539,-0.002,0.015,-0.011,0.000,0.000,0.000,-0.005,0.705,-0.005,0.710,0.0000000,0.0000000,8082.245,0.000,0.000,0.000,0,00:00:00,-50,0.000,8082.245,31113.979,-42.974,200.405,0.000,0.344,-12.024,0.039,0.008,0.003,0.001,0.000,0.000
55.384,2,0,-1.071,0.072,10451.126,-1.034,-0.014,319.412,-0.566,-0.086,-12.040,0.000,0.000,0.0103675,0.000,9144.000,1.056,0.411,10451.126,319.412,310.192,-43.108,8935.928,8086.311,-12.045,-0.059,0.451,0.025,-0.024,0.025,0.000,0.000,0.000,-0.003,0.704,-0.005,0.710,0.0000000,0.0000000,8102.051,0.000,0.000,0.000,0,00:00:00,-50,0.000,8102.051,31017.463,-43.111,199.211,0.000,0.289,-11.933,0.047,-0.009,-0.009,0.008,0.000,0.000
55.485,2,0,-1.065,0.064,10482.949,-1.033,-0.017,318.235,-0.549,0.000,-11.772,0.000,0.000,0.0092375,0.000,9144.000,1.052,0.553,10482.949,318.235,309.309,-43.233,8955.103,8105.486,-11.776,0.049,0.443,0.020,0.006,0.026,0.000,0.000,0.000,-0.002,0.704,-0.004,0.710,0.0000000,0.0000000,8121.738,0.000,0.000,0.000,0,00:00:00,-50,0.000,8121.738,30928.389,-43.236,198.021,0.000,0.305,-11.864,-0.046,0.007,0.005,0.002,0.000,0.000
55.586,2,0,-1.059,0.056,10514.655,-1.032,-0.022,317.058,-0.542,-0.022,-11.772,0.000,0.000,0.0103675,0.000,9144.000,1.049,0.518,10514.655,317.058,309.309,-43.233,8955.103,8105.486,-11.776,0.049,0.443,0.020,0.006,0.026,0.000,0.000,0.000,-0.000,0.704,-0.004,0.710,0.0000000,0.0000000,8121.738,0.000,0.000,0.000,0,00:00:00,-50,0.000,8121.738,30928.389,-43.236,198.021,0.000,0.305,-11.864,-0.046,0.007,0.005,0.002,0.000,0.000
55.687,2,0,-1.054,0.049,10546.242,-1.032,-0.034,315.874,-0.555,-0.091,-11.837,0.000,0.000,0.0091475,0.000,9144.000,1.045,0.482,10546.242,315.874,307.522,-43.486,8994.061,8144.444,-11.841,-0.037,0.460,-0.015,0.003,-0.006,0.000,0.000,0.000,-0.001,0.704,-0.004,0.710,0.0000000,0.0000000,8160.756,0.000,0.000,0.000,0,00:00:00,-50,0.000,8160.756,30752.500,-43.486,195.651,0.000,0.393,-11.927,0.052,0.003,0.007,-0.006,0.000,0.000
55.788,2,0,-1.049,0.040,10577.713,-1.019,-0.054,314.702,-0.430,-0.177,-11.719,0.000,0.000,0.0103675,0.000,9144.000,1.042,0.464,10577.713,314.702,306.626,-43.614,9013.670,8164.054,-11.723,-0.123,0.335,-0.000,0.004,-0.029,0.000,0.000,0.000,-0.002,0.704,-0.005,0.710,0.0000000,0.0000000,8180.088,0.000,0.000,0.000,0,00:00:00,-50,0.000,8180.088,30665.717,-43.609,194.471,0.000,0.330,-11.837,-0.033,-0.011,-0.002,-0.002,0.000,0.000
55.889,2,0,-1.044,0.031,10609.066,-1.027,-0.056,313.532,-0.623,-0.007,-11.705,0.000,0.000,0.0091368,0.000,9144.000,1.038,0.470,10609.066,313.532,305.749,-43.739,9032.894,8183.277,-11.710,0.037,0.512,-0.011,-0.004,-0.023,0.000,0.000,0.000,-0.003,0.704,-0.005,0.710,0.0000000,0.0000000,8199.302,0.000,0.000,0.000,0,00:00:00,-50,0.000,8199.302,30579.059,-43.733,193.294,0.000,0.263,-11.711,0.075,0.000,0.005,0.003,0.000,0.000
55.990,2,0,-1.041,0.023,10640.302,-1.036,-0.057,312.361,-0.637,0.004,-11.704,0.000,0.000,0.0103675,0.000,9144.000,1.034,0.543,10640.302,312.361,305.749,-43.739,9032.894,8183.277,-11.710,0.037,0.512,-0.011,-0.004,-0.023,0.000,0.000,0.000,-0.004,0.703,-0.006,0.711,0.0000000,0.0000000,8199.302,0.000,0.000,0.000,0,00:00:00,-50,0.000,8199.302,30579.059,-43.733,193.294,0.000,0.263,-11.711,0.075,0.000,0.005,0.003,0.000,0.000
56.091,2,0,-1.037,0.015,10671.419,-1.009,-0.063,311.171,-0.279,-0.048,-11.898,0.000,0.000,0.0091711,0.000,9144.000,1.031,0.615,10671.419,311.171,304.050,-43.982,9070.280,8220.664,-11.900,-0.023,0.175,-0.004,0.019,-0.028,0.000,0.000,0.000,-0.005,0.704,-0.007,0.710,0.0000000,0.0000000,8237.378,0.000,0.000,0.000,0,00:00:00,-50,0.000,8237.378,30406.979,-43.979,190.951,0.000,0.355,-11.778,-0.012,0.012,-0.002,-0.006,0.000,0.000
56.192,2,0,-1.031,0.008,10702.419,-0.991,-0.071,309.995,-0.363,-0.079,-11.766,0.000,0.000,0.0103675,0.000,9144.000,1.027,0.503,10702.419,309.995,303.190,-44.105,9089.270,8239.654,-11.769,-0.064,0.260,-0.011,-0.001,-0.043,0.000,0.000,0.000,-0.007,0.704,-0.008,0.710,0.0000000,0.0000000,8256.240,0.000,0.000,0.000,0,00:00:00,-50,0.000,8256.240,30320.449,-44.103,189.784,0.000,0.227,-11.644,-0.009,0.004,0.005,0.038,0.000,0.000
56.293,2,0,-1.025,0.001,10733.301,-0.995,-0.072,308.827,-0.578,-0.010,-11.674,0.000,0.000,0.0091883,0.000,9144.000,1.024,0.510,10733.301,308.827,302.349,-44.226,9107.866,8258.249,-11.679,0.044,0.480,0.029,0.020,-0.011,0.000,0.000,0.000,-0.006,0.704,-0.009,0.710,0.0000000,0.0000000,8274.986,0.000,0.000,0.000,0,00:00:00,-50,0.000,8274.986,30233.891,-44.228,188.620,0.000,0.309,-11.719,-0.015,-0.016,0.009,0.013,0.000,0.000
56.394,2,0,-1.018,-0.006,10764.068,-0.955,-0.079,307.665,-0.144,-0.073,-11.623,0.000,0.000,0.0103675,0.000,9144.000,1.020,0.481,10764.068,307.665,301.506,-44.348,9126.577,8276.960,-11.624,-0.003,0.048,0.021,-0.003,-0.030,0.000,0.000,0.000,-0.006,0.704,-0.010,0.710,0.0000000,0.0000000,8293.616,0.000,0.000,0.000,0,00:00:00,-50,0.000,8293.616,30152.025,-44.346,187.459,0.000,0.335,-11.552,0.012,0.004,-0.001,-0.003,0.000,0.000
56.495,2,0,-1.009,-0.013,10794.718,-0.944,-0.085,306.507,-0.414,-0.067,-11.581,0.000,0.000,0.0091305,0.000,9144.000,1.016,0.482,10794.718,306.507,300.682,-44.467,9144.878,8295.261,-11.584,-0.012,0.317,-0.017,0.018,0.013,0.000,0.000,0.000,-0.005,0.704,-0.008,0.710,0.0000000,0.0000000,8312.130,0.000,0.000,0.000,0,00:00:00,-50,0.000,8312.130,30062.713,-44.475,186.302,0.000,0.333,-11.599,-0.033,-0.001,-0.001,0.009,0.000,0.000
56.596,2,0,-1.001,-0.019,10825.253,-0.951,-0.076,305.349,-0.599,0.081,-11.580,0.000,0.000,0.0103675,0.000,9144.000,1.013,0.486,10825.253,305.349,299.834,-44.590,9163.770,8314.154,-11.586,0.146,0.461,0.007,-0.005,0.008,0.000,0.000,0.000,-0.004,0.703,-0.007,0.711,0.0000000,0.0000000,8330.527,0.000,0.000,0.000,0,00:00:00,-51,0.000,8330.527,29984.365,-44.588,185.147,0.000,0.313,-11.567,-0.015,0.006,-0.010,0.005,0.000,0.000
56.697,2,0,-0.994,-0.025,10855.673,-0.955,-0.092,304.195,-0.562,-0.176,-11.545,0.000,0.000,0.0091732,0.000,9144.000,1.009,0.675,10855.673,304.195,299.034,-44.706,9181.643,8332.027,-11.553,-0.098,0.383,0.013,-0.017,-0.009,0.000,0.000,0.000,-0.003,0.702,-0.008,0.713,0.0000000,0.0000000,8348.811,0.000,0.000,0.000,0,00:00:00,-51,0.000,8348.811,29904.318,-44.705,183.995,0.000,0.351,-11.597,-0.097,-0.007,0.007,-0.004,0.000,0.000
56.798,2,0,-0.989,-0.033,10885.977,-0.961,-0.121,303.046,-0.580,-0.299,-11.489,0.000,0.000,0.0103675,0.000,9144.000,1.006,0.898,10885.977,303.046,298.211,-44.826,9200.046,8350.429,-11.499,-0.209,0.394,0.009,0.018,-0.015,0.000,0.000,0.000,-0.004,0.701,-0.009,0.713,0.0000000,0.0000000,8366.979,0.000,0.000,0.000,0,00:00:00,-51,0.000,8366.979,29824.422,-44.821,182.847,0.000,0.314,-11.586,-0.028,0.001,-0.020,-0.006,0.000,0.000
56.899,2,0,-0.985,-0.041,10916.167,-0.976,-0.117,301.892,-0.666,0.021,-11.537,0.000,0.000,0.0091606,0.000,9144.000,1.002,0.952,10916.167,301.892,297.413,-44.942,9217.952,8368.335,-11.548,0.094,0.441,-0.015,-0.006,0.006,0.000,0.000,0.000,-0.003,0.700,-0.007,0.714,0.0000000,0.0000000,8385.031,0.000,0.000,0.000,0,00:00:00,-51,0.000,8385.031,29741.668,-44.942,181.701,0.000,0.318,-11.485,-0.050,0.008,-0.000,0.000,0.000,0.000
57.000,2,0,-0.983,-0.047,10946.241,-1.005,-0.110,300.742,-0.808,0.037,-11.497,0.000,0.000,0.0103675,0.000,9144.000,0.999,1.118,10946.241,300.742,296.625,-45.057,9235.650,8386.034,-11.513,0.129,0.531,0.017,-0.014,0.009,0.000,0.000,0.000,-0.001,0.699,-0.006,0.716,0.0000000,0.0000000,8402.970,0.000,0.000,0.000,0,00:00:00,-51,0.000,8402.970,29663.477,-45.056,180.558,0.000,0.483,-11.451,-0.012,-0.005,-0.001,0.000,0.000,0.000
57.101,2,0,-0.984,-0.053,10976.200,-1.035,-0.106,299.596,-0.809,0.015,-11.463,0.000,0.000,0.0092149,0.000,9144.000,0.995,1.379,10976.200,299.596,295.845,-45.171,9253.217,8403.600,-11.480,0.077,0.513,-0.025,0.014,0.000,0.000,0.000,0.000,-0.001,0.698,-0.004,0.716,0.0000000,0.0000000,8420.794,0.000,0.000,0.000,0,00:00:00,-51,0.000,8420.794,29585.439,-45.170,179.417,0.000,0.388,-11.434,0.045,0.009,0.002,0.029,0.000,0.000
57.202,2,0,-0.987,-0.057,11006.047,-1.050,-0.093,298.465,-0.672,0.100,-11.309,0.000,0.000,0.0103675,0.000,9144.000,0.992,1.479,11006.047,298.465,295.059,-45.287,9270.965,8421.348,-11.322,0.174,0.378,0.014,0.020,-0.020,0.000,0.000,0.000,0.001,0.698,-0.004,0.716,0.0000000,0.0000000,8438.505,0.000,0.000,0.000,0,00:00:00,-51,0.000,8438.505,29503.045,-45.291,178.280,0.000,0.340,-11.302,-0.012,0.005,0.007,0.005,0.000,0.000
57.303,2,0,-0.992,-0.060,11035.780,-1.074,-0.086,297.333,-0.758,0.041,-11.322,0.000,0.000,0.0091228,0.000,9144.000,0.988,1.487,11035.780,297.333,294.278,-45.402,9288.640,8439.024,-11.340,0.096,0.394,-0.017,-0.054,-0.034,0.000,0.000,0.000,0.000,0.696,-0.003,0.718,0.0000000,0.0000000,8456.101,0.000,0.000,0.000,0,00:00:00,-51,0.000,8456.101,29430.672,-45.397,177.145,0.000,0.365,-11.484,-0.053,0.013,-0.002,-0.010,0.000,0.000
57.404,2,0,-0.998,-0.062,11065.399,-1.105,-0.089,296.188,-0.832,-0.066,-11.452,0.000,0.000,0.0103675,0.000,9144.000,0.985,1.839,11065.399,296.188,293.503,-45.516,9306.212,8456.596,-11.473,0.004,0.445,0.011,-0.008,-0.009,0.000,0.000,0.000,0.001,0.695,-0.004,0.719,0.0000000,0.0000000,8473.584,0.000,0.000,0.000,0,00:00:00,-51,0.000,8473.584,29350.443,-45.516,176.013,0.000,0.357,-11.417,-0.098,-0.005,-0.015,0.010,0.000,0.000
57.505,2,0,-1.006,-0.064,11094.904,-1.122,-0.080,295.054,-0.696,0.053,-11.332,0.000,0.000,0.0092428,0.000,9144.000,0.981,1.936,11094.904,295.054,292.731,-45.630,9323.744,8474.127,-11.348,0.076,0.318,-0.039,-0.010,0.015,0.000,0.000,0.000,0.000,0.695,-0.001,0.719,0.0000000,0.0000000,8490.954,0.000,0.000,0.000,0,00:00:00,-51,0.000,8490.954,29276.006,-45.626,174.883,0.000,0.428,-11.238,-0.053,-0.009,0.006,0.001,0.000,0.000
57.606,2,0,-1.015,-0.065,11124.298,-1.136,-0.073,293.936,-0.672,0.042,-11.189,0.000,0.000,0.0103675,0.000,9144.000,0.978,1.910,11124.298,293.936,291.989,-45.740,9340.624,8491.007,-11.205,0.102,0.320,0.034,0.006,-0.004,0.000,0.000,0.000,0.003,0.696,-0.001,0.718,0.0000000,0.0000000,8508.211,0.000,0.000,0.000,0,00:00:00,-51,0.000,8508.211,29199.090,-45.740,173.756,0.000,0.301,-11.308,0.076,-0.018,0.000,0.001,0.000,0.000
57.707,2,0,-1.025,-0.065,11153.578,-1.157,-0.071,292.803,-0.751,-0.018,-11.329,0.000,0.000,0.0091030,0.000,9144.000,0.974,1.805,11153.578,292.803,291.256,-45.849,9357.359,8507.743,-11.348,0.074,0.365,0.028,-0.031,0.015,0.000,0.000,0.000,0.004,0.695,-0.001,0.719,0.0000000,0.0000000,8525.355,0.000,0.000,0.000,0,00:00:00,-51,0.000,8525.355,29126.924,-45.847,172.632,0.000,0.329,-11.291,-0.007,0.014,0.018,-0.003,0.000,0.000
57.808,2,0,-1.036,-0.066,11182.747,-1.177,-0.076,291.685,-0.737,-0.083,-11.171,0.000,0.000,0.0103675,0.000,9144.000,0.971,1.950,11182.747,291.685,290.499,-45.961,9374.653,8525.037,-11.190,-0.010,0.365,-0.015,0.006,0.018,0.000,0.000,0.000,0.004,0.695,-0.001,0.719,0.0000000,0.0000000,8542.388,0.000,0.000,0.000,0,00:00:00,-51,0.000,8542.388,29053.301,-45.956,171.510,0.000,0.401,-11.324,0.073,0.001,0.004,0.010,0.000,0.000
57.909,2,0,-1.046,-0.067,11211.802,-1.183,-0.091,290.550,-0.614,-0.190,-11.355,0.000,0.000,0.0091299,0.000,9144.000,0.967,1.903,11211.802,290.550,289.765,-46.070,9391.466,8541.849,-11.370,-0.079,0.244,0.031,-0.021,-0.005,0.000,0.000,0.000,0.004,0.696,-0.003,0.719,0.0000000,0.0000000,8559.308,0.000,0.000,0.000,0,00:00:00,-51,0.000,8559.308,28977.096,-46.069,170.391,0.000,0.307,-11.321,-0.004,-0.002,0.008,-0.017,0.000,0.000
58.010,2,0,-1.057,-0.070,11240.744,-1.203,-0.114,289.428,-0.756,-0.264,-11.222,0.000,0.000,0.0103675,0.000,9144.000,0.964,1.863,11240.744,289.428,289.056,-46.176,9407.744,8558.127,-11.243,-0.161,0.381,-0.007,-0.007,0.001,0.000,0.000,0.000,0.002,0.695,-0.004,0.719,0.0000000,0.0000000,8576.115,0.000,0.000,0.000,0,00:00:00,-51,0.000,8576.115,28903.010,-46.180,169.274,0.000,0.366,-11.135,0.022,-0.011,0.002,0.003,0.000,0.000
58.111,2,0,-1.069,-0.074,11269.576,-1.221,-0.108,288.313,-0.740,0.026,-11.146,0.000,0.000,0.0091898,0.000,9144.000,0.960,1.915,11269.576,288.313,288.330,-46.285,9424.444,8574.828,-11.164,0.121,0.366,-0.005,-0.005,0.022,0.000,0.000,0.000,0.004,0.695,-0.002,0.719,0.0000000,0.0000000,8592.812,0.000,0.000,0.000,0,00:00:00,-51,0.000,8592.812,28832.508,-46.286,168.159,0.000,0.365,-11.170,-0.105,-0.011,-0.013,0.003,0.000,0.000
58.212,2,0,-1.081,-0.077,11298.296,-1.234,-0.113,287.201,-0.689,-0.089,-11.126,0.000,0.000,0.0103675,0.000,9144.000,0.957,1.922,11298.296,287.201,287.611,-46.392,9440.996,8591.380,-11.144,-0.022,0.298,-0.026,-0.054,-0.013,0.000,0.000,0.000,0.002,0.695,-0.002,0.719,0.0000000,0.0000000,8609.396,0.000,0.000,0.000,0,00:00:00,-51,0.000,8609.396,28763.438,-46.389,167.047,0.000,0.449,-11.149,0.031,-0.015,0.012,-0.006,0.000,0.000
58.313,2,0,-1.093,-0.081,11326.904,-1.252,-0.129,286.084,-0.760,-0.206,-11.162,0.000,0.000,0.0091341,0.000,9144.000,0.953,2.009,11326.904,286.084,286.879,-46.503,9457.918,8608.302,-11.183,-0.125,0.362,0.009,-0.020,-0.052,0.000,0.000,0.000,0.000,0.694,-0.005,0.720,0.0000000,0.0000000,8625.869,0.000,0.000,0.000,0,00:00:00,-51,0.000,8625.869,28690.201,-46.499,165.937,0.000,0.342,-11.083,-0.013,0.007,-0.006,0.016,0.000,0.000
58.414,2,0,-1.106,-0.085,11355.403,-1.276,-0.126,284.988,-0.816,-0.011,-10.968,0.000,0.000,0.0103675,0.000,9144.000,0.950,2.045,11355.403,284.988,286.193,-46.606,9473.771,8624.155,-10.991,0.076,0.410,0.010,-0.010,0.028,0.000,0.000,0.000,0.003,0.694,-0.003,0.720,0.0000000,0.0000000,8642.231,0.000,0.000,0.000,0,00:00:00,-51,0.000,8642.231,28620.977,-46.603,164.830,0.000,0.280,-11.119,-0.039,0.016,0.002,-0.011,0.000,0.000
58.515,2,0,-1.120,-0.088,11383.792,-1.299,-0.123,283.891,-0.824,-0.019,-10.968,0.000,0.000,0.0091124,0.000,9144.000,0.946,2.115,11383.792,283.891,286.193,-46.606,9473.771,8624.155,-10.991,0.076,0.410,0.010,-0.010,0.028,0.000,0.000,0.000,0.005,0.694,-0.002,0.720,0.0000000,0.0000000,8642.231,0.000,0.000,0.000,0,00:00:00,-51,0.000,8642.231,28620.977,-46.603,164.830,0.000,0.280,-11.119,-0.039,0.016,0.002,-0.011,0.000,0.000
58.616,2,0,-1.135,-0.091,11412.070,-1.322,-0.116,282.778,-0.822,0.021,-11.124,0.000,0.000,0.0103675,0.000,9144.000,0.943,2.158,11412.070,282.778,284.791,-46.817,9506.325,8656.709,-11.146,0.093,0.408,-0.019,0.002,0.050,0.000,0.000,0.000,0.006,0.694,0.001,0.720,0.0000000,0.0000000,8674.624,0.000,0.000,0.000,0,00:00:00,-51,0.000,8674.624,28480.680,-46.815,162.621,0.000,0.343,-11.141,0.052,0.013,-0.001,0.006,0.000,0.000
58.717,2,0,-1.150,-0.093,11440.239,-1.333,-0.119,281.691,-0.709,-0.076,-10.870,0.000,0.000,0.0092099,0.000,9144.000,0.939,2.132,11440.239,281.691,284.104,-46.921,9522.297,8672.680,-10.888,-0.034,0.330,-0.029,-0.012,-0.017,0.000,0.000,0.000,0.002,0.695,-0.000,0.719,0.0000000,0.0000000,8690.654,0.000,0.000,0.000,0,00:00:00,-51,0.000,8690.654,28408.955,-46.923,161.521,0.000,0.313,-10.980,0.052,-0.003,-0.006,-0.005,0.000,0.000
58.818,2,0,-1.164,-0.095,11468.299,-1.329,-0.121,280.597,-0.575,-0.075,-10.942,0.000,0.000,0.0103675,0.000,9144.000,0.936,1.993,11468.299,280.597,283.434,-47.023,9537.937,8688.321,-10.955,-0.034,0.257,-0.005,0.017,-0.042,0.000,0.000,0.000,0.000,0.697,-0.002,0.717,0.0000000,0.0000000,8706.575,0.000,0.000,0.000,0,00:00:00,-51,0.000,8706.575,28340.822,-47.027,160.422,0.000,0.305,-11.090,0.057,0.002,-0.007,0.002,0.000,0.000
58.919,2,0,-1.178,-0.096,11496.248,-1.359,-0.092,279.488,-0.913,0.234,-11.096,0.000,0.000,0.0090631,0.000,9144.000,0.933,1.666,11496.248,279.488,282.765,-47.124,9553.551,8703.935,-11.121,0.240,0.519,-0.030,-0.012,-0.016,0.000,0.000,0.000,0.002,0.694,0.001,0.720,0.0000000,0.0000000,8722.386,0.000,0.000,0.000,0,00:00:00,-51,0.000,8722.386,28277.125,-47.124,159.326,0.000,0.307,-10.956,-0.028,0.016,0.018,-0.006,0.000,0.000
59.020,2,0,-1.192,-0.096,11524.086,-1.369,-0.091,278.387,-0.732,-0.036,-11.007,0.000,0.000,0.0103675,0.000,9144.000,0.929,2.038,11524.086,278.387,282.084,-47.228,9569.512,8719.895,-11.026,-0.033,0.356,-0.005,0.003,-0.011,0.000,0.000,0.000,0.000,0.695,0.000,0.719,0.0000000,0.0000000,8738.086,0.000,0.000,0.000,0,00:00:00,-51,0.000,8738.086,28211.662,-47.223,158.231,0.000,0.367,-10.957,0.010,-0.019,-0.009,0.004,0.000,0.000
59.121,2,0,-1.206,-0.094,11551.817,-1.389,-0.075,277.306,-0.826,0.107,-10.805,0.000,0.000,0.0091625,0.000,9144.000,0.926,1.955,11551.817,277.306,281.415,-47.330,9585.188,8735.572,-10.828,0.104,0.435,-0.002,0.015,0.012,0.000,0.000,0.000,0.002,0.694,0.002,0.720,0.0000000,0.0000000,8753.678,0.000,0.000,0.000,0,00:00:00,-51,0.000,8753.678,28144.467,-47.326,157.139,0.000,0.355,-10.969,-0.018,-0.017,0.025,-0.004,0.000,0.000
59.222,2,0,-1.221,-0.093,11579.439,-1.405,-0.080,276.222,-0.809,-0.095,-10.843,0.000,0.000,0.0103675,0.000,9144.000,0.922,2.075,11579.439,276.222,280.757,-47.431,9600.654,8751.037,-10.865,-0.065,0.417,0.028,0.019,-0.012,0.000,0.000,0.000,0.001,0.694,-0.001,0.720,0.0000000,0.0000000,8769.159,0.000,0.000,0.000,0,00:00:00,-51,0.000,8769.159,28077.012,-47.429,156.049,0.000,0.308,-10.950,-0.077,-0.010,0.009,-0.012,0.000,0.000
59.323,2,0,-1.235,-0.091,11606.952,-1.400,-0.076,275.130,-0.599,-0.014,-10.921,0.000,0.000,0.0091267,0.000,9144.000,0.919,2.072,11606.952,275.130,280.121,-47.528,9615.629,8766.012,-10.935,0.013,0.263,-0.003,0.005,-0.003,0.000,0.000,0.000,0.001,0.696,-0.001,0.718,0.0000000,0.0000000,8784.531,0.000,0.000,0.000,0,00:00:00,-51,0.000,8784.531,28007.371,-47.535,154.961,0.000,0.399,-11.034,-0.007,-0.021,-0.007,0.014,0.000,0.000
59.424,2,0,-1.249,-0.089,11634.356,-1.443,-0.064,274.038,-1.081,0.077,-10.917,0.000,0.000,0.0103675,0.000,9144.000,0.915,1.762,11634.356,274.038,279.478,-47.627,9630.807,8781.190,-10.953,0.123,0.611,0.023,-0.035,0.043,0.000,0.000,0.000,0.004,0.692,0.001,0.722,0.0000000,0.0000000,8799.795,0.000,0.000,0.000,0,00:00:00,-51,0.000,8799.795,27948.705,-47.625,153.875,0.000,0.277,-10.871,-0.047,0.013,0.004,-0.000,0.000,0.000
59.525,2,0,-1.263,-0.087,11661.652,-1.436,-0.079,272.966,-0.589,-0.197,-10.727,0.000,0.000,0.0092974,0.000,9144.000,0.912,2.466,11661.652,272.966,278.836,-47.725,9645.972,8796.356,-10.742,-0.107,0.244,0.037,0.013,0.003,0.000,0.000,0.000,0.002,0.696,-0.003,0.718,0.0000000,0.0000000,8814.950,0.000,0.000,0.000,0,00:00:00,-51,0.000,8814.950,27884.965,-47.723,152.790,0.000,0.353,-10.871,0.024,0.017,0.008,-0.004,0.000,0.000
59.626,2,0,-1.276,-0.086,11688.840,-1.437,-0.081,271.872,-0.685,-0.058,-10.931,0.000,0.000,0.0103675,0.000,9144.000,0.909,1.846,11688.840,271.872,278.191,-47.825,9661.231,8811.615,-10.947,0.010,0.334,-0.019,-0.010,0.063,0.000,0.000,0.000,0.003,0.696,-0.001,0.718,0.0000000,0.0000000,8829.996,0.000,0.000,0.000,0,00:00:00,-51,0.000,8829.996,27816.773,-47.828,151.708,0.000,0.403,-10.861,-0.002,-0.009,-0.009,0.018,0.000,0.000
59.727,2,0,-1.289,-0.086,11715.919,-1.447,-0.097,270.795,-0.774,-0.211,-10.775,0.000,0.000,0.0091652,0.000,9144.000,0.905,1.838,11715.919,270.795,277.558,-47.922,9676.260,8826.644,-10.797,-0.116,0.392,0.024,-0.025,-0.009,0.000,0.000,0.000,0.002,0.694,-0.005,0.720,0.0000000,0.0000000,8844.935,0.000,0.000,0.000,0,00:00:00,-51,0.000,8844.935,27755.832,-47.922,150.628,0.000,0.303,-10.857,-0.001,-0.005,0.005,-0.004,0.000,0.000
59.828,2,0,-1.300,-0.088,11742.892,-1.443,-0.116,269.724,-0.649,-0.228,-10.708,0.000,0.000,0.0103675,0.000,9144.000,0.902,2.030,11742.892,269.724,276.942,-48.018,9690.899,8841.282,-10.724,-0.131,0.315,0.001,0.021,0.005,0.000,0.000,0.000,0.000,0.696,-0.006,0.718,0.0000000,0.0000000,8859.764,0.000,0.000,0.000,0,00:00:00,-51,0.000,8859.764,27692.982,-48.019,149.550,0.000,0.398,-10.803,0.035,-0.002,0.008,-0.011,0.000,0.000
59.929,2,0,-1.310,-0.090,11769.756,-1.447,-0.106,268.643,-0.731,0.043,-10.816,0.000,0.000,0.0090606,0.000,9144.000,0.898,1.796,11769.756,268.643,276.333,-48.112,9705.386,8855.770,-10.834,0.134,0.375,-0.004,0.000,-0.018,0.000,0.000,0.000,0.003,0.695,-0.003,0.719,0.0000000,0.0000000,8874.485,0.000,0.000,0.000,0,00:00:00,-51,0.000,8874.485,27632.074,-48.114,148.473,0.000,0.288,-10.794,-0.010,-0.021,0.015,0.007,0.000,0.000
60.030,2,0,-1.320,-0.091,11796.513,-1.465,-0.110,267.569,-0.863,-0.087,-10.738,0.000,0.000,0.0103675,0.000,9144.000,0.895,1.884,11796.513,267.569,275.714,-48.208,9720.146,8870.530,-10.764,-0.014,0.453,-0.017,-0.013,0.016,0.000,0.000,0.000,0.003,0.693,-0.002,0.720,0.0000000,0.0000000,8889.099,0.000,0.000,0.000,0,00:00:00,-51,0.000,8889.099,27574.191,-48.203,147.399,0.000,0.281,-10.760,0.018,0.017,-0.004,-0.003,0.000,0.000
60.131,2,0,-1.330,-0.093,11823.162,-1.458,-0.124,266.490,-0.630,-0.184,-10.784,0.000,0.000,0.0091756,0.000,9144.000,0.892,2.185,11823.162,266.490,275.106,-48.302,9734.691,8885.074,-10.799,-0.100,0.292,0.008,0.025,-0.011,0.000,0.000,0.000,0.001,0.696,-0.004,0.718,0.0000000,0.0000000,8903.605,0.000,0.000,0.000,0,00:00:00,-51,0.000,8903.605,27512.199,-48.300,146.326,0.000,0.326,-10.721,0.005,-0.015,0.004,-0.001,0.000,0.000
60.232,2,0,-1.337,-0.095,11849.705,-1.423,-0.107,265.429,-0.364,0.118,-10.609,0.000,0.000,0.0103675,0.000,9144.000,0.888,1.800,11849.705,265.429,274.497,-48.397,9749.265,8899.649,-10.614,0.198,0.120,-0.000,-0.036,-0.010,0.000,0.000,0.000,0.005,0.699,-0.000,0.715,0.0000000,0.0000000,8918.004,0.000,0.000,0.000,0,00:00:00,-51,0.000,8918.004,27450.166,-48.396,145.255,0.000,0.393,-10.689,-0.071,-0.015,-0.012,-0.015,0.000,0.000
60.333,2,0,-1.341,-0.096,11876.140,-1.407,-0.107,264.352,-0.540,-0.050,-10.770,0.000,0.000,0.0089232,0.000,9144.000,0.885,1.326,11876.140,264.352,273.920,-48.487,9763.086,8913.469,-10.780,0.023,0.279,-0.007,0.006,0.019,0.000,0.000,0.000,0.004,0.698,-0.001,0.716,0.0000000,0.0000000,8932.295,0.000,0.000,0.000,0,00:00:00,-51,0.000,8932.295,27392.932,-48.486,144.186,0.000,0.394,-10.791,-0.031,-0.003,0.013,-0.008,0.000,0.000
60.434,2,0,-1.344,-0.097,11902.468,-1.407,-0.100,263.276,-0.715,0.017,-10.767,0.000,0.000,0.0103675,0.000,9144.000,0.881,1.386,11902.468,263.276,273.329,-48.579,9777.280,8927.663,-10.784,0.073,0.394,-0.015,0.011,-0.011,0.000,0.000,0.000,0.004,0.696,-0.000,0.718,0.0000000,0.0000000,8946.479,0.000,0.000,0.000,0,00:00:00,-51,0.000,8946.479,27333.723,-48.578,143.118,0.000,0.357,-10.673,-0.050,0.007,0.007,-0.009,0.000,0.000
60.535,2,0,-1.347,-0.095,11928.687,-1.412,-0.074,262.196,-0.755,0.212,-10.797,0.000,0.000,0.0091623,0.000,9144.000,0.878,1.707,11928.687,262.196,272.745,-48.671,9791.336,8941.720,-10.814,0.296,0.400,0.029,0.003,-0.004,0.000,0.000,0.000,0.009,0.695,0.003,0.719,0.0000000,0.0000000,8960.556,0.000,0.000,0.000,0,00:00:00,-51,0.000,8960.556,27273.680,-48.672,142.052,0.000,0.431,-10.710,-0.059,-0.010,-0.015,0.014,0.000,0.000
60.636,2,0,-1.349,-0.093,11954.801,-1.395,-0.078,261.139,-0.545,-0.090,-10.574,0.000,0.000,0.0103675,0.000,9144.000,0.875,1.898,11954.801,261.139,272.169,-48.761,9805.224,8955.608,-10.586,0.016,0.237,0.017,-0.025,-0.025,0.000,0.000,0.000,0.006,0.697,-0.001,0.717,0.0000000,0.0000000,8974.525,0.000,0.000,0.000,0,00:00:00,-51,0.000,8974.525,27218.164,-48.759,140.988,0.000,0.338,-10.655,-0.063,0.015,-0.012,-0.000,0.000,0.000
60.737,2,0,-1.351,-0.092,11980.809,-1.407,-0.085,260.082,-0.826,-0.121,-10.563,0.000,0.000,0.0089950,0.000,9144.000,0.871,1.662,11980.809,260.082,271.597,-48.851,9819.037,8969.421,-10.586,-0.021,0.449,-0.008,0.001,-0.031,0.000,0.000,0.000,0.004,0.694,-0.003,0.720,0.0000000,0.0000000,8988.390,0.000,0.000,0.000,0,00:00:00,-51,0.000,8988.390,27158.043,-48.853,139.926,0.000,0.355,-10.669,0.057,0.013,0.012,0.003,0.000,0.000
