State - Time (s),State - Stage,State - Stage,State - PX (m),State - PY (m),State - PZ (m),State - VX (m/s),State - VY (m/s),State - VZ (m/s),State - AX (m/s/s),State - AY (m/s/s),State - AZ (m/s/s),State - Actuation Angle (deg),State - Acutal Angle (deg),State - CdA,State - Est Apo (m),State - Target Apogee (m),State - Mach Number,State - Tilt [deg],State - Pos - Accel Integrated [m],State - Velo - Accel Integrated [m/s],MockBarometer - Pres (hPa),MockBarometer - Temp (C),MockBarometer - Alt ASL (m),MockBarometer - Alt AGL (m),MockIMU - AccX (m/s^2),MockIMU - AccY (m/s^2),MockIMU - AccZ (m/s^2),MockIMU - GyroX (rad/s),MockIMU - GyroY (rad/s),MockIMU - GyroZ (rad/s),MockIMU - MagX (uT),MockIMU - MagY (uT),MockIMU - MagZ (uT),MockIMU - OriX,MockIMU - OriY,MockIMU - OriZ,MockIMU - OriW,MockGPS - Lat,MockGPS - Lon,MockGPS - Alt (m),MockGPS - Disp X (m),MockGPS - Disp Y (m),MockGPS - Disp Z (m),MockGPS - Fix Quality,MockGPS - Time of Day,E5 - Rel Steps,MockBR - Battery Voltage (V),MockBR - ALT (m),MockBR - PRES (Pa),MockBR - TEMP (C),MockBR - VEL (m/s),MockBR - ANG (deg),MockBR - ACCX (m/s^2),MockBR - ACCY (m/s^2),MockBR - ACCZ (m/s^2),MockBR - GYROX (rad/s),MockBR - GYROY (rad/s),MockBR - GYROZ (rad/s),MockBR - ROLL (deg),MockBR - TILT (deg)
61.136,1,0,-1.207,0.165,1.921,-0.847,0.063,16.128,3.965,-1.397,123.805,0.000,0.000,0.0103675,0.000,9144.000,0.007,1.996,18.636,15.262,915.025,9.464,851.403,1.790,123.876,-0.067,0.426,0.004,-0.005,-0.024,0.000,0.000,0.000,-0.007,0.694,0.001,0.719,0.0000000,0.0000000,1.860,0.000,0.000,0.000,0,00:00:00,1,0.000,1.860,91497.609,9.461,12.409,0.000,0.329,124.097,-0.058,-0.005,0.019,-0.000,0.000,0.000
61.237,1,0,-1.150,0.148,5.937,-0.371,-0.094,28.563,4.114,-1.478,124.762,0.000,0.000,0.0103675,0.000,9144.000,0.048,2.026,21.410,27.738,914.684,9.444,854.482,4.870,124.838,-0.006,0.318,-0.011,-0.001,0.002,0.000,0.000,0.000,-0.007,0.694,0.001,0.720,0.0000000,0.0000000,4.974,0.000,0.000,0.000,0,00:00:00,1,0.000,4.974,91463.961,9.441,24.910,0.000,0.386,125.068,0.014,0.011,-0.000,0.013,0.000,0.000
61.338,1,0,-1.053,0.117,11.292,0.121,-0.270,41.868,4.308,-1.682,125.672,0.000,0.000,0.0103675,0.000,9144.000,0.085,2.029,25.440,40.305,914.176,9.414,859.079,9.467,125.757,0.111,0.296,-0.025,-0.011,-0.017,0.000,0.000,0.000,-0.009,0.694,0.002,0.720,0.0000000,0.0000000,9.350,0.000,0.000,0.000,0,00:00:00,1,0.000,9.350,91418.094,9.414,37.501,0.000,0.334,126.001,-0.041,-0.001,0.013,-0.008,0.000,0.000
61.439,1,0,-0.922,0.073,17.719,0.584,-0.456,53.825,4.104,-1.803,126.835,0.000,0.000,0.0103675,0.000,9144.000,0.124,2.090,30.739,52.988,913.553,9.377,864.713,15.100,126.914,0.091,0.370,-0.007,0.014,-0.014,0.000,0.000,0.000,-0.009,0.695,0.001,0.719,0.0000000,0.0000000,14.999,0.000,0.000,0.000,0,00:00:00,1,0.000,14.999,91346.023,9.372,50.181,0.000,0.432,126.804,-0.057,-0.006,-0.002,0.003,0.000,0.000
61.540,1,0,-0.761,0.017,24.963,1.041,-0.623,65.249,4.122,-1.647,127.544,0.000,0.000,0.0103675,0.000,9144.000,0.160,2.011,37.314,65.743,912.838,9.335,871.186,21.574,127.620,-0.125,0.387,0.030,-0.001,0.010,0.000,0.000,0.000,-0.008,0.695,0.001,0.719,0.0000000,0.0000000,21.927,0.000,0.000,0.000,0,00:00:00,1,0.000,21.927,91283.359,9.335,62.948,0.000,0.278,127.615,-0.032,-0.006,-0.011,-0.018,0.000,0.000
61.641,1,0,-0.575,-0.049,34.114,1.477,-0.788,80.663,4.018,-1.664,128.528,0.000,0.000,0.0103675,0.000,9144.000,0.194,2.017,45.173,78.596,911.885,9.279,879.821,30.208,128.601,-0.161,0.482,0.003,0.003,0.005,0.000,0.000,0.000,-0.008,0.695,0.001,0.719,0.0000000,0.0000000,30.144,0.000,0.000,0.000,0,00:00:00,1,0.000,30.144,91187.516,9.278,75.802,0.000,0.341,128.516,-0.093,-0.000,0.010,-0.020,0.000,0.000
61.742,1,0,-0.366,-0.123,44.545,1.901,-0.923,92.810,3.999,-1.393,129.258,0.000,0.000,0.0103675,0.000,9144.000,0.240,1.998,54.325,91.521,910.817,9.216,889.498,39.886,129.327,-0.072,0.234,0.014,0.023,-0.013,0.000,0.000,0.000,-0.008,0.695,-0.000,0.719,0.0000000,0.0000000,39.658,0.000,0.000,0.000,0,00:00:00,1,0.000,39.658,91078.852,9.214,88.741,0.000,0.361,129.363,-0.025,0.004,0.010,0.021,0.000,0.000
61.843,1,0,-0.140,-0.202,55.835,2.294,-1.064,104.858,3.822,-1.507,130.039,0.000,0.000,0.0103675,0.000,9144.000,0.276,1.869,64.778,104.525,909.642,9.147,900.167,50.555,130.102,0.047,0.565,-0.017,-0.010,0.001,0.000,0.000,0.000,-0.008,0.695,0.000,0.719,0.0000000,0.0000000,50.478,0.000,0.000,0.000,0,00:00:00,1,0.000,50.478,90960.148,9.144,101.763,0.000,0.327,130.250,0.009,0.004,-0.007,-0.009,0.000,0.000
61.944,1,0,0.103,-0.288,68.652,2.724,-1.222,119.159,4.309,-1.712,130.889,0.000,0.000,0.0103675,0.000,9144.000,0.312,1.925,76.539,117.614,908.277,9.066,912.566,62.954,130.970,0.019,0.467,-0.013,-0.027,0.001,0.000,0.000,0.000,-0.009,0.694,0.001,0.720,0.0000000,0.0000000,62.611,0.000,0.000,0.000,0,00:00:00,1,0.000,62.611,90843.078,9.075,114.867,0.000,0.373,130.953,-0.073,-0.005,-0.002,-0.013,0.000,0.000
62.045,1,0,0.363,-0.378,82.366,3.176,-1.344,129.601,4.667,-1.406,131.866,0.000,0.000,0.0103675,0.000,9144.000,0.355,2.081,89.619,130.801,906.869,8.983,925.373,75.761,131.955,-0.025,0.367,0.027,-0.017,-0.021,0.000,0.000,0.000,-0.008,0.693,-0.001,0.720,0.0000000,0.0000000,76.066,0.000,0.000,0.000,0,00:00:00,1,0.000,76.066,90683.562,8.981,128.049,0.000,0.305,131.822,0.045,-0.015,-0.007,-0.003,0.000,0.000
62.146,1,0,0.641,-0.470,97.665,3.634,-1.427,145.558,4.873,-1.078,132.388,0.000,0.000,0.0103675,0.000,9144.000,0.386,2.178,104.023,144.040,905.216,8.885,940.433,90.820,132.482,-0.023,0.304,0.025,-0.009,0.007,0.000,0.000,0.000,-0.007,0.693,-0.001,0.721,0.0000000,0.0000000,90.849,0.000,0.000,0.000,0,00:00:00,1,0.000,90.849,90516.797,8.882,141.308,0.000,0.405,132.609,0.034,-0.003,0.007,-0.008,0.000,0.000
62.247,1,0,0.932,-0.560,114.558,4.042,-1.502,159.137,4.531,-1.033,133.357,0.000,0.000,0.0103675,0.000,9144.000,0.433,2.234,119.761,157.375,903.409,8.777,956.921,107.308,133.437,0.097,0.557,-0.005,0.009,-0.003,0.000,0.000,0.000,-0.007,0.693,-0.001,0.720,0.0000000,0.0000000,106.969,0.000,0.000,0.000,0,00:00:00,1,0.000,106.969,90336.398,8.775,154.641,0.000,0.441,133.359,0.081,0.009,-0.004,-0.008,0.000,0.000
62.348,1,0,1.233,-0.651,132.295,4.456,-1.636,170.124,4.749,-1.673,133.887,0.000,0.000,0.0103675,0.000,9144.000,0.474,2.179,136.837,170.764,901.545,8.667,973.952,124.340,133.981,-0.078,0.425,-0.034,-0.005,0.016,0.000,0.000,0.000,-0.008,0.693,0.000,0.721,0.0000000,0.0000000,124.431,0.000,0.000,0.000,0,00:00:00,1,0.000,124.431,90152.922,8.666,168.044,0.000,0.366,134.005,-0.070,0.006,-0.004,0.002,0.000,0.000
62.449,1,0,1.544,-0.743,151.344,4.858,-1.721,184.399,4.792,-1.225,134.591,0.000,0.000,0.0103675,0.000,9144.000,0.507,2.205,155.259,184.223,899.506,8.545,992.618,143.005,134.681,0.155,0.289,0.016,0.009,-0.025,0.000,0.000,0.000,-0.008,0.694,-0.001,0.720,0.0000000,0.0000000,143.243,0.000,0.000,0.000,0,00:00:00,1,0.000,143.243,89951.859,8.546,181.515,0.000,0.355,134.660,-0.040,0.009,0.010,0.009,0.000,0.000
62.550,1,0,1.863,-0.834,171.963,5.280,-1.796,198.792,5.152,-1.188,135.211,0.000,0.000,0.0103675,0.000,9144.000,0.549,2.155,175.034,197.744,897.290,8.413,1012.943,163.330,135.314,0.081,0.313,0.009,-0.027,0.001,0.000,0.000,0.000,-0.008,0.693,-0.001,0.721,0.0000000,0.0000000,163.410,0.000,0.000,0.000,0,00:00:00,1,0.000,163.410,89727.680,8.412,195.048,0.000,0.398,135.323,-0.012,0.004,0.009,0.016,0.000,0.000
62.651,1,0,2.190,-0.923,193.794,5.696,-1.861,211.055,5.277,-1.123,135.762,0.000,0.000,0.0103675,0.000,9144.000,0.592,2.307,196.166,211.320,894.978,8.275,1034.197,184.584,135.869,0.049,0.325,0.007,-0.008,-0.010,0.000,0.000,0.000,-0.008,0.692,-0.002,0.721,0.0000000,0.0000000,184.938,0.000,0.000,0.000,0,00:00:00,1,0.000,184.938,89495.156,8.273,208.641,0.000,0.444,135.941,-0.056,0.002,-0.008,0.004,0.000,0.000
62.752,1,0,2.524,-1.011,216.974,6.091,-1.946,226.511,5.239,-1.378,136.283,0.000,0.000,0.0103675,0.000,9144.000,0.629,2.356,218.661,224.949,892.454,8.124,1057.442,207.830,136.390,0.017,0.317,-0.015,0.005,0.039,0.000,0.000,0.000,-0.007,0.693,-0.000,0.721,0.0000000,0.0000000,207.833,0.000,0.000,0.000,0,00:00:00,1,0.000,207.833,89243.430,8.123,222.286,0.000,0.289,136.422,-0.003,0.001,-0.020,0.007,0.000,0.000
62.853,1,0,2.863,-1.099,241.499,6.484,-2.054,237.671,5.399,-1.647,136.924,0.000,0.000,0.0103675,0.000,9144.000,0.675,2.328,242.525,238.641,889.879,7.969,1081.219,231.606,137.041,0.046,0.138,-0.022,0.003,-0.020,0.000,0.000,0.000,-0.009,0.693,-0.000,0.721,0.0000000,0.0000000,232.099,0.000,0.000,0.000,0,00:00:00,1,0.000,232.099,88978.859,7.964,235.980,0.000,0.314,136.922,-0.011,0.005,0.010,-0.005,0.000,0.000
62.954,1,0,3.202,-1.190,267.259,6.808,-2.193,253.767,4.889,-2.005,137.310,0.000,0.000,0.0103675,0.000,9144.000,0.709,2.307,267.762,252.372,887.074,7.800,1107.178,257.565,137.411,0.009,0.400,-0.023,0.019,-0.005,0.000,0.000,0.000,-0.010,0.693,0.001,0.721,0.0000000,0.0000000,257.739,0.000,0.000,0.000,0,00:00:00,1,0.000,257.739,88707.422,7.800,249.716,0.000,0.331,137.362,0.028,-0.002,0.009,0.008,0.000,0.000
63.055,1,0,3.538,-1.287,294.376,7.100,-2.367,266.139,4.749,-2.395,137.670,0.000,0.000,0.0103675,0.000,9144.000,0.757,2.195,294.376,266.139,884.158,7.624,1134.230,284.618,137.771,-0.208,0.531,-0.013,0.002,-0.015,0.000,0.000,0.000,-0.011,0.693,0.000,0.720,0.0000000,0.0000000,284.758,0.000,0.000,0.000,0,00:00:00,1,0.000,284.758,88421.445,7.628,263.487,0.000,0.385,137.680,0.004,-0.001,0.005,0.017,0.000,0.000
63.156,1,0,3.869,-1.391,322.369,7.392,-2.537,279.934,4.923,-2.413,137.947,0.000,0.000,0.0103675,0.000,9144.000,0.794,2.181,322.369,279.934,881.123,7.441,1162.476,312.864,138.055,-0.027,0.278,-0.014,0.006,-0.000,0.000,0.000,0.000,-0.011,0.694,0.001,0.720,0.0000000,0.0000000,313.156,0.000,0.000,0.000,0,00:00:00,1,0.000,313.156,88111.031,7.440,277.286,0.000,0.408,138.023,-0.023,-0.008,-0.003,0.005,0.000,0.000
63.257,1,0,4.193,-1.500,351.746,7.626,-2.693,293.764,4.529,-2.339,138.297,0.000,0.000,0.0103675,0.000,9144.000,0.835,2.144,351.746,293.764,877.940,7.248,1192.175,342.562,138.391,0.092,0.310,-0.003,0.027,-0.007,0.000,0.000,0.000,-0.012,0.695,0.001,0.719,0.0000000,0.0000000,342.937,0.000,0.000,0.000,0,00:00:00,1,0.000,342.937,87793.070,7.247,291.105,0.000,0.324,138.089,-0.054,-0.002,0.002,-0.005,0.000,0.000
63.358,1,0,4.506,-1.614,382.504,7.819,-2.874,307.585,4.277,-2.637,138.212,0.000,0.000,0.0103675,0.000,9144.000,0.877,1.989,382.504,307.585,874.598,7.044,1223.449,373.837,138.303,-0.035,0.250,-0.012,0.022,0.009,0.000,0.000,0.000,-0.012,0.695,0.002,0.718,0.0000000,0.0000000,374.100,0.000,0.000,0.000,0,00:00:00,1,0.000,374.100,87460.219,7.045,304.933,0.000,0.294,138.338,0.024,-0.007,0.005,0.008,0.000,0.000
63.459,1,0,4.808,-1.733,414.645,8.027,-3.049,321.412,4.585,-2.643,138.271,0.000,0.000,0.0103675,0.000,9144.000,0.919,1.860,414.645,321.412,871.172,6.835,1255.622,406.010,138.372,0.088,0.359,-0.008,-0.031,0.033,0.000,0.000,0.000,-0.011,0.694,0.003,0.720,0.0000000,0.0000000,406.644,0.000,0.000,0.000,0,00:00:00,1,0.000,406.644,87108.000,6.829,318.763,0.000,0.295,138.272,0.015,-0.006,-0.003,-0.001,0.000,0.000
63.560,1,0,5.101,-1.856,448.167,8.228,-3.192,335.215,4.680,-2.389,138.030,0.000,0.000,0.0103675,0.000,9144.000,0.960,2.035,448.167,335.215,867.555,6.614,1289.690,440.077,138.130,-0.008,0.387,0.024,-0.009,-0.019,0.000,0.000,0.000,-0.011,0.694,0.002,0.720,0.0000000,0.0000000,440.570,0.000,0.000,0.000,0,00:00:00,1,0.000,440.570,86747.414,6.609,332.583,0.000,0.328,138.183,0.017,0.002,0.004,-0.005,0.000,0.000
63.661,1,0,5.383,-1.980,483.067,8.390,-3.326,349.002,4.433,-2.377,137.871,0.000,0.000,0.0103675,0.000,9144.000,1.002,2.089,483.067,349.002,863.787,6.382,1325.299,475.686,137.962,-0.121,0.381,0.008,0.019,-0.034,0.000,0.000,0.000,-0.012,0.695,0.000,0.719,0.0000000,0.0000000,475.873,0.000,0.000,0.000,0,00:00:00,1,0.000,475.873,86378.891,6.382,346.381,0.000,0.447,137.935,0.035,0.019,0.012,-0.008,0.000,0.000
63.762,1,0,5.655,-2.103,519.345,8.598,-3.429,362.776,5.029,-2.119,137.744,0.000,0.000,0.0103675,0.000,9144.000,1.044,1.983,519.345,362.776,859.924,6.144,1361.944,512.332,137.852,0.040,0.170,0.006,-0.028,-0.009,0.000,0.000,0.000,-0.012,0.694,-0.001,0.720,0.0000000,0.0000000,512.556,0.000,0.000,0.000,0,00:00:00,1,0.000,512.556,85993.078,6.144,360.183,0.000,0.324,137.985,0.064,0.003,0.001,0.003,0.000,0.000
63.863,1,0,5.918,-2.225,557.003,8.753,-3.533,376.583,4.647,-2.207,138.066,0.000,0.000,0.0103675,0.000,9144.000,1.085,2.146,557.003,376.583,855.952,5.898,1399.764,550.152,138.162,0.091,0.253,-0.010,0.023,-0.020,0.000,0.000,0.000,-0.013,0.694,-0.001,0.719,0.0000000,0.0000000,550.619,0.000,0.000,0.000,0,00:00:00,1,0.000,550.619,85589.281,5.894,373.995,0.000,0.335,138.137,0.114,-0.001,-0.000,0.009,0.000,0.000
63.964,1,0,6.169,-2.344,596.042,8.863,-3.645,390.390,4.338,-2.340,138.074,0.000,0.000,0.0103675,0.000,9144.000,1.127,2.014,596.042,390.390,855.952,5.898,1399.764,550.152,138.162,0.091,0.253,-0.010,0.023,-0.020,0.000,0.000,0.000,-0.014,0.695,-0.001,0.719,0.0000000,0.0000000,550.619,0.000,0.000,0.000,0,00:00:00,1,0.000,550.619,85589.281,5.894,373.995,0.000,0.335,138.137,0.114,-0.001,-0.000,0.009,0.000,0.000
64.065,1,0,6.404,-2.463,636.462,8.930,-3.764,404.199,4.029,-2.474,138.081,0.000,0.000,0.0103675,0.000,9144.000,1.168,1.883,636.462,404.199,855.952,5.898,1399.764,550.152,138.162,0.091,0.253,-0.010,0.023,-0.020,0.000,0.000,0.000,-0.015,0.696,-0.002,0.718,0.0000000,0.0000000,550.619,0.000,0.000,0.000,0,00:00:00,1,0.000,550.619,85589.281,5.894,373.995,0.000,0.335,138.137,0.114,-0.001,-0.000,0.009,0.000,0.000
64.166,1,0,6.623,-2.584,678.263,9.002,-3.930,418.012,4.198,-3.001,138.134,0.000,0.000,0.0103675,0.000,9144.000,1.210,1.751,678.263,418.012,843.200,5.102,1522.139,672.526,138.230,-0.105,0.248,-0.023,-0.012,0.014,0.000,0.000,0.000,-0.015,0.696,-0.000,0.718,0.0000000,0.0000000,673.098,0.000,0.000,0.000,0,00:00:00,1,0.000,673.098,84317.773,5.101,415.461,0.000,0.344,138.181,0.022,0.003,-0.014,-0.002,0.000,0.000
64.267,1,0,6.828,-2.708,721.445,9.054,-4.078,431.817,4.102,-2.892,138.049,0.000,0.000,0.0103675,0.000,9144.000,1.253,1.815,721.445,431.817,1579.893,58.743,-3907.845,-4757.457,138.140,-0.132,0.287,0.009,0.004,-0.021,0.000,0.000,0.000,-0.016,0.696,-0.001,0.718,0.0000000,0.0000000,716.686,0.000,0.000,0.000,0,00:00:00,1,0.000,716.686,157980.062,58.739,429.279,0.000,0.376,138.091,-0.039,0.001,0.009,0.009,0.000,0.000
64.368,1,0,7.016,-2.833,766.006,9.069,-4.214,445.607,3.836,-2.830,137.897,0.000,0.000,0.0103675,0.000,9144.000,1.185,1.791,766.006,445.607,1693.122,66.055,-4547.086,-5396.699,137.978,0.129,0.478,-0.015,0.005,-0.012,0.000,0.000,0.000,-0.017,0.696,-0.001,0.718,0.0000000,0.0000000,761.654,0.000,0.000,0.000,0,00:00:00,1,0.000,761.654,169316.797,66.058,443.090,0.000,0.346,138.059,-0.048,-0.006,0.013,-0.002,0.000,0.000
64.469,1,0,7.188,-2.962,811.943,9.069,-4.405,459.377,3.782,-3.454,137.706,0.000,0.000,0.0103675,0.000,9144.000,1.209,1.761,811.943,459.377,1809.905,73.416,-5171.104,-6020.716,137.801,-0.076,0.244,-0.031,0.021,0.002,0.000,0.000,0.000,-0.018,0.697,-0.000,0.717,0.0000000,0.0000000,808.000,0.000,0.000,0.000,0,00:00:00,1,0.000,808.000,180990.234,73.417,456.889,0.000,0.264,137.915,0.020,-0.017,0.007,0.007,0.000,0.000
64.570,1,0,7.341,-3.097,859.258,9.032,-4.633,473.147,3.494,-3.884,137.702,0.000,0.000,0.0103675,0.000,9144.000,1.233,1.637,859.258,473.147,1809.905,73.416,-5171.104,-6020.716,137.801,-0.076,0.244,-0.031,0.021,0.002,0.000,0.000,0.000,-0.019,0.697,0.001,0.716,0.0000000,0.0000000,808.000,0.000,0.000,0.000,0,00:00:00,1,0.000,808.000,180990.234,73.417,456.889,0.000,0.264,137.915,0.020,-0.017,0.007,0.007,0.000,0.000
64.671,1,0,7.476,-3.243,907.950,8.958,-4.896,486.917,3.206,-4.313,137.697,0.000,0.000,0.0103675,0.000,9144.000,1.270,1.513,907.950,486.917,1809.905,73.416,-5171.104,-6020.716,137.801,-0.076,0.244,-0.031,0.021,0.002,0.000,0.000,0.000,-0.020,0.698,0.002,0.716,0.0000000,0.0000000,808.000,0.000,0.000,0.000,0,00:00:00,1,0.000,808.000,180990.234,73.417,456.889,0.000,0.264,137.915,0.020,-0.017,0.007,0.007,0.000,0.000
64.772,1,0,7.591,-3.399,958.017,8.891,-5.177,500.671,3.320,-4.565,137.543,0.000,0.000,0.0103675,0.000,9144.000,1.307,1.389,958.017,500.671,1081.960,23.361,-556.640,-1406.253,137.659,-0.140,0.113,-0.014,0.001,-0.005,0.000,0.000,0.000,-0.020,0.698,0.002,0.716,0.0000000,0.0000000,904.822,0.000,0.000,0.000,0,00:00:00,1,0.000,904.822,108203.578,23.356,484.443,0.000,0.321,137.598,-0.011,-0.003,-0.006,-0.001,0.000,0.000
64.873,1,0,7.688,-3.567,1009.459,8.816,-5.469,514.425,3.305,-4.762,137.537,0.000,0.000,0.0103675,0.000,9144.000,1.453,1.380,1009.459,514.425,1081.960,23.361,-556.640,-1406.253,137.659,-0.140,0.113,-0.014,0.001,-0.005,0.000,0.000,0.000,-0.021,0.698,0.003,0.716,0.0000000,0.0000000,904.822,0.000,0.000,0.000,0,00:00:00,1,0.000,904.822,108203.578,23.356,484.443,0.000,0.321,137.598,-0.011,-0.003,-0.006,-0.001,0.000,0.000
64.974,1,0,7.771,-3.747,1062.275,8.760,-5.772,528.159,3.536,-4.977,137.344,0.000,0.000,0.0103675,0.000,9144.000,1.493,1.371,1062.275,528.159,1087.382,23.786,-599.333,-1448.945,137.480,-0.039,0.178,-0.024,-0.022,-0.015,0.000,0.000,0.000,-0.023,0.697,0.003,0.716,0.0000000,0.0000000,955.293,0.000,0.000,0.000,0,00:00:00,1,0.000,955.293,108734.383,23.782,498.191,0.000,0.366,137.435,-0.053,0.001,0.006,-0.017,0.000,0.000
65.075,1,0,7.842,-3.938,1116.464,8.732,-6.098,541.892,3.839,-5.296,137.324,0.000,0.000,0.0103675,0.000,9144.000,1.532,1.490,1116.464,541.892,1087.382,23.786,-599.333,-1448.945,137.480,-0.039,0.178,-0.024,-0.022,-0.015,0.000,0.000,0.000,-0.024,0.697,0.003,0.717,0.0000000,0.0000000,955.293,0.000,0.000,0.000,0,00:00:00,1,0.000,955.293,108734.383,23.782,498.191,0.000,0.366,137.435,-0.053,0.001,0.006,-0.017,0.000,0.000
65.176,1,0,7.903,-4.140,1172.025,8.686,-6.379,555.610,3.701,-4.962,137.181,0.000,0.000,0.0103675,0.000,9144.000,1.572,1.609,1172.025,555.610,1087.020,23.759,-596.486,-1446.099,137.320,0.099,0.522,0.014,-0.015,-0.009,0.000,0.000,0.000,-0.024,0.696,0.003,0.718,0.0000000,0.0000000,1007.135,0.000,0.000,0.000,0,00:00:00,1,0.000,1007.135,108711.758,23.760,511.918,0.000,0.361,137.280,0.067,0.004,0.008,0.016,0.000,0.000
65.277,1,0,7.956,-4.349,1228.954,8.686,-6.689,569.285,4.192,-5.354,136.752,0.000,0.000,0.0103675,0.000,9144.000,1.612,1.700,1228.954,569.285,1088.991,23.914,-611.972,-1461.585,136.921,0.074,0.275,-0.029,-0.018,-0.012,0.000,0.000,0.000,-0.025,0.695,0.003,0.718,0.0000000,0.0000000,1060.344,0.000,0.000,0.000,0,00:00:00,1,0.000,1060.344,108905.516,23.917,525.619,0.000,0.386,136.942,-0.015,-0.002,-0.008,0.009,0.000,0.000
65.378,1,0,8.006,-4.569,1287.250,8.711,-7.026,582.958,4.449,-5.741,136.728,0.000,0.000,0.0103675,0.000,9144.000,1.651,1.799,1287.250,582.958,1088.991,23.914,-611.972,-1461.585,136.921,0.074,0.275,-0.029,-0.018,-0.012,0.000,0.000,0.000,-0.027,0.695,0.004,0.719,0.0000000,0.0000000,1060.344,0.000,0.000,0.000,0,00:00:00,1,0.000,1060.344,108905.516,23.917,525.619,0.000,0.386,136.942,-0.015,-0.002,-0.008,0.009,0.000,0.000
65.479,1,0,8.050,-4.795,1346.910,8.688,-7.287,596.605,4.011,-5.107,136.467,0.000,0.000,0.0103675,0.000,9144.000,1.691,1.899,1346.910,596.605,1094.442,24.338,-654.671,-1504.284,136.621,0.085,0.290,0.044,0.031,-0.031,0.000,0.000,0.000,-0.026,0.696,0.001,0.718,0.0000000,0.0000000,1114.919,0.000,0.000,0.000,0,00:00:00,1,0.000,1114.919,109438.406,24.338,539.293,0.000,0.427,136.656,0.030,-0.003,-0.008,-0.011,0.000,0.000
65.580,1,0,8.089,-5.023,1407.930,8.662,-7.532,610.202,4.000,-5.066,135.972,0.000,0.000,0.0103675,0.000,9144.000,1.729,1.727,1407.930,610.202,1095.494,24.425,-662.887,-1512.500,136.124,-0.094,0.448,0.015,-0.012,0.007,0.000,0.000,0.000,-0.025,0.695,0.001,0.718,0.0000000,0.0000000,1170.856,0.000,0.000,0.000,0,00:00:00,1,0.000,1170.856,109548.367,24.426,552.937,0.000,0.339,136.417,-0.033,0.004,-0.007,0.007,0.000,0.000
65.681,1,0,8.122,-5.250,1470.310,8.651,-7.744,623.799,4.157,-4.860,135.974,0.000,0.000,0.0103675,0.000,9144.000,1.768,1.798,1470.310,623.799,1095.494,24.425,-662.887,-1512.500,136.124,-0.094,0.448,0.015,-0.012,0.007,0.000,0.000,0.000,-0.025,0.695,0.001,0.719,0.0000000,0.0000000,1170.856,0.000,0.000,0.000,0,00:00:00,1,0.000,1170.856,109548.367,24.426,552.937,0.000,0.339,136.417,-0.033,0.004,-0.007,0.007,0.000,0.000
65.782,1,0,8.151,-5.476,1534.049,8.646,-7.949,637.390,4.238,-4.908,135.903,0.000,0.000,0.0103675,0.000,9144.000,1.807,1.868,1534.049,637.390,1101.470,24.893,-709.465,-1559.077,136.057,0.175,0.426,-0.024,-0.004,-0.033,0.000,0.000,0.000,-0.027,0.695,0.000,0.719,0.0000000,0.0000000,1228.151,0.000,0.000,0.000,0,00:00:00,1,0.000,1228.151,110159.102,24.890,566.550,0.000,0.399,136.045,0.025,0.002,0.006,0.011,0.000,0.000
65.883,1,0,8.177,-5.700,1599.145,8.648,-8.173,650.955,4.323,-5.212,135.653,0.000,0.000,0.0103675,0.000,9144.000,1.845,1.886,1599.145,650.955,1103.749,25.070,-727.178,-1576.790,135.821,0.044,0.345,-0.015,0.001,-0.035,0.000,0.000,0.000,-0.028,0.695,-0.001,0.719,0.0000000,0.0000000,1286.802,0.000,0.000,0.000,0,00:00:00,1,0.000,1286.802,110376.547,25.070,580.129,0.000,0.489,135.751,-0.041,-0.013,-0.011,-0.006,0.000,0.000
65.984,1,0,8.202,-5.924,1665.592,8.656,-8.431,664.472,4.386,-5.675,135.171,0.000,0.000,0.0103675,0.000,9144.000,1.884,1.878,1665.592,664.472,1102.232,24.954,-715.387,-1565.000,135.360,-0.104,0.508,-0.024,-0.017,-0.000,0.000,0.000,0.000,-0.029,0.694,0.000,0.719,0.0000000,0.0000000,1346.804,0.000,0.000,0.000,0,00:00:00,1,0.000,1346.804,110222.484,24.952,593.673,0.000,0.207,135.575,-0.092,0.000,-0.005,0.003,0.000,0.000
66.085,1,0,8.225,-6.153,1733.391,8.685,-8.711,677.987,4.620,-6.002,135.149,0.000,0.000,0.0103675,0.000,9144.000,1.924,1.972,1733.391,677.987,1102.232,24.954,-715.387,-1565.000,135.360,-0.104,0.508,-0.024,-0.017,-0.000,0.000,0.000,0.000,-0.030,0.694,0.001,0.720,0.0000000,0.0000000,1346.804,0.000,0.000,0.000,0,00:00:00,1,0.000,1346.804,110222.484,24.952,593.673,0.000,0.207,135.575,-0.092,0.000,-0.005,0.003,0.000,0.000
66.186,1,0,8.250,-6.385,1802.538,8.718,-8.992,691.475,4.658,-6.141,134.881,0.000,0.000,0.0103675,0.000,9144.000,1.963,2.066,1802.538,691.475,1107.380,25.351,-755.332,-1604.945,135.100,-0.193,0.409,-0.005,0.004,0.004,0.000,0.000,0.000,-0.030,0.694,0.002,0.720,0.0000000,0.0000000,1408.155,0.000,0.000,0.000,0,00:00:00,1,0.000,1408.155,110738.180,25.347,607.181,0.000,0.406,135.043,-0.051,0.002,-0.002,0.015,0.000,0.000
66.287,1,0,8.273,-6.620,1873.030,8.713,-9.237,704.913,4.305,-5.915,134.382,0.000,0.000,0.0103675,0.000,9144.000,2.000,2.043,1873.030,704.913,1109.411,25.513,-771.045,-1620.658,134.581,-0.139,0.186,0.011,0.041,0.005,0.000,0.000,0.000,-0.030,0.695,0.001,0.718,0.0000000,0.0000000,1470.849,0.000,0.000,0.000,0,00:00:00,1,0.000,1470.849,110938.242,25.512,620.650,0.000,0.356,134.641,0.038,0.006,0.001,0.001,0.000,0.000
66.388,1,0,8.291,-6.854,1944.865,8.651,-9.457,718.354,3.751,-5.774,134.405,0.000,0.000,0.0103675,0.000,9144.000,2.039,1.810,1944.865,718.354,1109.411,25.513,-771.045,-1620.658,134.581,-0.139,0.186,0.011,0.041,0.005,0.000,0.000,0.000,-0.029,0.697,0.001,0.717,0.0000000,0.0000000,1470.849,0.000,0.000,0.000,0,00:00:00,1,0.000,1470.849,110938.242,25.512,620.650,0.000,0.356,134.641,0.038,0.006,0.001,0.001,0.000,0.000
66.489,1,0,8.300,-7.084,2018.037,8.556,-9.621,731.718,3.420,-5.348,133.647,0.000,0.000,0.0103675,0.000,9144.000,2.078,1.578,2018.037,731.718,1127.255,26.891,-908.124,-1757.736,133.797,0.014,0.328,0.019,0.012,0.010,0.000,0.000,0.000,-0.028,0.697,0.001,0.716,0.0000000,0.0000000,1600.254,0.000,0.000,0.000,0,00:00:00,1,0.000,1600.254,112729.039,26.888,647.468,0.000,0.369,133.858,-0.027,-0.008,-0.000,-0.005,0.000,0.000
66.590,1,0,8.299,-7.305,2092.545,8.444,-9.748,745.084,3.260,-5.102,133.661,0.000,0.000,0.0103675,0.000,9144.000,2.111,1.516,2092.545,745.084,1127.255,26.891,-908.124,-1757.736,133.797,0.014,0.328,0.019,0.012,0.010,0.000,0.000,0.000,-0.027,0.698,0.000,0.716,0.0000000,0.0000000,1600.254,0.000,0.000,0.000,0,00:00:00,1,0.000,1600.254,112729.039,26.888,647.468,0.000,0.369,133.858,-0.027,-0.008,-0.000,-0.005,0.000,0.000
66.691,2,0,8.264,-7.481,2166.397,7.808,-9.085,738.520,-1.951,2.625,-65.641,0.000,0.000,0.0103675,0.000,9144.000,2.150,1.454,2166.397,738.520,1124.273,26.661,-885.335,-1734.947,-65.720,-0.050,0.476,-0.029,0.044,-0.026,0.000,0.000,0.000,-0.029,0.699,0.000,0.714,0.0000000,0.0000000,1663.973,0.000,0.000,0.000,0,00:00:00,1,0.000,1663.973,112423.312,26.660,640.914,0.000,0.323,-65.595,0.019,-0.026,-0.001,0.008,0.000,0.000
66.792,2,0,8.175,-7.581,2239.608,7.196,-8.430,732.104,-1.768,2.503,-64.159,0.000,0.000,0.0099848,0.000,9144.000,2.132,1.193,2239.608,732.104,1121.264,26.427,-862.292,-1711.905,-64.231,-0.320,0.311,-0.031,-0.005,0.021,0.000,0.000,0.000,-0.029,0.699,0.002,0.715,0.0000000,0.0000000,1727.058,0.000,0.000,0.000,0,00:00:00,1,0.000,1727.058,112135.680,26.431,634.505,0.000,0.312,-64.067,0.041,0.014,0.005,-0.004,0.000,0.000
66.893,2,0,8.039,-7.610,2312.192,6.605,-7.758,725.843,-1.622,2.649,-62.615,0.000,0.000,0.0096751,0.000,9144.000,2.114,1.213,2312.192,725.843,1118.294,26.198,-839.500,-1689.113,-62.691,-0.001,0.283,0.018,0.014,0.029,0.000,0.000,0.000,-0.028,0.700,0.003,0.714,0.0000000,0.0000000,1789.524,0.000,0.000,0.000,0,00:00:00,1,0.000,1789.524,111829.164,26.200,628.236,0.000,0.376,-62.720,0.084,-0.012,0.011,0.003,0.000,0.000
66.994,2,0,7.863,-7.576,2384.150,6.033,-7.099,719.581,-1.528,2.543,-62.622,0.000,0.000,0.0094203,0.000,9144.000,2.097,1.138,2384.150,719.581,1118.294,26.198,-839.500,-1689.113,-62.691,-0.001,0.283,0.018,0.014,0.029,0.000,0.000,0.000,-0.026,0.700,0.003,0.714,0.0000000,0.0000000,1789.524,0.000,0.000,0.000,0,00:00:00,1,0.000,1789.524,111829.164,26.200,628.236,0.000,0.376,-62.720,0.084,-0.012,0.011,0.003,0.000,0.000
67.095,2,0,7.651,-7.484,2455.494,5.475,-6.430,713.441,-1.495,2.684,-61.401,0.000,0.000,0.0092584,0.000,9144.000,2.079,1.062,2455.494,713.441,1115.346,25.971,-816.834,-1666.446,-61.476,0.138,0.294,-0.008,0.003,0.015,0.000,0.000,0.000,-0.026,0.700,0.004,0.713,0.0000000,0.0000000,1851.383,0.000,0.000,0.000,0,00:00:00,1,0.000,1851.383,111536.867,25.975,622.101,0.000,0.370,-61.485,-0.023,0.005,-0.012,-0.007,0.000,0.000
67.196,2,0,7.410,-7.339,2526.239,4.951,-5.765,707.447,-1.298,2.729,-59.937,0.000,0.000,0.0091309,0.000,9144.000,2.062,1.042,2526.239,707.447,1112.386,25.740,-794.024,-1643.637,-60.012,0.140,0.178,-0.017,0.010,-0.018,0.000,0.000,0.000,-0.027,0.700,0.004,0.713,0.0000000,0.0000000,1912.648,0.000,0.000,0.000,0,00:00:00,1,0.000,1912.648,111237.078,25.745,616.095,0.000,0.206,-60.088,-0.071,0.012,0.006,-0.011,0.000,0.000
67.297,2,0,7.144,-7.149,2596.397,4.428,-5.138,701.586,-1.418,2.446,-58.614,0.000,0.000,0.0090209,0.000,9144.000,2.045,0.984,2596.397,701.586,1109.450,25.510,-771.344,-1620.957,-58.682,-0.052,0.331,0.004,0.001,-0.022,0.000,0.000,0.000,-0.028,0.701,0.003,0.713,0.0000000,0.0000000,1973.332,0.000,0.000,0.000,0,00:00:00,1,0.000,1973.332,110945.477,25.512,610.215,0.000,0.319,-58.869,-0.075,0.008,-0.001,0.013,0.000,0.000
67.398,2,0,6.856,-6.920,2665.970,3.921,-4.526,695.724,-1.417,2.417,-58.616,0.000,0.000,0.0089277,0.000,9144.000,2.029,0.977,2665.970,695.724,1109.450,25.510,-771.344,-1620.957,-58.682,-0.052,0.331,0.004,0.001,-0.022,0.000,0.000,0.000,-0.028,0.701,0.002,0.713,0.0000000,0.0000000,1973.332,0.000,0.000,0.000,0,00:00:00,1,0.000,1973.332,110945.477,25.512,610.215,0.000,0.319,-58.869,-0.075,0.008,-0.001,0.013,0.000,0.000
67.499,2,0,6.548,-6.658,2734.967,3.431,-3.937,689.973,-1.404,2.338,-57.509,0.000,0.000,0.0088945,0.000,9144.000,2.012,0.971,2734.967,689.973,1106.525,25.282,-748.706,-1598.318,-57.572,0.025,0.375,0.019,0.006,0.009,0.000,0.000,0.000,-0.027,0.701,0.002,0.713,0.0000000,0.0000000,2033.446,0.000,0.000,0.000,0,00:00:00,1,0.000,2033.446,110654.453,25.288,604.456,0.000,0.442,-57.592,-0.094,-0.017,0.010,-0.008,0.000,0.000
67.600,2,0,6.227,-6.367,2803.400,2.974,-3.362,684.333,-1.251,2.344,-56.399,0.000,0.000,0.0088692,0.000,9144.000,1.996,0.938,2803.400,684.333,1103.584,25.053,-725.891,-1575.503,-56.461,-0.043,0.312,-0.021,0.012,-0.007,0.000,0.000,0.000,-0.028,0.701,0.002,0.712,0.0000000,0.0000000,2093.002,0.000,0.000,0.000,0,00:00:00,1,0.000,2093.002,110360.719,25.048,598.814,0.000,0.391,-56.452,-0.008,0.009,-0.013,-0.000,0.000,0.000
67.701,2,0,5.894,-6.052,2871.281,2.532,-2.812,678.805,-1.274,2.261,-55.286,0.000,0.000,0.0088487,0.000,9144.000,1.980,0.864,2871.281,678.805,1100.582,24.822,-702.561,-1552.174,-55.346,-0.130,0.355,-0.010,0.000,-0.015,0.000,0.000,0.000,-0.029,0.701,0.002,0.712,0.0000000,0.0000000,2152.011,0.000,0.000,0.000,0,00:00:00,1,0.000,2152.011,110060.227,24.825,593.284,0.000,0.285,-55.309,-0.086,-0.015,-0.004,0.009,0.000,0.000
67.802,2,0,5.554,-5.717,2938.608,2.108,-2.274,673.276,-1.277,2.314,-55.284,0.000,0.000,0.0088306,0.000,9144.000,1.965,0.860,2938.608,673.276,1100.582,24.822,-702.561,-1552.174,-55.346,-0.130,0.355,-0.010,0.000,-0.015,0.000,0.000,0.000,-0.030,0.701,0.002,0.712,0.0000000,0.0000000,2152.011,0.000,0.000,0.000,0,00:00:00,1,0.000,2152.011,110060.227,24.825,593.284,0.000,0.285,-55.309,-0.086,-0.015,-0.004,0.009,0.000,0.000
67.903,2,0,5.207,-5.364,3005.383,1.703,-1.750,667.748,-1.279,2.367,-55.282,0.000,0.000,0.0088574,0.000,9144.000,1.949,0.857,3005.383,667.748,1100.582,24.822,-702.561,-1552.174,-55.346,-0.130,0.355,-0.010,0.000,-0.015,0.000,0.000,0.000,-0.031,0.701,0.001,0.712,0.0000000,0.0000000,2152.011,0.000,0.000,0.000,0,00:00:00,1,0.000,2152.011,110060.227,24.825,593.284,0.000,0.285,-55.309,-0.086,-0.015,-0.004,0.009,0.000,0.000
68.004,2,0,4.856,-4.997,3071.627,1.314,-1.227,662.443,-1.290,2.558,-53.048,0.000,0.000,0.0089212,0.000,9144.000,1.933,0.854,3071.627,662.443,1104.441,25.124,-732.544,-1582.156,-53.123,0.087,0.476,-0.015,0.014,0.028,0.000,0.000,0.000,-0.030,0.702,0.003,0.712,0.0000000,0.0000000,2268.429,0.000,0.000,0.000,0,00:00:00,1,0.000,2268.429,110445.906,25.123,582.548,0.000,0.294,-53.153,-0.026,0.010,-0.002,0.015,0.000,0.000
68.105,2,0,4.504,-4.617,3137.341,0.953,-0.715,657.139,-1.209,2.639,-53.046,0.000,0.000,0.0089231,0.000,9144.000,1.917,0.770,3137.341,657.139,1104.441,25.124,-732.544,-1582.156,-53.123,0.087,0.476,-0.015,0.014,0.028,0.000,0.000,0.000,-0.030,0.702,0.004,0.711,0.0000000,0.0000000,2268.429,0.000,0.000,0.000,0,00:00:00,1,0.000,2268.429,110445.906,25.123,582.548,0.000,0.294,-53.153,-0.026,0.010,-0.002,0.015,0.000,0.000
68.206,2,0,4.154,-4.227,3202.534,0.634,-0.230,651.925,-0.975,2.578,-52.136,0.000,0.000,0.0089660,0.000,9144.000,1.902,0.687,3202.534,651.925,1101.276,24.880,-707.960,-1557.573,-52.207,-0.099,0.279,-0.031,0.003,0.009,0.000,0.000,0.000,-0.031,0.702,0.006,0.711,0.0000000,0.0000000,2325.859,0.000,0.000,0.000,0,00:00:00,1,0.000,2325.859,110136.094,24.876,577.334,0.000,0.380,-52.169,0.053,-0.003,-0.001,-0.003,0.000,0.000
68.307,2,0,3.808,-3.828,3267.217,0.327,0.273,646.827,-1.041,2.969,-50.985,0.000,0.000,0.0090025,0.000,9144.000,1.887,0.664,3267.217,646.827,1098.158,24.633,-683.674,-1533.287,-51.080,0.175,0.444,-0.035,0.018,0.013,0.000,0.000,0.000,-0.032,0.703,0.008,0.710,0.0000000,0.0000000,2382.783,0.000,0.000,0.000,0,00:00:00,1,0.000,2382.783,109810.734,24.627,572.219,0.000,0.335,-51.157,-0.033,-0.002,-0.025,-0.003,0.000,0.000
68.408,2,0,3.468,-3.422,3331.400,0.055,0.751,641.831,-0.868,2.927,-49.956,0.000,0.000,0.0090238,0.000,9144.000,1.873,0.556,3331.400,641.831,1094.996,24.386,-658.995,-1508.608,-50.047,0.140,0.380,-0.010,0.019,-0.007,0.000,0.000,0.000,-0.032,0.704,0.008,0.710,0.0000000,0.0000000,2439.210,0.000,0.000,0.000,0,00:00:00,1,0.000,2439.210,109507.250,24.388,567.199,0.000,0.392,-50.196,0.113,-0.007,0.014,0.009,0.000,0.000
68.509,2,0,3.136,-3.011,3395.083,-0.190,1.211,636.836,-0.773,2.975,-49.954,0.000,0.000,0.0090351,0.000,9144.000,1.860,0.442,3395.083,636.836,1094.996,24.386,-658.995,-1508.608,-50.047,0.140,0.380,-0.010,0.019,-0.007,0.000,0.000,0.000,-0.033,0.704,0.008,0.709,0.0000000,0.0000000,2439.210,0.000,0.000,0.000,0,00:00:00,1,0.000,2439.210,109507.250,24.388,567.199,0.000,0.392,-50.196,0.113,-0.007,0.014,0.009,0.000,0.000
68.610,2,0,2.815,-2.597,3458.274,-0.403,1.659,631.909,-0.629,3.066,-49.264,0.000,0.000,0.0090849,0.000,9144.000,1.845,0.329,3458.274,631.909,1101.067,24.857,-706.330,-1555.942,-49.362,0.160,0.335,-0.022,0.020,-0.013,0.000,0.000,0.000,-0.034,0.705,0.008,0.708,0.0000000,0.0000000,2495.148,0.000,0.000,0.000,0,00:00:00,1,0.000,2495.148,110109.523,24.860,562.271,0.000,0.246,-49.295,-0.020,0.005,0.006,0.003,0.000,0.000
68.711,2,0,2.504,-2.182,3520.982,-0.610,2.076,627.078,-0.735,2.987,-48.310,0.000,0.000,0.0091340,0.000,9144.000,1.829,0.210,3520.982,627.078,1097.704,24.596,-680.141,-1529.754,-48.406,0.125,0.376,-0.002,-0.018,0.049,0.000,0.000,0.000,-0.032,0.704,0.010,0.709,0.0000000,0.0000000,2550.608,0.000,0.000,0.000,0,00:00:00,1,0.000,2550.608,109764.625,24.598,557.433,0.000,0.354,-48.367,0.036,0.006,0.001,-0.010,0.000,0.000
68.812,2,0,2.204,-1.769,3583.207,-0.809,2.473,622.247,-0.807,3.003,-48.308,0.000,0.000,0.0091685,0.000,9144.000,1.816,0.312,3583.207,622.247,1097.704,24.596,-680.141,-1529.754,-48.406,0.125,0.376,-0.002,-0.018,0.049,0.000,0.000,0.000,-0.031,0.704,0.012,0.710,0.0000000,0.0000000,2550.608,0.000,0.000,0.000,0,00:00:00,1,0.000,2550.608,109764.625,24.598,557.433,0.000,0.354,-48.367,0.036,0.006,0.001,-0.010,0.000,0.000
68.913,2,0,1.915,-1.362,3644.958,-0.994,2.807,617.510,-0.825,2.590,-47.377,0.000,0.000,0.0092374,0.000,9144.000,1.802,0.415,3644.958,617.510,1094.335,24.333,-653.832,-1503.445,-47.453,-0.048,0.464,0.039,0.010,0.027,0.000,0.000,0.000,-0.028,0.704,0.011,0.709,0.0000000,0.0000000,2605.597,0.000,0.000,0.000,0,00:00:00,1,0.000,2605.597,109436.211,24.335,552.682,0.000,0.425,-47.460,-0.088,0.003,-0.003,0.001,0.000,0.000
69.014,2,0,1.637,-0.963,3706.241,-1.142,3.102,612.835,-0.603,2.414,-46.752,0.000,0.000,0.0092862,0.000,9144.000,1.789,0.360,3706.241,612.835,1090.975,24.069,-627.530,-1477.142,-46.816,-0.222,0.333,-0.007,0.018,-0.005,0.000,0.000,0.000,-0.029,0.705,0.011,0.709,0.0000000,0.0000000,2660.123,0.000,0.000,0.000,0,00:00:00,1,0.000,2660.123,109093.336,24.073,548.015,0.000,0.387,-46.684,-0.039,0.007,0.002,0.003,0.000,0.000
69.115,2,0,1.373,-0.576,3767.057,-1.267,3.380,608.160,-0.520,2.444,-46.751,0.000,0.000,0.0093336,0.000,9144.000,1.776,0.257,3767.057,608.160,1090.975,24.069,-627.530,-1477.142,-46.816,-0.222,0.333,-0.007,0.018,-0.005,0.000,0.000,0.000,-0.029,0.706,0.011,0.708,0.0000000,0.0000000,2660.123,0.000,0.000,0.000,0,00:00:00,1,0.000,2660.123,109093.336,24.073,548.015,0.000,0.387,-46.684,-0.039,0.007,0.002,0.003,0.000,0.000
69.216,2,0,1.124,-0.200,3827.414,-1.368,3.660,603.569,-0.405,2.674,-45.910,0.000,0.000,0.0094134,0.000,9144.000,1.763,0.153,3827.414,603.569,1096.262,24.485,-668.885,-1518.497,-45.989,-0.073,0.244,-0.027,0.002,0.069,0.000,0.000,0.000,-0.028,0.706,0.015,0.708,0.0000000,0.0000000,2714.195,0.000,0.000,0.000,0,00:00:00,1,0.000,2714.195,109623.164,24.484,543.429,0.000,0.420,-45.905,0.103,-0.027,0.001,-0.010,0.000,0.000
69.317,2,0,0.889,0.166,3887.312,-1.453,3.934,598.978,-0.377,2.799,-45.903,0.000,0.000,0.0094752,0.000,9144.000,1.748,0.139,3887.312,598.978,1096.262,24.485,-668.885,-1518.497,-45.989,-0.073,0.244,-0.027,0.002,0.069,0.000,0.000,0.000,-0.026,0.706,0.018,0.708,0.0000000,0.0000000,2714.195,0.000,0.000,0.000,0,00:00:00,1,0.000,2714.195,109623.164,24.484,543.429,0.000,0.420,-45.905,0.103,-0.027,0.001,-0.010,0.000,0.000
69.418,2,0,0.670,0.523,3946.751,-1.524,4.202,594.389,-0.349,2.924,-45.895,0.000,0.000,0.0095671,0.000,9144.000,1.735,0.126,3946.751,594.389,1096.262,24.485,-668.885,-1518.497,-45.989,-0.073,0.244,-0.027,0.002,0.069,0.000,0.000,0.000,-0.025,0.706,0.021,0.707,0.0000000,0.0000000,2714.195,0.000,0.000,0.000,0,00:00:00,1,0.000,2714.195,109623.164,24.484,543.429,0.000,0.420,-45.905,0.103,-0.027,0.001,-0.010,0.000,0.000
69.519,2,0,0.464,0.870,4005.747,-1.592,4.451,589.967,-0.426,2.927,-44.212,0.000,0.000,0.0096842,0.000,9144.000,1.722,0.113,4005.747,589.967,1089.159,23.925,-613.289,-1462.901,-44.310,0.036,0.237,-0.001,-0.020,0.009,0.000,0.000,0.000,-0.024,0.705,0.022,0.708,0.0000000,0.0000000,2821.007,0.000,0.000,0.000,0,00:00:00,1,0.000,2821.007,108929.086,23.928,534.491,0.000,0.278,-44.301,0.032,-0.002,0.020,-0.019,0.000,0.000
69.620,2,0,0.271,1.205,4064.311,-1.670,4.668,585.635,-0.635,2.776,-43.325,0.000,0.000,0.0097252,0.000,9144.000,1.711,0.231,4064.311,585.635,1085.566,23.642,-585.054,-1434.666,-43.418,0.028,0.248,0.020,-0.047,0.008,0.000,0.000,0.000,-0.023,0.704,0.021,0.710,0.0000000,0.0000000,2873.761,0.000,0.000,0.000,0,00:00:00,1,0.000,2873.761,108563.438,23.642,530.135,0.000,0.340,-43.580,-0.024,0.005,-0.004,-0.006,0.000,0.000
69.721,2,0,0.089,1.528,4122.441,-1.759,4.858,581.302,-0.836,2.692,-43.327,0.000,0.000,0.0097476,0.000,9144.000,1.699,0.501,4122.441,581.302,1085.566,23.642,-585.054,-1434.666,-43.418,0.028,0.248,0.020,-0.047,0.008,0.000,0.000,0.000,-0.022,0.702,0.021,0.712,0.0000000,0.0000000,2873.761,0.000,0.000,0.000,0,00:00:00,1,0.000,2873.761,108563.438,23.642,530.135,0.000,0.340,-43.580,-0.024,0.005,-0.004,-0.006,0.000,0.000
69.822,2,0,-0.084,1.837,4180.144,-1.843,5.033,577.026,-0.871,2.694,-42.759,0.000,0.000,0.0098072,0.000,9144.000,1.686,0.771,4180.144,577.026,1090.079,24.001,-620.505,-1470.117,-42.851,0.033,0.374,-0.007,0.018,0.022,0.000,0.000,0.000,-0.022,0.703,0.022,0.711,0.0000000,0.0000000,2926.091,0.000,0.000,0.000,0,00:00:00,1,0.000,2926.091,109006.766,23.997,525.851,0.000,0.270,-42.868,0.113,-0.012,-0.001,0.007,0.000,0.000
69.923,2,0,-0.249,2.133,4237.426,-1.926,5.190,572.823,-0.957,2.673,-42.034,0.000,0.000,0.0098628,0.000,9144.000,1.673,0.667,4237.426,572.823,1086.327,23.702,-591.037,-1440.649,-42.127,0.088,0.461,0.007,-0.000,-0.021,0.000,0.000,0.000,-0.022,0.703,0.021,0.711,0.0000000,0.0000000,2978.003,0.000,0.000,0.000,0,00:00:00,1,0.000,2978.003,108630.414,23.699,521.637,0.000,0.346,-42.069,-0.004,-0.001,-0.002,-0.002,0.000,0.000
70.024,2,0,-0.405,2.414,4294.288,-2.002,5.328,568.619,-0.965,2.642,-42.036,0.000,0.000,0.0099045,0.000,9144.000,1.662,0.670,4294.288,568.619,1086.327,23.702,-591.037,-1440.649,-42.127,0.088,0.461,0.007,-0.000,-0.021,0.000,0.000,0.000,-0.023,0.703,0.020,0.711,0.0000000,0.0000000,2978.003,0.000,0.000,0.000,0,00:00:00,1,0.000,2978.003,108630.414,23.699,521.637,0.000,0.346,-42.069,-0.004,-0.001,-0.002,-0.002,0.000,0.000
70.125,2,0,-0.553,2.681,4350.736,-2.059,5.463,564.484,-0.853,2.743,-41.350,0.000,0.000,0.0099800,0.000,9144.000,1.649,0.673,4350.736,564.484,1090.442,24.025,-623.353,-1472.965,-41.448,0.229,0.383,-0.001,0.007,-0.009,0.000,0.000,0.000,-0.023,0.703,0.020,0.711,0.0000000,0.0000000,3029.505,0.000,0.000,0.000,0,00:00:00,1,0.000,3029.505,109050.562,24.028,517.491,0.000,0.362,-41.457,0.063,-0.001,0.003,-0.009,0.000,0.000
70.226,2,0,-0.691,2.934,4406.777,-2.087,5.559,560.402,-0.641,2.499,-40.826,0.000,0.000,0.0100393,0.000,9144.000,1.637,0.632,4406.777,560.402,1086.506,23.715,-592.451,-1442.063,-40.907,-0.070,0.198,-0.021,0.005,-0.001,0.000,0.000,0.000,-0.024,0.703,0.021,0.711,0.0000000,0.0000000,3080.601,0.000,0.000,0.000,0,00:00:00,1,0.000,3080.601,108648.312,23.715,513.412,0.000,0.312,-40.782,0.041,-0.002,0.016,-0.017,0.000,0.000
70.327,2,0,-0.818,3.171,4462.409,-2.107,5.652,556.320,-0.623,2.585,-40.821,0.000,0.000,0.0100930,0.000,9144.000,1.626,0.605,4462.409,556.320,1086.506,23.715,-592.451,-1442.063,-40.907,-0.070,0.198,-0.021,0.005,-0.001,0.000,0.000,0.000,-0.025,0.703,0.021,0.710,0.0000000,0.0000000,3080.601,0.000,0.000,0.000,0,00:00:00,1,0.000,3080.601,108648.312,23.715,513.412,0.000,0.312,-40.782,0.041,-0.002,0.016,-0.017,0.000,0.000
70.428,2,0,-0.935,3.394,4517.640,-2.137,5.720,552.314,-0.791,2.456,-40.055,0.000,0.000,0.0101788,0.000,9144.000,1.614,0.577,4517.640,552.314,1082.493,23.402,-560.842,-1410.454,-40.137,-0.149,0.321,-0.000,-0.013,-0.002,0.000,0.000,0.000,-0.025,0.703,0.021,0.711,0.0000000,0.0000000,3131.299,0.000,0.000,0.000,0,00:00:00,1,0.000,3131.299,108250.156,23.399,509.396,0.000,0.403,-40.153,-0.067,-0.001,-0.018,0.008,0.000,0.000
70.529,2,0,-1.044,3.602,4572.471,-2.167,5.776,548.309,-0.845,2.456,-40.054,0.000,0.000,0.0102376,0.000,9144.000,1.603,0.653,4572.471,548.309,1082.493,23.402,-560.842,-1410.454,-40.137,-0.149,0.321,-0.000,-0.013,-0.002,0.000,0.000,0.000,-0.025,0.702,0.021,0.711,0.0000000,0.0000000,3131.299,0.000,0.000,0.000,0,00:00:00,1,0.000,3131.299,108250.156,23.399,509.396,0.000,0.403,-40.153,-0.067,-0.001,-0.018,0.008,0.000,0.000
70.630,2,0,-1.146,3.796,4626.907,-2.197,5.855,544.359,-0.899,2.773,-39.501,0.000,0.000,0.0103279,0.000,9144.000,1.591,0.729,4626.907,544.359,1086.052,23.680,-588.876,-1438.489,-39.608,0.111,0.268,-0.024,-0.028,-0.017,0.000,0.000,0.000,-0.026,0.701,0.021,0.712,0.0000000,0.0000000,3181.605,0.000,0.000,0.000,0,00:00:00,1,0.000,3181.605,108598.602,23.678,505.443,0.000,0.360,-39.566,0.021,-0.007,0.001,-0.003,0.000,0.000
70.731,2,0,-1.241,3.979,4680.955,-2.229,5.928,540.484,-0.973,2.817,-38.748,0.000,0.000,0.0104064,0.000,9144.000,1.579,0.886,4680.955,540.484,1081.911,23.353,-556.252,-1405.865,-38.860,0.120,0.396,-0.023,0.013,-0.024,0.000,0.000,0.000,-0.028,0.702,0.021,0.712,0.0000000,0.0000000,3231.526,0.000,0.000,0.000,0,00:00:00,1,0.000,3231.526,108191.094,23.351,501.551,0.000,0.355,-38.894,-0.047,-0.000,-0.000,0.009,0.000,0.000
70.832,2,0,-1.330,4.151,4734.616,-2.252,6.001,536.609,-0.931,2.903,-38.743,0.000,0.000,0.0104583,0.000,9144.000,1.569,0.811,4734.616,536.609,1081.911,23.353,-556.252,-1405.865,-38.860,0.120,0.396,-0.023,0.013,-0.024,0.000,0.000,0.000,-0.030,0.702,0.021,0.711,0.0000000,0.0000000,3231.526,0.000,0.000,0.000,0,00:00:00,1,0.000,3231.526,108191.094,23.351,501.551,0.000,0.355,-38.894,-0.047,-0.000,-0.000,0.009,0.000,0.000
70.933,2,0,-1.412,4.312,4787.893,-2.280,6.020,532.765,-1.010,2.461,-38.442,0.000,0.000,0.0105433,0.000,9144.000,1.557,0.737,4787.893,532.765,1085.015,23.598,-580.718,-1430.330,-38.530,-0.206,0.469,0.024,-0.003,-0.017,0.000,0.000,0.000,-0.029,0.702,0.020,0.711,0.0000000,0.0000000,3281.065,0.000,0.000,0.000,0,00:00:00,1,0.000,3281.065,108494.883,23.604,497.718,0.000,0.337,-38.328,-0.018,-0.007,0.002,0.006,0.000,0.000
71.034,2,0,-1.489,4.458,4840.785,-2.304,6.023,528.921,-1.026,2.369,-38.447,0.000,0.000,0.0106297,0.000,9144.000,1.546,0.755,4840.785,528.921,1085.015,23.598,-580.718,-1430.330,-38.530,-0.206,0.469,0.024,-0.003,-0.017,0.000,0.000,0.000,-0.029,0.702,0.018,0.712,0.0000000,0.0000000,3281.065,0.000,0.000,0.000,0,00:00:00,1,0.000,3281.065,108494.883,23.604,497.718,0.000,0.337,-38.328,-0.018,-0.007,0.002,0.006,0.000,0.000
71.135,2,0,-1.560,4.592,4893.301,-2.300,6.057,525.167,-0.783,2.759,-37.533,0.000,0.000,0.0107434,0.000,9144.000,1.535,0.774,4893.301,525.167,1080.688,23.256,-546.595,-1396.208,-37.640,0.305,0.277,0.016,0.014,-0.031,0.000,0.000,0.000,-0.030,0.702,0.017,0.711,0.0000000,0.0000000,3330.231,0.000,0.000,0.000,0,00:00:00,1,0.000,3330.231,108074.352,23.256,493.942,0.000,0.338,-37.750,0.085,0.006,-0.015,-0.006,0.000,0.000
71.236,2,0,-1.625,4.715,4945.447,-2.310,6.047,521.458,-0.952,2.373,-37.096,0.000,0.000,0.0108093,0.000,9144.000,1.525,0.693,4945.447,521.458,1083.394,23.471,-567.947,-1417.559,-37.181,0.045,0.445,0.026,-0.004,0.019,0.000,0.000,0.000,-0.028,0.702,0.016,0.711,0.0000000,0.0000000,3379.027,0.000,0.000,0.000,0,00:00:00,1,0.000,3379.027,108342.180,23.476,490.222,0.000,0.292,-37.102,0.013,-0.000,-0.001,0.008,0.000,0.000
71.337,2,0,-1.684,4.825,4997.222,-2.318,6.021,517.748,-0.963,2.280,-37.102,0.000,0.000,0.0108685,0.000,9144.000,1.513,0.720,4997.222,517.748,1083.394,23.471,-567.947,-1417.559,-37.181,0.045,0.445,0.026,-0.004,0.019,0.000,0.000,0.000,-0.027,0.702,0.016,0.712,0.0000000,0.0000000,3379.027,0.000,0.000,0.000,0,00:00:00,1,0.000,3379.027,108342.180,23.476,490.222,0.000,0.292,-37.102,0.013,-0.000,-0.001,0.008,0.000,0.000
71.438,2,0,-1.739,4.921,5048.631,-2.326,5.971,514.097,-0.996,2.094,-36.508,0.000,0.000,0.0109604,0.000,9144.000,1.502,0.747,5048.631,514.097,1085.803,23.664,-586.921,-1436.534,-36.577,-0.197,0.522,-0.025,0.009,0.003,0.000,0.000,0.000,-0.027,0.702,0.017,0.711,0.0000000,0.0000000,3427.459,0.000,0.000,0.000,0,00:00:00,1,0.000,3427.459,108582.469,23.667,486.557,0.000,0.261,-36.700,-0.088,-0.002,-0.001,-0.003,0.000,0.000
71.539,2,0,-1.788,5.003,5099.676,-2.329,5.926,510.446,-0.964,2.187,-36.503,0.000,0.000,0.0110279,0.000,9144.000,1.491,0.695,5099.676,510.446,1085.803,23.664,-586.921,-1436.534,-36.577,-0.197,0.522,-0.025,0.009,0.003,0.000,0.000,0.000,-0.028,0.703,0.018,0.711,0.0000000,0.0000000,3427.459,0.000,0.000,0.000,0,00:00:00,1,0.000,3427.459,108582.469,23.667,486.557,0.000,0.261,-36.700,-0.088,-0.002,-0.001,-0.003,0.000,0.000
71.640,2,0,-1.833,5.074,5150.360,-2.324,5.887,506.837,-0.920,2.279,-36.094,0.000,0.000,0.0111272,0.000,9144.000,1.481,0.643,5150.360,506.837,1081.194,23.298,-550.595,-1400.207,-36.175,0.032,0.467,0.031,-0.004,0.005,0.000,0.000,0.000,-0.027,0.702,0.017,0.711,0.0000000,0.0000000,3475.533,0.000,0.000,0.000,0,00:00:00,1,0.000,3475.533,108126.375,23.300,482.945,0.000,0.367,-36.123,0.074,0.013,-0.006,-0.002,0.000,0.000
71.741,2,0,-1.872,5.133,5200.699,-2.274,5.813,503.393,-0.491,1.967,-34.442,0.000,0.000,0.0112174,0.000,9144.000,1.471,0.667,5200.699,503.393,1945.474,81.777,-5855.860,-6705.472,-34.502,-0.091,0.127,0.026,0.020,-0.013,0.000,0.000,0.000,-0.026,0.703,0.016,0.710,0.0000000,0.0000000,3617.654,0.000,0.000,0.000,0,00:00:00,1,0.000,3617.654,194550.359,81.775,472.412,0.000,0.348,-34.723,-0.046,0.001,0.009,-0.007,0.000,0.000
71.842,2,0,-1.903,5.180,5250.723,-2.244,5.737,500.242,-0.705,1.972,-31.505,0.000,0.000,0.0111836,0.000,9144.000,1.335,0.555,5250.723,500.242,1746.531,69.442,-4836.658,-5686.271,-31.573,-0.085,0.347,-0.057,-0.008,-0.008,0.000,0.000,0.000,-0.029,0.703,0.018,0.711,0.0000000,0.0000000,3937.611,0.000,0.000,0.000,0,00:00:00,1,0.000,3937.611,174653.891,69.444,449.452,0.000,0.351,-31.553,-0.011,0.002,0.001,0.003,0.000,0.000
71.943,2,0,-1.928,5.214,5300.465,-2.204,5.637,497.414,-0.616,1.759,-28.285,0.000,0.000,0.0109310,0.000,9144.000,1.351,0.595,5300.465,497.414,1550.349,56.802,-3734.965,-4584.577,-28.344,-0.074,0.353,0.005,0.021,0.005,0.000,0.000,0.000,-0.028,0.704,0.018,0.710,0.0000000,0.0000000,4284.781,0.000,0.000,0.000,0,00:00:00,1,0.000,4284.781,155029.047,56.804,425.603,0.000,0.323,-28.520,-0.123,-0.013,0.018,0.009,0.000,0.000
72.044,2,0,-1.945,5.236,5349.943,-2.131,5.541,494.783,-0.300,1.795,-26.305,0.000,0.000,0.0104637,0.000,9144.000,1.369,0.477,5349.943,494.783,510.646,-20.222,5416.501,4566.889,-26.367,-0.002,0.217,-0.034,0.062,0.005,0.000,0.000,0.000,-0.029,0.706,0.019,0.708,0.0000000,0.0000000,4573.744,0.000,0.000,0.000,0,00:00:00,1,0.000,4573.744,51063.891,-20.223,406.494,0.000,0.339,-26.462,0.032,-0.008,-0.002,-0.009,0.000,0.000
72.145,2,0,-1.954,5.248,5399.165,-2.057,5.451,492.221,-0.292,1.876,-25.618,0.000,0.000,0.0099320,0.000,9144.000,1.555,0.121,5399.165,492.221,505.138,-20.743,5496.681,4647.069,-25.688,0.141,0.195,0.006,-0.006,0.002,0.000,0.000,0.000,-0.029,0.706,0.019,0.708,0.0000000,0.0000000,4653.924,0.000,0.000,0.000,0,00:00:00,1,0.000,4653.924,50514.945,-20.742,401.299,0.000,0.352,-25.839,0.034,-0.002,0.017,0.007,0.000,0.000
72.246,2,0,-1.956,5.248,5448.134,-1.992,5.321,489.686,-0.382,1.470,-25.349,0.000,0.000,0.0094670,0.000,9144.000,1.548,0.154,5448.134,489.686,499.738,-21.259,5575.967,4726.354,-25.392,-0.159,0.247,0.034,-0.017,-0.003,0.000,0.000,0.000,-0.028,0.705,0.017,0.708,0.0000000,0.0000000,4733.086,0.000,0.000,0.000,0,00:00:00,1,0.000,4733.086,49974.598,-21.258,396.212,0.000,0.286,-25.332,-0.104,-0.008,-0.009,-0.013,0.000,0.000
72.347,2,0,-1.953,5.238,5496.852,-1.949,5.211,487.181,-0.602,1.665,-25.050,0.000,0.000,0.0090891,0.000,9144.000,1.542,0.254,5496.852,487.181,497.099,-21.513,5614.973,4765.361,-25.109,0.070,0.420,0.005,-0.018,-0.009,0.000,0.000,0.000,-0.028,0.704,0.017,0.709,0.0000000,0.0000000,4772.293,0.000,0.000,0.000,0,00:00:00,1,0.000,4772.293,49708.383,-21.514,393.708,0.000,0.400,-25.088,0.070,0.022,-0.006,0.002,0.000,0.000
72.448,2,0,-1.946,5.218,5545.321,-1.910,5.104,484.694,-0.635,1.682,-24.877,0.000,0.000,0.0087839,0.000,9144.000,1.535,0.355,5545.321,484.694,494.480,-21.765,5653.844,4804.231,-24.939,0.124,0.382,0.011,-0.029,-0.002,0.000,0.000,0.000,-0.028,0.703,0.017,0.710,0.0000000,0.0000000,4811.253,0.000,0.000,0.000,0,00:00:00,1,0.000,4811.253,49446.730,-21.767,391.229,0.000,0.323,-24.816,0.019,0.008,0.008,-0.000,0.000,0.000
72.549,2,0,-1.937,5.190,5593.547,-1.888,4.985,482.256,-0.809,1.556,-24.373,0.000,0.000,0.0085466,0.000,9144.000,1.528,0.522,5593.547,482.256,491.871,-22.018,5692.737,4843.124,-24.430,0.055,0.529,0.008,-0.011,-0.046,0.000,0.000,0.000,-0.029,0.703,0.015,0.711,0.0000000,0.0000000,4849.968,0.000,0.000,0.000,0,00:00:00,1,0.000,4849.968,49192.480,-22.013,388.775,0.000,0.319,-24.548,-0.031,0.007,0.006,0.010,0.000,0.000
72.650,2,0,-1.927,5.153,5641.529,-1.851,4.861,479.823,-0.640,1.478,-24.337,0.000,0.000,0.0083289,0.000,9144.000,1.521,0.583,5641.529,479.823,489.334,-22.265,5730.714,4881.102,-24.389,-0.017,0.300,0.004,-0.026,0.008,0.000,0.000,0.000,-0.029,0.702,0.015,0.711,0.0000000,0.0000000,4888.442,0.000,0.000,0.000,0,00:00:00,1,0.000,4888.442,48929.855,-22.269,386.346,0.000,0.395,-24.298,0.057,0.013,0.007,0.020,0.000,0.000
72.751,2,0,-1.913,5.109,5689.271,-1.809,4.747,477.422,-0.592,1.560,-24.009,0.000,0.000,0.0103675,0.000,9144.000,1.514,0.730,5689.271,477.422,486.779,-22.515,5769.128,4919.516,-24.066,0.019,0.254,-0.027,-0.002,0.028,0.000,0.000,0.000,-0.029,0.702,0.017,0.711,0.0000000,0.0000000,4926.677,0.000,0.000,0.000,0,00:00:00,1,0.000,4926.677,48674.504,-22.518,383.940,0.000,0.368,-24.080,0.028,0.011,-0.005,0.008,0.000,0.000
72.852,2,0,-1.897,5.059,5736.775,-1.766,4.636,475.040,-0.571,1.563,-23.815,0.000,0.000,0.0097931,0.000,9144.000,1.507,0.741,5736.775,475.040,484.256,-22.763,5807.210,4957.598,-23.871,0.040,0.288,0.002,0.022,-0.003,0.000,0.000,0.000,-0.029,0.703,0.017,0.711,0.0000000,0.0000000,4964.674,0.000,0.000,0.000,0,00:00:00,1,0.000,4964.674,48427.020,-22.761,381.558,0.000,0.285,-23.822,-0.044,-0.008,-0.009,0.014,0.000,0.000
72.953,2,0,-1.880,5.003,5784.044,-1.743,4.522,472.683,-0.761,1.507,-23.571,0.000,0.000,0.0093361,0.000,9144.000,1.500,0.612,5784.044,472.683,481.764,-23.008,5844.991,4995.378,-23.628,0.045,0.396,0.019,-0.036,-0.001,0.000,0.000,0.000,-0.028,0.701,0.016,0.712,0.0000000,0.0000000,5002.437,0.000,0.000,0.000,0,00:00:00,1,0.000,5002.437,48175.969,-23.009,379.199,0.000,0.291,-23.604,0.006,0.004,-0.014,-0.010,0.000,0.000
73.054,2,0,-1.861,4.942,5831.079,-1.712,4.406,470.351,-0.673,1.447,-23.321,0.000,0.000,0.0089675,0.000,9144.000,1.494,0.821,5831.079,470.351,479.326,-23.250,5882.098,5032.485,-23.373,0.010,0.309,0.004,-0.000,-0.022,0.000,0.000,0.000,-0.029,0.701,0.015,0.712,0.0000000,0.0000000,5039.967,0.000,0.000,0.000,0,00:00:00,1,0.000,5039.967,47934.426,-23.248,376.862,0.000,0.273,-23.330,-0.043,-0.002,-0.007,0.003,0.000,0.000
73.155,2,0,-1.842,4.876,5877.881,-1.682,4.292,468.019,-0.676,1.436,-23.321,0.000,0.000,0.0086669,0.000,9144.000,1.487,0.822,5877.881,468.019,479.326,-23.250,5882.098,5032.485,-23.373,0.010,0.309,0.004,-0.000,-0.022,0.000,0.000,0.000,-0.029,0.701,0.014,0.712,0.0000000,0.0000000,5039.967,0.000,0.000,0.000,0,00:00:00,1,0.000,5039.967,47934.426,-23.248,376.862,0.000,0.273,-23.330,-0.043,-0.002,-0.007,0.003,0.000,0.000
73.256,2,0,-1.822,4.807,5924.453,-1.658,4.184,465.726,-0.717,1.462,-22.927,0.000,0.000,0.0084491,0.000,9144.000,1.480,0.823,5924.453,465.726,474.487,-23.732,5956.218,5106.605,-22.982,0.116,0.321,0.024,-0.013,-0.017,0.000,0.000,0.000,-0.029,0.701,0.013,0.713,0.0000000,0.0000000,5114.337,0.000,0.000,0.000,0,00:00:00,1,0.000,5114.337,47447.305,-23.733,372.253,0.000,0.397,-23.019,-0.038,0.005,-0.020,0.006,0.000,0.000
73.357,2,0,-1.802,4.733,5970.797,-1.638,4.075,463.433,-0.750,1.406,-22.929,0.000,0.000,0.0103675,0.000,9144.000,1.474,0.902,5970.797,463.433,474.487,-23.732,5956.218,5106.605,-22.982,0.116,0.321,0.024,-0.013,-0.017,0.000,0.000,0.000,-0.029,0.700,0.011,0.713,0.0000000,0.0000000,5114.337,0.000,0.000,0.000,0,00:00:00,1,0.000,5114.337,47447.305,-23.733,372.253,0.000,0.397,-23.019,-0.038,0.005,-0.020,0.006,0.000,0.000
73.458,2,0,-1.782,4.656,6016.916,-1.626,3.947,461.195,-0.823,1.182,-22.384,0.000,0.000,0.0098112,0.000,9144.000,1.467,0.981,6016.916,461.195,469.729,-24.209,6029.702,5180.090,-22.427,-0.076,0.423,0.001,0.004,0.039,0.000,0.000,0.000,-0.027,0.701,0.013,0.713,0.0000000,0.0000000,5187.803,0.000,0.000,0.000,0,00:00:00,1,0.000,5187.803,46971.023,-24.211,367.729,0.000,0.388,-22.468,0.080,-0.030,-0.005,-0.014,0.000,0.000
73.559,2,0,-1.764,4.575,6062.814,-1.628,3.820,458.973,-0.947,1.149,-22.222,0.000,0.000,0.0093236,0.000,9144.000,1.461,0.959,6062.814,458.973,467.402,-24.445,6065.853,5216.241,-22.266,-0.023,0.474,0.034,-0.033,-0.008,0.000,0.000,0.000,-0.026,0.699,0.011,0.714,0.0000000,0.0000000,5224.202,0.000,0.000,0.000,0,00:00:00,1,0.000,5224.202,46737.391,-24.447,365.498,0.000,0.291,-22.328,-0.064,-0.000,0.003,0.004,0.000,0.000
73.660,2,0,-1.746,4.490,6108.492,-1.610,3.713,456.780,-0.734,1.295,-21.931,0.000,0.000,0.0089370,0.000,9144.000,1.455,1.153,6108.492,456.780,465.105,-24.678,6101.693,5252.081,-21.981,0.061,0.228,-0.035,-0.015,-0.037,0.000,0.000,0.000,-0.029,0.699,0.011,0.715,0.0000000,0.0000000,5260.380,0.000,0.000,0.000,0,00:00:00,1,0.000,5260.380,46507.625,-24.681,363.286,0.000,0.332,-22.192,0.046,-0.001,0.003,0.001,0.000,0.000
73.761,2,0,-1.730,4.403,6153.950,-1.608,3.595,454.587,-0.895,1.151,-21.923,0.000,0.000,0.0086150,0.000,9144.000,1.448,1.232,6153.950,454.587,462.787,-24.914,6137.993,5288.381,-21.967,-0.087,0.439,-0.004,0.020,0.012,0.000,0.000,0.000,-0.029,0.700,0.012,0.714,0.0000000,0.0000000,5296.340,0.000,0.000,0.000,0,00:00:00,1,0.000,5296.340,46282.066,-24.910,361.094,0.000,0.298,-21.883,-0.036,-0.012,0.010,0.001,0.000,0.000
73.862,2,0,-1.714,4.314,6199.191,-1.596,3.487,452.411,-0.778,1.195,-21.768,0.000,0.000,0.0083776,0.000,9144.000,1.442,1.117,6199.191,452.411,460.524,-25.145,6173.585,5323.973,-21.812,-0.011,0.361,0.013,0.016,0.032,0.000,0.000,0.000,-0.027,0.700,0.012,0.713,0.0000000,0.0000000,5332.084,0.000,0.000,0.000,0,00:00:00,1,0.000,5332.084,46051.527,-25.146,358.921,0.000,0.377,-21.766,0.039,-0.003,0.004,-0.007,0.000,0.000
73.963,2,0,-1.698,4.223,6244.221,-1.563,3.381,450.292,-0.569,1.177,-21.184,0.000,0.000,0.0103675,0.000,9144.000,1.436,1.028,6244.221,450.292,458.264,-25.377,6209.259,5359.646,-21.223,-0.006,0.225,-0.004,0.031,-0.028,0.000,0.000,0.000,-0.028,0.701,0.011,0.712,0.0000000,0.0000000,5367.613,0.000,0.000,0.000,0,00:00:00,1,0.000,5367.613,45824.230,-25.379,356.767,0.000,0.445,-21.471,0.033,-0.010,-0.003,0.010,0.000,0.000
74.064,2,0,-1.681,4.132,6289.036,-1.550,3.281,448.151,-0.753,1.186,-21.410,0.000,0.000,0.0097292,0.000,9144.000,1.430,0.853,6289.036,448.151,456.056,-25.605,6244.262,5394.649,-21.453,0.065,0.396,0.033,-0.004,0.009,0.000,0.000,0.000,-0.027,0.701,0.011,0.712,0.0000000,0.0000000,5402.930,0.000,0.000,0.000,0,00:00:00,1,0.000,5402.930,45603.441,-25.607,354.631,0.000,0.369,-21.377,-0.105,0.002,-0.003,-0.018,0.000,0.000
74.165,2,0,-1.664,4.040,6333.639,-1.527,3.195,446.031,-0.652,1.269,-21.197,0.000,0.000,0.0092696,0.000,9144.000,1.424,0.881,6333.639,446.031,453.848,-25.833,6279.398,5429.786,-21.241,0.187,0.327,0.013,0.017,-0.035,0.000,0.000,0.000,-0.028,0.702,0.009,0.712,0.0000000,0.0000000,5438.036,0.000,0.000,0.000,0,00:00:00,1,0.000,5438.036,45389.699,-25.828,352.513,0.000,0.354,-21.308,-0.111,0.009,-0.006,-0.018,0.000,0.000
74.266,2,0,-1.647,3.948,6378.034,-1.518,3.085,443.948,-0.775,0.987,-20.838,0.000,0.000,0.0088966,0.000,9144.000,1.417,0.784,6378.034,443.948,451.686,-26.058,6313.936,5464.324,-20.871,-0.002,0.471,0.034,0.004,0.012,0.000,0.000,0.000,-0.026,0.702,0.008,0.712,0.0000000,0.0000000,5472.932,0.000,0.000,0.000,0,00:00:00,1,0.000,5472.932,45168.496,-26.058,350.413,0.000,0.345,-21.021,0.030,0.009,0.012,0.004,0.000,0.000
74.367,2,0,-1.631,3.855,6422.220,-1.501,2.977,441.866,-0.685,0.959,-20.816,0.000,0.000,0.0085703,0.000,9144.000,1.411,0.766,6422.220,441.866,449.542,-26.281,6348.312,5498.700,-20.846,-0.045,0.364,-0.006,-0.009,-0.002,0.000,0.000,0.000,-0.026,0.702,0.008,0.712,0.0000000,0.0000000,5507.621,0.000,0.000,0.000,0,00:00:00,1,0.000,5507.621,44953.648,-26.282,348.330,0.000,0.356,-20.875,0.036,-0.010,-0.023,0.003,0.000,0.000
74.468,2,0,-1.614,3.762,6466.200,-1.493,2.887,439.797,-0.769,1.083,-20.686,0.000,0.000,0.0083263,0.000,9144.000,1.405,0.817,6466.200,439.797,447.390,-26.507,6382.962,5533.349,-20.724,0.066,0.405,-0.010,-0.020,-0.014,0.000,0.000,0.000,-0.027,0.701,0.008,0.713,0.0000000,0.0000000,5542.104,0.000,0.000,0.000,0,00:00:00,1,0.000,5542.104,44739.980,-26.506,346.264,0.000,0.319,-20.640,0.061,-0.003,-0.001,-0.013,0.000,0.000
74.569,2,0,-1.599,3.668,6509.976,-1.477,2.794,437.764,-0.688,1.013,-20.331,0.000,0.000,0.0103675,0.000,9144.000,1.400,0.927,6509.976,437.764,445.270,-26.729,6417.217,5567.604,-20.366,0.028,0.257,0.010,-0.038,0.034,0.000,0.000,0.000,-0.026,0.700,0.009,0.714,0.0000000,0.0000000,5576.383,0.000,0.000,0.000,0,00:00:00,1,0.000,5576.383,44523.500,-26.733,344.214,0.000,0.359,-20.589,0.033,0.015,0.020,-0.001,0.000,0.000
74.670,2,0,-1.583,3.575,6553.551,-1.466,2.698,435.743,-0.719,0.930,-20.217,0.000,0.000,0.0097413,0.000,9144.000,1.394,1.147,6553.551,435.743,443.165,-26.952,6451.374,5601.761,-20.249,-0.018,0.317,0.015,0.012,0.020,0.000,0.000,0.000,-0.024,0.700,0.009,0.714,0.0000000,0.0000000,5610.459,0.000,0.000,0.000,0,00:00:00,1,0.000,5610.459,44318.707,-26.949,342.181,0.000,0.399,-20.398,0.016,0.010,0.005,0.004,0.000,0.000
74.771,2,0,-1.569,3.482,6596.925,-1.466,2.604,433.739,-0.825,0.902,-20.032,0.000,0.000,0.0092446,0.000,9144.000,1.388,1.081,6596.925,433.739,441.105,-27.170,6484.923,5635.311,-20.066,-0.110,0.375,-0.036,-0.027,0.015,0.000,0.000,0.000,-0.025,0.699,0.011,0.715,0.0000000,0.0000000,5644.334,0.000,0.000,0.000,0,00:00:00,1,0.000,5644.334,44103.910,-27.177,340.165,0.000,0.385,-20.153,-0.017,-0.010,0.007,-0.001,0.000,0.000
74.872,2,0,-1.556,3.391,6640.097,-1.473,2.540,431.721,-0.890,1.143,-20.185,0.000,0.000,0.0088428,0.000,9144.000,1.382,1.233,6640.097,431.721,439.054,-27.388,6518.447,5668.834,-20.232,0.104,0.440,-0.011,0.005,-0.019,0.000,0.000,0.000,-0.026,0.699,0.011,0.714,0.0000000,0.0000000,5678.011,0.000,0.000,0.000,0,00:00:00,1,0.000,5678.011,43905.219,-27.388,338.163,0.000,0.316,-19.894,0.008,0.002,0.016,0.000,0.000,0.000
74.973,2,0,-1.545,3.302,6683.070,-1.475,2.475,429.735,-0.830,1.100,-19.863,0.000,0.000,0.0085677,0.000,9144.000,1.376,1.202,6683.070,429.735,437.010,-27.606,6551.981,5702.368,-19.906,0.068,0.410,-0.004,0.010,0.008,0.000,0.000,0.000,-0.026,0.700,0.011,0.714,0.0000000,0.0000000,5711.489,0.000,0.000,0.000,0,00:00:00,1,0.000,5711.489,43699.547,-27.607,336.178,0.000,0.321,-19.945,-0.068,0.015,-0.002,-0.006,0.000,0.000
75.074,2,0,-1.535,3.215,6725.848,-1.477,2.395,427.779,-0.835,0.894,-19.559,0.000,0.000,0.0083213,0.000,9144.000,1.371,1.142,6725.848,427.779,434.989,-27.822,6585.279,5735.666,-19.592,-0.087,0.408,0.018,-0.009,-0.003,0.000,0.000,0.000,-0.025,0.699,0.010,0.714,0.0000000,0.0000000,5744.771,0.000,0.000,0.000,0,00:00:00,1,0.000,5744.771,43494.859,-27.827,334.207,0.000,0.394,-19.595,0.055,-0.012,-0.002,0.002,0.000,0.000
75.175,2,0,-1.526,3.129,6768.430,-1.482,2.316,425.823,-0.852,0.859,-19.560,0.000,0.000,0.0103675,0.000,9144.000,1.365,1.193,6768.430,425.823,434.989,-27.822,6585.279,5735.666,-19.592,-0.087,0.408,0.018,-0.009,-0.003,0.000,0.000,0.000,-0.025,0.699,0.010,0.715,0.0000000,0.0000000,5744.771,0.000,0.000,0.000,0,00:00:00,1,0.000,5744.771,43494.859,-27.827,334.207,0.000,0.394,-19.595,0.055,-0.012,-0.002,0.002,0.000,0.000
75.276,2,0,-1.519,3.044,6810.819,-1.492,2.257,423.889,-0.898,1.019,-19.341,0.000,0.000,0.0097548,0.000,9144.000,1.359,1.244,6810.819,423.889,431.005,-28.251,6651.254,5801.642,-19.383,0.053,0.446,-0.015,-0.006,0.014,0.000,0.000,0.000,-0.025,0.699,0.011,0.715,0.0000000,0.0000000,5810.751,0.000,0.000,0.000,0,00:00:00,1,0.000,5810.751,43096.777,-28.255,330.311,0.000,0.398,-19.339,-0.038,0.000,-0.012,0.011,0.000,0.000
75.377,2,0,-1.513,2.962,6853.017,-1.479,2.189,421.978,-0.666,0.891,-19.109,0.000,0.000,0.0092554,0.000,9144.000,1.354,1.276,6853.017,421.978,429.090,-28.459,6683.147,5833.535,-19.140,-0.115,0.193,-0.024,-0.015,-0.007,0.000,0.000,0.000,-0.026,0.698,0.011,0.715,0.0000000,0.0000000,5843.453,0.000,0.000,0.000,0,00:00:00,1,0.000,5843.453,42904.293,-28.464,328.384,0.000,0.240,-19.202,0.007,-0.003,0.020,-0.003,0.000,0.000
75.478,2,0,-1.507,2.882,6895.024,-1.494,2.124,420.066,-0.939,0.871,-19.118,0.000,0.000,0.0088359,0.000,9144.000,1.348,1.361,6895.024,420.066,427.127,-28.672,6715.973,5866.361,-19.155,-0.104,0.426,0.013,-0.020,-0.013,0.000,0.000,0.000,-0.026,0.697,0.011,0.716,0.0000000,0.0000000,5875.963,0.000,0.000,0.000,0,00:00:00,1,0.000,5875.963,42713.129,-28.672,326.472,0.000,0.301,-19.168,0.005,-0.008,-0.014,0.000,0.000,0.000
75.579,2,0,-1.502,2.803,6936.842,-1.499,2.066,418.183,-0.841,0.900,-18.831,0.000,0.000,0.0085251,0.000,9144.000,1.343,1.478,6936.842,418.183,425.207,-28.882,6748.186,5898.574,-18.868,-0.098,0.335,-0.019,0.000,-0.005,0.000,0.000,0.000,-0.027,0.697,0.011,0.716,0.0000000,0.0000000,5908.285,0.000,0.000,0.000,0,00:00:00,1,0.000,5908.285,42520.516,-28.882,324.573,0.000,0.253,-19.033,0.058,-0.006,-0.005,-0.021,0.000,0.000
75.680,2,0,-1.498,2.727,6978.472,-1.497,2.030,416.303,-0.769,1.074,-18.804,0.000,0.000,0.0103675,0.000,9144.000,1.337,1.473,6978.472,416.303,423.294,-29.091,6780.388,5930.775,-18.848,0.073,0.259,-0.002,-0.001,0.003,0.000,0.000,0.000,-0.027,0.697,0.011,0.716,0.0000000,0.0000000,5940.419,0.000,0.000,0.000,0,00:00:00,1,0.000,5940.419,42333.758,-29.086,322.688,0.000,0.281,-18.918,-0.030,0.016,0.001,-0.005,0.000,0.000
75.781,2,0,-1.496,2.655,7019.916,-1.520,1.992,414.443,-1.013,1.025,-18.596,0.000,0.000,0.0097423,0.000,9144.000,1.332,1.478,7019.916,414.443,421.408,-29.298,6812.265,5962.653,-18.647,-0.033,0.429,-0.039,-0.043,-0.021,0.000,0.000,0.000,-0.029,0.696,0.012,0.718,0.0000000,0.0000000,5972.366,0.000,0.000,0.000,0,00:00:00,1,0.000,5972.366,42138.992,-29.300,320.816,0.000,0.325,-18.757,-0.052,-0.008,0.003,0.000,0.000,0.000
75.882,2,0,-1.496,2.587,7061.176,-1.560,1.962,412.595,-1.179,1.062,-18.481,0.000,0.000,0.0092320,0.000,9144.000,1.326,1.718,7061.176,412.595,419.543,-29.504,6843.904,5994.291,-18.541,-0.005,0.563,-0.009,-0.020,0.015,0.000,0.000,0.000,-0.029,0.695,0.013,0.718,0.0000000,0.0000000,6004.128,0.000,0.000,0.000,0,00:00:00,1,0.000,6004.128,41955.371,-29.503,318.957,0.000,0.395,-18.601,-0.045,-0.008,-0.015,0.002,0.000,0.000
75.983,2,0,-1.499,2.522,7102.252,-1.568,1.922,410.756,-0.866,0.925,-18.391,0.000,0.000,0.0088290,0.000,9144.000,1.321,1.830,7102.252,410.756,417.706,-29.707,6875.164,6025.552,-18.432,-0.107,0.258,0.017,0.003,-0.036,0.000,0.000,0.000,-0.029,0.695,0.011,0.718,0.0000000,0.0000000,6035.706,0.000,0.000,0.000,0,00:00:00,1,0.000,6035.706,41767.281,-29.711,317.112,0.000,0.399,-18.541,0.044,0.004,-0.001,0.005,0.000,0.000
76.084,2,0,-1.502,2.459,7143.145,-1.569,1.887,408.931,-0.805,0.950,-18.251,0.000,0.000,0.0085029,0.000,9144.000,1.316,1.815,7143.145,408.931,415.873,-29.911,6906.480,6056.867,-18.292,-0.096,0.258,-0.011,0.029,0.032,0.000,0.000,0.000,-0.029,0.696,0.012,0.717,0.0000000,0.0000000,6067.101,0.000,0.000,0.000,0,00:00:00,1,0.000,6067.101,41589.855,-29.908,315.278,0.000,0.389,-18.341,0.002,-0.007,0.009,-0.010,0.000,0.000
76.185,2,0,-1.504,2.400,7183.855,-1.565,1.858,407.105,-0.748,0.972,-18.253,0.000,0.000,0.0103675,0.000,9144.000,1.310,1.645,7183.855,407.105,415.873,-29.911,6906.480,6056.867,-18.292,-0.096,0.258,-0.011,0.029,0.032,0.000,0.000,0.000,-0.028,0.697,0.014,0.716,0.0000000,0.0000000,6067.101,0.000,0.000,0.000,0,00:00:00,1,0.000,6067.101,41589.855,-29.908,315.278,0.000,0.389,-18.341,0.002,-0.007,0.009,-0.010,0.000,0.000
76.286,2,0,-1.507,2.344,7224.383,-1.581,1.838,405.283,-0.947,1.038,-18.223,0.000,0.000,0.0097491,0.000,9144.000,1.305,1.475,7224.383,405.283,412.260,-30.314,6968.528,6118.916,-18.272,-0.037,0.438,-0.008,-0.007,-0.041,0.000,0.000,0.000,-0.030,0.697,0.013,0.716,0.0000000,0.0000000,6129.347,0.000,0.000,0.000,0,00:00:00,1,0.000,6129.347,41224.180,-30.317,311.649,0.000,0.451,-18.055,0.027,-0.019,0.003,-0.004,0.000,0.000
76.387,2,0,-1.511,2.292,7264.733,-1.600,1.832,403.499,-0.985,1.149,-17.838,0.000,0.000,0.0092740,0.000,9144.000,1.300,1.517,7264.733,403.499,410.458,-30.517,6999.637,6150.024,-17.894,0.035,0.510,-0.036,0.014,-0.008,0.000,0.000,0.000,-0.031,0.698,0.014,0.716,0.0000000,0.0000000,6160.202,0.000,0.000,0.000,0,00:00:00,1,0.000,6160.202,41044.094,-30.519,309.856,0.000,0.343,-17.887,0.020,0.007,-0.022,-0.007,0.000,0.000
76.488,2,0,-1.515,2.245,7304.906,-1.591,1.839,401.724,-0.711,1.242,-17.753,0.000,0.000,0.0088507,0.000,9144.000,1.295,1.429,7304.906,401.724,408.699,-30.715,7030.123,6180.510,-17.809,0.101,0.214,-0.015,-0.011,-0.022,0.000,0.000,0.000,-0.033,0.697,0.013,0.716,0.0000000,0.0000000,6190.879,0.000,0.000,0.000,0,00:00:00,1,0.000,6190.879,40867.789,-30.717,308.079,0.000,0.259,-17.860,0.054,0.000,-0.007,-0.008,0.000,0.000
76.589,2,0,-1.518,2.203,7344.901,-1.585,1.849,399.949,-0.733,1.266,-17.751,0.000,0.000,0.0085141,0.000,9144.000,1.289,1.490,7344.901,399.949,408.699,-30.715,7030.123,6180.510,-17.809,0.101,0.214,-0.015,-0.011,-0.022,0.000,0.000,0.000,-0.034,0.697,0.013,0.716,0.0000000,0.0000000,6190.879,0.000,0.000,0.000,0,00:00:00,1,0.000,6190.879,40867.789,-30.717,308.079,0.000,0.259,-17.860,0.054,0.000,-0.007,-0.008,0.000,0.000
76.690,2,0,-1.521,2.165,7384.721,-1.581,1.836,398.208,-0.765,1.000,-17.410,0.000,0.000,0.0103675,0.000,9144.000,1.284,1.550,7384.721,398.208,405.196,-31.112,7091.133,6241.521,-17.453,-0.158,0.223,-0.008,-0.025,0.034,0.000,0.000,0.000,-0.033,0.696,0.015,0.717,0.0000000,0.0000000,6251.709,0.000,0.000,0.000,0,00:00:00,1,0.000,6251.709,40519.488,-31.112,304.567,0.000,0.312,-17.514,-0.007,0.006,0.006,0.002,0.000,0.000
76.791,2,0,-1.523,2.129,7424.368,-1.581,1.825,396.467,-0.806,1.017,-17.407,0.000,0.000,0.0096993,0.000,9144.000,1.279,1.694,7424.368,396.467,405.196,-31.112,7091.133,6241.521,-17.453,-0.158,0.223,-0.008,-0.025,0.034,0.000,0.000,0.000,-0.032,0.695,0.016,0.718,0.0000000,0.0000000,6251.709,0.000,0.000,0.000,0,00:00:00,1,0.000,6251.709,40519.488,-31.112,304.567,0.000,0.312,-17.514,-0.007,0.006,0.006,0.002,0.000,0.000
76.892,2,0,-1.526,2.096,7463.845,-1.607,1.825,394.768,-1.055,1.104,-16.989,0.000,0.000,0.0091843,0.000,9144.000,1.274,1.839,7463.845,394.768,401.804,-31.499,7150.616,6301.004,-17.052,-0.035,0.432,0.001,-0.029,-0.019,0.000,0.000,0.000,-0.033,0.694,0.015,0.719,0.0000000,0.0000000,6311.847,0.000,0.000,0.000,0,00:00:00,1,0.000,6311.847,40176.652,-31.503,301.112,0.000,0.387,-17.177,-0.006,0.001,-0.000,0.008,0.000,0.000
76.993,2,0,-1.531,2.066,7503.152,-1.636,1.817,393.069,-1.093,1.003,-16.995,0.000,0.000,0.0087223,0.000,9144.000,1.269,2.004,7503.152,393.069,400.117,-31.692,7180.345,6330.733,-17.054,-0.104,0.414,0.018,-0.033,-0.015,0.000,0.000,0.000,-0.032,0.693,0.014,0.720,0.0000000,0.0000000,6341.660,0.000,0.000,0.000,0,00:00:00,1,0.000,6341.660,40006.465,-31.698,299.405,0.000,0.260,-17.083,-0.026,0.008,0.028,-0.007,0.000,0.000
77.094,2,0,-1.539,2.039,7542.292,-1.672,1.835,391.398,-1.163,1.250,-16.711,0.000,0.000,0.0083702,0.000,9144.000,1.264,2.196,7542.292,391.398,398.417,-31.887,7210.420,6360.807,-16.792,0.159,0.416,-0.000,-0.045,0.017,0.000,0.000,0.000,-0.032,0.691,0.015,0.722,0.0000000,0.0000000,6371.304,0.000,0.000,0.000,0,00:00:00,1,0.000,6371.304,39842.836,-31.886,297.712,0.000,0.400,-16.862,0.050,0.007,-0.008,-0.007,0.000,0.000
77.195,2,0,-1.548,2.016,7581.264,-1.695,1.833,389.724,-1.044,1.043,-16.736,0.000,0.000,0.0103675,0.000,9144.000,1.259,2.450,7581.264,389.724,396.790,-32.075,7239.295,6389.683,-16.798,-0.057,0.316,-0.003,0.008,0.006,0.000,0.000,0.000,-0.032,0.691,0.015,0.722,0.0000000,0.0000000,6400.781,0.000,0.000,0.000,0,00:00:00,1,0.000,6400.781,39671.723,-32.084,296.031,0.000,0.413,-16.755,0.058,-0.018,-0.001,0.005,0.000,0.000
77.296,2,0,-1.560,1.994,7620.071,-1.732,1.823,388.072,-1.181,0.952,-16.524,0.000,0.000,0.0096736,0.000,9144.000,1.254,2.404,7620.071,388.072,395.155,-32.265,7268.408,6418.796,-16.586,-0.117,0.476,0.007,0.009,-0.014,0.000,0.000,0.000,-0.032,0.692,0.015,0.721,0.0000000,0.0000000,6430.092,0.000,0.000,0.000,0,00:00:00,1,0.000,6430.092,39510.699,-32.270,294.363,0.000,0.429,-16.700,0.108,-0.009,-0.002,-0.000,0.000,0.000
77.397,2,0,-1.573,1.974,7658.716,-1.761,1.838,386.443,-1.118,1.180,-16.288,0.000,0.000,0.0090974,0.000,9144.000,1.250,2.353,7658.716,386.443,393.480,-32.459,7298.332,6448.719,-16.363,0.106,0.408,-0.010,-0.007,0.015,0.000,0.000,0.000,-0.032,0.691,0.015,0.722,0.0000000,0.0000000,6459.237,0.000,0.000,0.000,0,00:00:00,1,0.000,6459.237,39352.531,-32.454,292.707,0.000,0.307,-16.526,-0.038,-0.008,0.023,-0.007,0.000,0.000
77.498,2,0,-1.588,1.957,7697.196,-1.799,1.827,384.801,-1.214,0.924,-16.424,0.000,0.000,0.0086132,0.000,9144.000,1.245,2.389,7697.196,384.801,391.885,-32.645,7326.914,6477.301,-16.486,-0.180,0.509,-0.013,0.002,0.014,0.000,0.000,0.000,-0.032,0.692,0.016,0.721,0.0000000,0.0000000,6488.219,0.000,0.000,0.000,0,00:00:00,1,0.000,6488.219,39188.680,-32.645,291.063,0.000,0.350,-16.445,-0.076,-0.010,0.009,0.002,0.000,0.000
77.599,2,0,-1.605,1.941,7735.514,-1.818,1.843,383.179,-1.033,1.179,-16.211,0.000,0.000,0.0103675,0.000,9144.000,1.240,2.379,7735.514,383.179,390.289,-32.832,7355.619,6506.007,-16.284,0.088,0.284,0.003,-0.030,0.015,0.000,0.000,0.000,-0.031,0.690,0.017,0.722,0.0000000,0.0000000,6517.038,0.000,0.000,0.000,0,00:00:00,1,0.000,6517.038,39032.516,-32.827,289.431,0.000,0.327,-16.371,-0.029,0.004,-0.001,0.008,0.000,0.000
77.700,2,0,-1.622,1.928,7773.671,-1.857,1.863,381.578,-1.235,1.212,-16.013,0.000,0.000,0.0096460,0.000,9144.000,1.235,2.552,7773.671,381.578,388.715,-33.016,7384.036,6534.423,-16.097,0.102,0.535,-0.023,0.024,0.009,0.000,0.000,0.000,-0.032,0.691,0.018,0.722,0.0000000,0.0000000,6545.694,0.000,0.000,0.000,0,00:00:00,1,0.000,6545.694,38864.777,-33.024,287.810,0.000,0.377,-16.236,0.087,-0.001,0.004,0.007,0.000,0.000
77.801,2,0,-1.641,1.918,7811.670,-1.870,1.857,379.987,-0.991,0.946,-15.915,0.000,0.000,0.0090552,0.000,9144.000,1.231,2.410,7811.670,379.987,387.157,-33.200,7412.233,6562.621,-15.971,-0.139,0.288,0.016,-0.009,0.026,0.000,0.000,0.000,-0.030,0.691,0.018,0.722,0.0000000,0.0000000,6574.191,0.000,0.000,0.000,0,00:00:00,1,0.000,6574.191,38712.234,-33.204,286.201,0.000,0.339,-16.122,0.036,-0.008,0.003,0.007,0.000,0.000
77.902,2,0,-1.659,1.909,7849.510,-1.907,1.881,378.402,-1.242,1.244,-15.850,0.000,0.000,0.0085612,0.000,9144.000,1.226,2.465,7849.510,378.402,385.603,-33.383,7440.455,6590.843,-15.937,0.141,0.531,-0.017,-0.002,-0.025,0.000,0.000,0.000,-0.032,0.691,0.018,0.722,0.0000000,0.0000000,6602.529,0.000,0.000,0.000,0,00:00:00,1,0.000,6602.529,38558.391,-33.386,284.603,0.000,0.392,-16.017,0.001,-0.004,-0.008,0.001,0.000,0.000
78.003,2,0,-1.680,1.901,7887.192,-1.939,1.870,376.817,-1.201,0.896,-15.848,0.000,0.000,0.0103675,0.000,9144.000,1.221,2.473,7887.192,376.817,384.059,-33.566,7468.591,6618.979,-15.910,-0.198,0.469,0.005,-0.017,-0.016,0.000,0.000,0.000,-0.032,0.690,0.017,0.723,0.0000000,0.0000000,6630.708,0.000,0.000,0.000,0,00:00:00,1,0.000,6630.708,38404.242,-33.568,283.016,0.000,0.389,-15.931,0.010,0.008,0.005,-0.001,0.000,0.000
78.104,2,0,-1.700,1.894,7924.716,-1.957,1.864,375.238,-1.076,0.933,-15.787,0.000,0.000,0.0096373,0.000,9144.000,1.217,2.571,7924.716,375.238,382.523,-33.749,7496.679,6647.067,-15.847,-0.133,0.337,0.018,-0.006,0.019,0.000,0.000,0.000,-0.031,0.690,0.017,0.723,0.0000000,0.0000000,6658.729,0.000,0.000,0.000,0,00:00:00,1,0.000,6658.729,38251.441,-33.750,281.440,0.000,0.420,-15.756,0.084,-0.001,0.019,0.008,0.000,0.000
78.205,2,0,-1.721,1.886,7962.084,-1.987,1.852,373.683,-1.201,0.870,-15.549,0.000,0.000,0.0090537,0.000,9144.000,1.212,2.607,7962.084,373.683,381.024,-33.928,7524.166,6674.553,-15.613,-0.131,0.433,0.029,-0.026,-0.011,0.000,0.000,0.000,-0.030,0.689,0.016,0.724,0.0000000,0.0000000,6686.595,0.000,0.000,0.000,0,00:00:00,1,0.000,6686.595,38104.332,-33.925,279.874,0.000,0.419,-15.729,0.064,-0.005,0.005,0.002,0.000,0.000
78.306,2,0,-1.742,1.879,7999.296,-2.005,1.857,372.118,-1.092,1.035,-15.650,0.000,0.000,0.0085559,0.000,9144.000,1.207,2.757,7999.296,372.118,379.518,-34.108,7551.876,6702.263,-15.719,0.026,0.335,0.001,0.013,0.001,0.000,0.000,0.000,-0.030,0.690,0.016,0.723,0.0000000,0.0000000,6714.306,0.000,0.000,0.000,0,00:00:00,1,0.000,6714.306,37949.098,-34.111,278.318,0.000,0.361,-15.613,-0.024,0.013,0.016,0.001,0.000,0.000
78.407,2,0,-1.763,1.872,8036.352,-2.009,1.849,370.565,-0.963,0.912,-15.527,0.000,0.000,0.0103675,0.000,9144.000,1.203,2.684,8036.352,370.565,378.015,-34.288,7579.632,6730.020,-15.582,-0.043,0.173,0.031,-0.026,0.001,0.000,0.000,0.000,-0.029,0.689,0.015,0.724,0.0000000,0.0000000,6741.862,0.000,0.000,0.000,0,00:00:00,1,0.000,6741.862,37800.227,-34.290,276.772,0.000,0.374,-15.528,-0.010,0.009,0.008,0.002,0.000,0.000
78.508,2,0,-1.782,1.865,8073.256,-2.035,1.842,369.040,-1.203,0.912,-15.253,0.000,0.000,0.0096274,0.000,9144.000,1.198,2.840,8073.256,369.040,376.538,-34.466,7606.968,6757.355,-15.323,-0.017,0.360,0.005,-0.043,0.001,0.000,0.000,0.000,-0.029,0.687,0.015,0.726,0.0000000,0.0000000,6769.265,0.000,0.000,0.000,0,00:00:00,1,0.000,6769.265,37654.551,-34.465,275.236,0.000,0.282,-15.434,0.000,0.004,0.003,0.004,0.000,0.000
78.609,2,0,-1.802,1.858,8110.008,-2.054,1.834,367.520,-1.131,0.893,-15.202,0.000,0.000,0.0090015,0.000,9144.000,1.194,3.088,8110.008,367.520,375.090,-34.641,7633.870,6784.257,-15.267,-0.029,0.290,0.001,0.001,-0.029,0.000,0.000,0.000,-0.030,0.687,0.014,0.726,0.0000000,0.0000000,6796.516,0.000,0.000,0.000,0,00:00:00,1,0.000,6796.516,37504.703,-34.646,273.710,0.000,0.339,-15.284,-0.016,0.019,0.018,-0.016,0.000,0.000
78.710,2,0,-1.822,1.852,8146.609,-2.082,1.835,366.002,-1.240,0.988,-15.185,0.000,0.000,0.0085016,0.000,9144.000,1.189,3.083,8146.609,366.002,373.616,-34.820,7661.347,6811.734,-15.260,0.081,0.459,0.007,0.041,-0.007,0.000,0.000,0.000,-0.030,0.689,0.013,0.724,0.0000000,0.0000000,6823.615,0.000,0.000,0.000,0,00:00:00,1,0.000,6823.615,37362.078,-34.819,272.193,0.000,0.372,-15.281,-0.003,-0.001,0.001,-0.001,0.000,0.000
78.811,2,0,-1.842,1.845,8183.056,-2.099,1.826,364.478,-1.129,0.881,-15.234,0.000,0.000,0.0103675,0.000,9144.000,1.185,2.850,8183.056,364.478,372.180,-34.994,7688.188,6838.575,-15.295,-0.050,0.433,-0.013,0.054,0.018,0.000,0.000,0.000,-0.029,0.691,0.014,0.722,0.0000000,0.0000000,6850.563,0.000,0.000,0.000,0,00:00:00,1,0.000,6850.563,37218.141,-34.994,270.685,0.000,0.336,-15.117,0.021,-0.007,0.007,0.001,0.000,0.000
78.912,2,0,-1.862,1.839,8219.356,-2.099,1.808,362.996,-0.984,0.786,-14.819,0.000,0.000,0.0096344,0.000,9144.000,1.180,2.539,8219.356,362.996,370.764,-35.167,7714.735,6865.123,-14.870,-0.109,0.248,0.011,-0.042,0.023,0.000,0.000,0.000,-0.028,0.689,0.015,0.724,0.0000000,0.0000000,6877.363,0.000,0.000,0.000,0,00:00:00,1,0.000,6877.363,37078.574,-35.164,269.186,0.000,0.319,-14.968,0.112,0.003,0.001,0.006,0.000,0.000
79.013,2,0,-1.880,1.831,8255.507,-2.111,1.792,361.515,-1.109,0.803,-14.814,0.000,0.000,0.0089571,0.000,9144.000,1.176,2.780,8255.507,361.515,369.347,-35.340,7741.390,6891.778,-14.871,-0.029,0.427,0.037,0.039,-0.034,0.000,0.000,0.000,-0.028,0.691,0.012,0.723,0.0000000,0.0000000,6904.013,0.000,0.000,0.000,0,00:00:00,1,0.000,6904.013,36935.020,-35.340,267.696,0.000,0.381,-14.860,-0.048,-0.011,-0.008,-0.016,0.000,0.000
79.114,2,0,-1.897,1.822,8291.510,-2.130,1.771,360.026,-1.180,0.753,-14.883,0.000,0.000,0.0084365,0.000,9144.000,1.172,2.559,8291.510,360.026,367.949,-35.512,7767.762,6918.149,-14.941,-0.128,0.466,-0.030,-0.021,0.005,0.000,0.000,0.000,-0.029,0.690,0.014,0.723,0.0000000,0.0000000,6930.516,0.000,0.000,0.000,0,00:00:00,1,0.000,6930.516,36795.723,-35.511,266.215,0.000,0.218,-14.752,0.027,0.004,0.009,-0.000,0.000,0.000
79.215,2,0,-1.913,1.813,8327.365,-2.115,1.767,358.550,-0.863,0.910,-14.761,0.000,0.000,0.0103675,0.000,9144.000,1.167,2.676,8327.365,358.550,366.560,-35.683,7794.044,6944.431,-14.813,0.018,0.172,-0.008,0.014,0.004,0.000,0.000,0.000,-0.029,0.690,0.014,0.723,0.0000000,0.0000000,6956.872,0.000,0.000,0.000,0,00:00:00,1,0.000,6956.872,36657.488,-35.681,264.742,0.000,0.266,-14.730,0.064,-0.011,-0.003,0.000,0.000,0.000
79.316,2,0,-1.927,1.804,8363.074,-2.106,1.749,357.091,-0.923,0.775,-14.592,0.000,0.000,0.0095767,0.000,9144.000,1.163,2.597,8363.074,357.091,365.177,-35.853,7820.306,6970.694,-14.639,-0.127,0.270,-0.015,0.018,0.004,0.000,0.000,0.000,-0.030,0.691,0.015,0.722,0.0000000,0.0000000,6983.082,0.000,0.000,0.000,0,00:00:00,1,0.000,6983.082,36519.809,-35.851,263.278,0.000,0.323,-14.628,-0.017,-0.010,0.003,-0.005,0.000,0.000
79.417,2,0,-1.938,1.794,8398.637,-2.094,1.735,355.632,-0.896,0.798,-14.593,0.000,0.000,0.0089153,0.000,9144.000,1.159,2.490,8398.637,355.632,365.177,-35.853,7820.306,6970.694,-14.639,-0.127,0.270,-0.015,0.018,0.004,0.000,0.000,0.000,-0.030,0.692,0.015,0.721,0.0000000,0.0000000,6983.082,0.000,0.000,0.000,0,00:00:00,1,0.000,6983.082,36519.809,-35.851,263.278,0.000,0.323,-14.628,-0.017,-0.010,0.003,-0.005,0.000,0.000
79.518,2,0,-1.947,1.784,8434.055,-2.078,1.723,354.173,-0.869,0.821,-14.593,0.000,0.000,0.0084016,0.000,9144.000,1.154,2.382,8434.055,354.173,365.177,-35.853,7820.306,6970.694,-14.639,-0.127,0.270,-0.015,0.018,0.004,0.000,0.000,0.000,-0.030,0.692,0.016,0.721,0.0000000,0.0000000,6983.082,0.000,0.000,0.000,0,00:00:00,1,0.000,6983.082,36519.809,-35.851,263.278,0.000,0.323,-14.628,-0.017,-0.010,0.003,-0.005,0.000,0.000
79.619,2,0,-1.955,1.774,8469.328,-2.086,1.720,352.738,-1.111,0.905,-14.344,0.000,0.000,0.0103675,0.000,9144.000,1.149,2.275,8469.328,352.738,361.130,-36.356,7897.591,7047.979,-14.407,-0.002,0.494,0.014,-0.018,-0.003,0.000,0.000,0.000,-0.030,0.692,0.015,0.721,0.0000000,0.0000000,7060.841,0.000,0.000,0.000,0,00:00:00,1,0.000,7060.841,36112.742,-36.356,258.934,0.000,0.354,-14.379,0.034,0.011,0.003,-0.000,0.000,0.000
79.720,2,0,-1.963,1.764,8504.459,-2.102,1.714,351.310,-1.193,0.870,-14.285,0.000,0.000,0.0095487,0.000,9144.000,1.146,2.380,8504.459,351.310,359.795,-36.523,7923.240,7073.628,-14.350,-0.057,0.558,-0.017,-0.016,0.008,0.000,0.000,0.000,-0.030,0.691,0.016,0.722,0.0000000,0.0000000,7086.474,0.000,0.000,0.000,0,00:00:00,1,0.000,7086.474,35979.477,-36.523,257.501,0.000,0.364,-14.396,-0.080,-0.003,0.002,-0.004,0.000,0.000
79.821,2,0,-1.970,1.756,8539.448,-2.084,1.716,349.886,-0.852,0.939,-14.234,0.000,0.000,0.0088977,0.000,9144.000,1.141,2.468,8539.448,349.886,358.478,-36.688,7948.619,7099.007,-14.289,0.029,0.209,0.014,-0.006,-0.002,0.000,0.000,0.000,-0.030,0.691,0.016,0.722,0.0000000,0.0000000,7111.965,0.000,0.000,0.000,0,00:00:00,1,0.000,7111.965,35845.191,-36.691,256.077,0.000,0.341,-14.362,0.078,0.008,-0.005,0.010,0.000,0.000
79.922,2,0,-1.976,1.748,8574.294,-2.089,1.723,348.458,-1.093,0.991,-14.288,0.000,0.000,0.0083627,0.000,9144.000,1.137,2.504,8574.294,348.458,357.160,-36.854,7974.108,7124.495,-14.358,0.124,0.424,0.028,-0.013,-0.033,0.000,0.000,0.000,-0.030,0.690,0.014,0.723,0.0000000,0.0000000,7137.314,0.000,0.000,0.000,0,00:00:00,1,0.000,7137.314,35718.672,-36.850,254.659,0.000,0.346,-14.076,-0.014,-0.006,0.012,-0.005,0.000,0.000
80.023,2,0,-1.982,1.741,8608.998,-2.086,1.700,347.037,-1.014,0.684,-14.209,0.000,0.000,0.0103675,0.000,9144.000,1.133,2.580,8608.998,347.037,355.850,-37.019,7999.504,7149.892,-14.256,-0.200,0.350,-0.014,-0.005,0.009,0.000,0.000,0.000,-0.030,0.690,0.014,0.723,0.0000000,0.0000000,7162.522,0.000,0.000,0.000,0,00:00:00,1,0.000,7162.522,35586.121,-37.017,253.249,0.000,0.428,-14.130,0.038,0.006,-0.011,0.000,0.000,0.000
80.124,2,0,-1.986,1.733,8643.561,-2.072,1.705,345.632,-0.901,0.961,-14.044,0.000,0.000,0.0095596,0.000,9144.000,1.129,2.607,8643.561,345.632,354.572,-37.180,8024.345,7174.732,-14.103,0.116,0.229,0.022,-0.005,-0.014,0.000,0.000,0.000,-0.030,0.690,0.013,0.723,0.0000000,0.0000000,7187.590,0.000,0.000,0.000,0,00:00:00,1,0.000,7187.590,35455.863,-37.182,251.847,0.000,0.314,-14.147,-0.066,-0.004,-0.015,0.012,0.000,0.000
80.225,2,0,-1.990,1.725,8677.984,-2.072,1.677,344.236,-1.051,0.637,-13.961,0.000,0.000,0.0088919,0.000,9144.000,1.124,2.640,8677.984,344.236,353.294,-37.342,8049.274,7199.662,-14.007,-0.198,0.407,0.003,0.011,0.027,0.000,0.000,0.000,-0.029,0.690,0.014,0.723,0.0000000,0.0000000,7212.520,0.000,0.000,0.000,0,00:00:00,1,0.000,7212.520,35331.539,-37.340,250.451,0.000,0.446,-14.027,-0.070,0.010,-0.010,0.005,0.000,0.000
80.326,2,0,-1.992,1.717,8712.267,-2.053,1.690,342.829,-0.852,1.030,-14.076,0.000,0.000,0.0083430,0.000,9144.000,1.120,2.578,8712.267,342.829,352.045,-37.501,8073.688,7224.075,-14.136,0.221,0.184,0.027,-0.006,-0.005,0.000,0.000,0.000,-0.028,0.690,0.013,0.723,0.0000000,0.0000000,7237.310,0.000,0.000,0.000,0,00:00:00,1,0.000,7237.310,35205.125,-37.500,249.062,0.000,0.327,-13.959,-0.090,-0.001,0.006,0.009,0.000,0.000
80.427,2,0,-1.993,1.710,8746.412,-2.054,1.678,341.443,-1.065,0.777,-13.855,0.000,0.000,0.0103675,0.000,9144.000,1.116,2.618,8746.412,341.443,350.789,-37.661,8098.327,7248.715,-13.912,-0.024,0.394,-0.010,-0.012,-0.039,0.000,0.000,0.000,-0.030,0.690,0.012,0.723,0.0000000,0.0000000,7261.961,0.000,0.000,0.000,0,00:00:00,1,0.000,7261.961,35076.906,-37.664,247.680,0.000,0.264,-13.843,-0.026,0.020,0.003,-0.004,0.000,0.000
80.528,2,0,-1.992,1.703,8780.419,-2.029,1.667,340.070,-0.797,0.786,-13.730,0.000,0.000,0.0095325,0.000,9144.000,1.112,2.685,8780.419,340.070,349.554,-37.819,8122.619,7273.007,-13.774,0.031,0.181,0.031,0.036,0.006,0.000,0.000,0.000,-0.029,0.691,0.011,0.722,0.0000000,0.0000000,7286.477,0.000,0.000,0.000,0,00:00:00,1,0.000,7286.477,34958.199,-37.816,246.305,0.000,0.272,-13.750,-0.055,-0.011,0.002,-0.003,0.000,0.000
80.629,2,0,-1.990,1.695,8814.290,-2.011,1.659,338.718,-0.863,0.818,-13.525,0.000,0.000,0.0088271,0.000,9144.000,1.108,2.481,8814.290,338.718,348.311,-37.979,8147.133,7297.521,-13.574,0.062,0.281,-0.009,0.017,0.038,0.000,0.000,0.000,-0.028,0.692,0.013,0.722,0.0000000,0.0000000,7310.854,0.000,0.000,0.000,0,00:00:00,1,0.000,7310.854,34834.738,-37.974,244.936,0.000,0.329,-13.662,0.026,0.009,0.002,-0.027,0.000,0.000
80.730,2,0,-1.987,1.687,8848.024,-1.993,1.641,337.340,-0.870,0.706,-13.773,0.000,0.000,0.0103675,0.000,9144.000,1.104,2.385,8848.024,337.340,347.099,-38.135,8171.113,7321.501,-13.816,-0.024,0.261,0.027,-0.011,-0.033,0.000,0.000,0.000,-0.028,0.691,0.010,0.722,0.0000000,0.0000000,7335.096,0.000,0.000,0.000,0,00:00:00,1,0.000,7335.096,34708.410,-38.137,243.574,0.000,0.372,-13.598,0.007,0.004,0.003,-0.002,0.000,0.000
80.831,2,0,-1.982,1.678,8881.621,-1.977,1.619,335.963,-0.888,0.666,-13.774,0.000,0.000,0.0095370,0.000,9144.000,1.100,2.454,8881.621,335.963,347.099,-38.135,8171.113,7321.501,-13.816,-0.024,0.261,0.027,-0.011,-0.033,0.000,0.000,0.000,-0.028,0.691,0.008,0.722,0.0000000,0.0000000,7335.096,0.000,0.000,0.000,0,00:00:00,1,0.000,7335.096,34708.410,-38.137,243.574,0.000,0.372,-13.598,0.007,0.004,0.003,-0.002,0.000,0.000
80.932,2,0,-1.976,1.667,8915.082,-1.962,1.589,334.616,-0.893,0.575,-13.472,0.000,0.000,0.0088872,0.000,9144.000,1.095,2.523,8915.082,334.616,344.703,-38.444,8218.717,7369.105,-13.511,-0.080,0.272,0.013,-0.007,-0.014,0.000,0.000,0.000,-0.028,0.691,0.007,0.723,0.0000000,0.0000000,7383.174,0.000,0.000,0.000,0,00:00:00,1,0.000,7383.174,34469.555,-38.445,240.868,0.000,0.401,-13.564,0.106,-0.007,-0.007,-0.002,0.000,0.000
81.033,2,0,-1.970,1.655,8948.410,-1.959,1.571,333.278,-1.003,0.694,-13.380,0.000,0.000,0.0103675,0.000,9144.000,1.092,2.564,8948.410,333.278,343.505,-38.600,8242.610,7392.998,-13.429,0.034,0.416,-0.009,0.025,0.007,0.000,0.000,0.000,-0.028,0.691,0.008,0.722,0.0000000,0.0000000,7407.012,0.000,0.000,0.000,0,00:00:00,1,0.000,7407.012,34350.902,-38.599,239.524,0.000,0.394,-13.489,0.011,-0.008,-0.003,0.006,0.000,0.000
81.134,2,0,-1.964,1.643,8981.603,-1.952,1.549,331.934,-0.960,0.646,-13.437,0.000,0.000,0.0094747,0.000,9144.000,1.088,2.420,8981.603,331.934,342.314,-38.755,8266.446,7416.833,-13.481,-0.035,0.405,-0.012,0.022,0.026,0.000,0.000,0.000,-0.028,0.692,0.009,0.721,0.0000000,0.0000000,7430.715,0.000,0.000,0.000,0,00:00:00,1,0.000,7430.715,34230.633,-38.756,238.187,0.000,0.422,-13.436,0.034,-0.000,0.008,-0.015,0.000,0.000
81.235,2,0,-1.958,1.630,9014.664,-1.941,1.550,330.606,-0.918,0.866,-13.285,0.000,0.000,0.0087859,0.000,9144.000,1.084,2.290,9014.664,330.606,341.135,-38.908,8290.090,7440.478,-13.338,0.160,0.399,-0.026,0.027,-0.013,0.000,0.000,0.000,-0.029,0.693,0.010,0.720,0.0000000,0.0000000,7454.286,0.000,0.000,0.000,0,00:00:00,1,0.000,7454.286,34113.203,-38.909,236.855,0.000,0.285,-13.388,0.009,0.001,0.014,0.007,0.000,0.000
81.336,2,0,-1.951,1.618,9047.591,-1.930,1.529,329.266,-0.923,0.649,-13.397,0.000,0.000,0.0103675,0.000,9144.000,1.080,2.130,9047.591,329.266,339.975,-39.060,8313.434,7463.822,-13.440,-0.043,0.347,0.016,-0.043,-0.007,0.000,0.000,0.000,-0.029,0.692,0.009,0.722,0.0000000,0.0000000,7477.725,0.000,0.000,0.000,0,00:00:00,1,0.000,7477.725,33998.500,-39.059,235.529,0.000,0.364,-13.307,-0.052,-0.006,-0.012,-0.014,0.000,0.000
81.437,2,0,-1.944,1.605,9080.387,-1.904,1.510,327.965,-0.760,0.653,-13.004,0.000,0.000,0.0095144,0.000,9144.000,1.076,2.379,9080.387,327.965,338.823,-39.211,8336.667,7487.055,-13.041,-0.061,0.225,-0.030,0.019,-0.010,0.000,0.000,0.000,-0.030,0.692,0.009,0.721,0.0000000,0.0000000,7501.031,0.000,0.000,0.000,0,00:00:00,1,0.000,7501.031,33881.047,-39.213,234.209,0.000,0.386,-13.172,0.032,0.017,0.004,0.003,0.000,0.000
81.538,2,0,-1.935,1.592,9113.051,-1.886,1.492,326.642,-0.844,0.656,-13.231,0.000,0.000,0.0087108,0.000,9144.000,1.072,2.264,9113.051,326.642,337.684,-39.361,8359.721,7510.109,-13.269,-0.031,0.333,0.028,0.025,0.019,0.000,0.000,0.000,-0.028,0.693,0.009,0.720,0.0000000,0.0000000,7524.206,0.000,0.000,0.000,0,00:00:00,1,0.000,7524.206,33771.816,-39.357,232.894,0.000,0.371,-13.211,-0.020,-0.010,-0.001,0.005,0.000,0.000
81.639,2,0,-1.924,1.578,9145.585,-1.857,1.466,325.341,-0.726,0.579,-13.016,0.000,0.000,0.0103675,0.000,9144.000,1.068,2.127,9145.585,325.341,336.547,-39.511,8382.779,7533.166,-13.047,-0.134,0.229,-0.026,0.001,0.017,0.000,0.000,0.000,-0.029,0.693,0.011,0.720,0.0000000,0.0000000,7547.250,0.000,0.000,0.000,0,00:00:00,1,0.000,7547.250,33652.770,-39.514,231.585,0.000,0.302,-13.110,-0.013,0.000,0.000,-0.004,0.000,0.000
81.740,2,0,-1.913,1.564,9177.991,-1.845,1.461,324.058,-0.883,0.764,-12.829,0.000,0.000,0.0094168,0.000,9144.000,1.064,2.114,9177.991,324.058,335.424,-39.660,8405.628,7556.015,-12.876,0.062,0.396,-0.002,0.005,0.009,0.000,0.000,0.000,-0.028,0.694,0.011,0.720,0.0000000,0.0000000,7570.163,0.000,0.000,0.000,0,00:00:00,1,0.000,7570.163,33542.551,-39.659,230.282,0.000,0.380,-13.003,-0.001,-0.001,-0.003,0.008,0.000,0.000
81.841,2,0,-1.902,1.550,9210.269,-1.832,1.456,322.775,-0.875,0.767,-12.829,0.000,0.000,0.0086351,0.000,9144.000,1.060,2.083,9210.269,322.775,335.424,-39.660,8405.628,7556.015,-12.876,0.062,0.396,-0.002,0.005,0.009,0.000,0.000,0.000,-0.028,0.694,0.011,0.720,0.0000000,0.0000000,7570.163,0.000,0.000,0.000,0,00:00:00,1,0.000,7570.163,33542.551,-39.659,230.282,0.000,0.380,-13.003,-0.001,-0.001,-0.003,0.008,0.000,0.000
81.942,2,0,-1.890,1.538,9242.416,-1.804,1.449,321.475,-0.714,0.741,-13.003,0.000,0.000,0.0103675,0.000,9144.000,1.056,2.052,9242.416,321.475,333.209,-39.954,8450.858,7601.246,-13.041,0.019,0.279,-0.003,0.037,0.016,0.000,0.000,0.000,-0.028,0.695,0.012,0.718,0.0000000,0.0000000,7615.602,0.000,0.000,0.000,0,00:00:00,1,0.000,7615.602,33321.523,-39.953,227.690,0.000,0.444,-12.923,-0.145,-0.006,-0.008,0.015,0.000,0.000
82.043,2,0,-1.877,1.527,9274.436,-1.787,1.458,320.197,-0.817,0.891,-12.778,0.000,0.000,0.0094633,0.000,9144.000,1.052,1.837,9274.436,320.197,332.117,-40.099,8473.254,7623.642,-12.828,0.157,0.377,-0.021,-0.008,-0.005,0.000,0.000,0.000,-0.029,0.695,0.013,0.718,0.0000000,0.0000000,7638.128,0.000,0.000,0.000,0,00:00:00,1,0.000,7638.128,33209.984,-40.102,226.402,0.000,0.351,-12.863,0.025,0.010,0.028,0.001,0.000,0.000
82.144,2,0,-1.863,1.516,9306.329,-1.768,1.452,318.931,-0.791,0.743,-12.655,0.000,0.000,0.0087010,0.000,9144.000,1.048,1.878,9306.329,318.931,331.031,-40.245,8495.575,7645.963,-12.697,0.032,0.363,0.013,0.004,0.003,0.000,0.000,0.000,-0.028,0.695,0.012,0.718,0.0000000,0.0000000,7660.525,0.000,0.000,0.000,0,00:00:00,1,0.000,7660.525,33096.113,-40.254,225.119,0.000,0.259,-12.807,0.073,-0.007,0.003,-0.019,0.000,0.000
82.245,2,0,-1.849,1.507,9338.093,-1.747,1.449,317.643,-0.773,0.758,-12.886,0.000,0.000,0.0103675,0.000,9144.000,1.044,1.858,9338.093,317.643,329.956,-40.389,8517.738,7668.126,-12.928,0.029,0.298,-0.002,-0.031,0.013,0.000,0.000,0.000,-0.028,0.694,0.013,0.719,0.0000000,0.0000000,7682.795,0.000,0.000,0.000,0,00:00:00,1,0.000,7682.795,32997.449,-40.386,223.841,0.000,0.325,-12.884,-0.023,0.007,0.007,-0.013,0.000,0.000
82.346,2,0,-1.835,1.498,9369.729,-1.737,1.456,316.361,-0.857,0.854,-12.819,0.000,0.000,0.0094719,0.000,9144.000,1.041,2.034,9369.729,316.361,328.883,-40.533,8539.909,7690.297,-12.871,0.116,0.345,-0.009,-0.031,0.029,0.000,0.000,0.000,-0.027,0.693,0.014,0.720,0.0000000,0.0000000,7704.938,0.000,0.000,0.000,0,00:00:00,1,0.000,7704.938,32886.188,-40.536,222.568,0.000,0.328,-12.698,-0.053,0.006,0.000,-0.004,0.000,0.000
82.447,2,0,-1.821,1.491,9401.238,-1.722,1.456,315.091,-0.817,0.791,-12.701,0.000,0.000,0.0087629,0.000,9144.000,1.037,2.214,9401.238,315.091,327.831,-40.675,8561.713,7712.101,-12.748,0.079,0.318,0.019,0.003,0.038,0.000,0.000,0.000,-0.025,0.693,0.015,0.720,0.0000000,0.0000000,7726.954,0.000,0.000,0.000,0,00:00:00,1,0.000,7726.954,32783.352,-40.674,221.300,0.000,0.320,-12.713,0.035,-0.000,-0.011,0.005,0.000,0.000
82.548,2,0,-1.808,1.484,9432.622,-1.727,1.447,313.832,-0.993,0.689,-12.583,0.000,0.000,0.0103675,0.000,9144.000,1.033,2.196,9432.622,313.832,326.770,-40.818,8583.745,7734.132,-12.630,0.005,0.524,0.010,0.023,-0.052,0.000,0.000,0.000,-0.027,0.694,0.013,0.720,0.0000000,0.0000000,7748.843,0.000,0.000,0.000,0,00:00:00,1,0.000,7748.843,32675.984,-40.819,220.037,0.000,0.373,-12.604,0.003,0.008,-0.030,-0.007,0.000,0.000
82.649,2,0,-1.796,1.476,9463.879,-1.714,1.419,312.577,-0.823,0.496,-12.552,0.000,0.000,0.0094261,0.000,9144.000,1.029,2.067,9463.879,312.577,325.736,-40.958,8605.290,7755.677,-12.581,-0.165,0.403,0.017,0.036,-0.017,0.000,0.000,0.000,-0.026,0.695,0.011,0.718,0.0000000,0.0000000,7770.607,0.000,0.000,0.000,0,00:00:00,1,0.000,7770.607,32572.873,-40.959,218.778,0.000,0.376,-12.629,0.018,-0.007,0.008,0.011,0.000,0.000
82.750,2,0,-1.783,1.467,9495.012,-1.685,1.408,311.329,-0.650,0.661,-12.484,0.000,0.000,0.0086411,0.000,9144.000,1.025,1.864,9495.012,311.329,324.698,-41.099,8626.962,7777.350,-12.516,0.004,0.234,0.003,0.004,0.001,0.000,0.000,0.000,-0.026,0.695,0.011,0.718,0.0000000,0.0000000,7792.245,0.000,0.000,0.000,0,00:00:00,1,0.000,7792.245,32468.977,-41.100,217.523,0.000,0.339,-12.546,-0.017,-0.011,0.002,0.015,0.000,0.000
82.851,2,0,-1.769,1.457,9526.020,-1.673,1.395,310.075,-0.806,0.638,-12.537,0.000,0.000,0.0103675,0.000,9144.000,1.021,1.842,9526.020,310.075,323.677,-41.238,8648.327,7798.715,-12.573,-0.054,0.384,-0.026,-0.005,0.025,0.000,0.000,0.000,-0.026,0.695,0.013,0.718,0.0000000,0.0000000,7813.758,0.000,0.000,0.000,0,00:00:00,1,0.000,7813.758,32366.818,-41.239,216.274,0.000,0.328,-12.544,-0.082,-0.011,-0.015,-0.007,0.000,0.000
82.952,2,0,-1.755,1.447,9556.903,-1.639,1.380,308.836,-0.591,0.617,-12.389,0.000,0.000,0.0094240,0.000,9144.000,1.018,1.868,9556.903,308.836,322.644,-41.379,8670.011,7820.399,-12.417,-0.087,0.199,-0.014,0.020,-0.011,0.000,0.000,0.000,-0.027,0.696,0.013,0.718,0.0000000,0.0000000,7835.147,0.000,0.000,0.000,0,00:00:00,1,0.000,7835.147,32263.535,-41.380,215.028,0.000,0.356,-12.425,-0.004,-0.010,0.006,-0.021,0.000,0.000
83.053,2,0,-1.739,1.437,9587.664,-1.618,1.360,307.606,-0.701,0.561,-12.307,0.000,0.000,0.0086053,0.000,9144.000,1.014,1.752,9587.664,307.606,321.653,-41.515,8690.877,7841.265,-12.335,-0.135,0.308,0.000,-0.003,-0.016,0.000,0.000,0.000,-0.028,0.696,0.013,0.718,0.0000000,0.0000000,7856.411,0.000,0.000,0.000,0,00:00:00,1,0.000,7856.411,32166.830,-41.512,213.787,0.000,0.279,-12.453,-0.015,0.005,-0.003,-0.016,0.000,0.000
83.154,2,0,-1.723,1.427,9618.301,-1.591,1.380,306.376,-0.638,0.949,-12.300,0.000,0.000,0.0103675,0.000,9144.000,1.010,1.768,9618.301,306.376,320.656,-41.651,8711.901,7862.289,-12.347,0.265,0.264,0.009,0.022,-0.004,0.000,0.000,0.000,-0.028,0.696,0.012,0.717,0.0000000,0.0000000,7877.552,0.000,0.000,0.000,0,00:00:00,1,0.000,7877.552,32066.658,-41.650,212.551,0.000,0.406,-12.354,-0.046,0.023,-0.021,-0.001,0.000,0.000
83.255,2,0,-1.705,1.419,9648.816,-1.567,1.368,305.143,-0.666,0.622,-12.330,0.000,0.000,0.0093947,0.000,9144.000,1.006,1.641,9648.816,305.143,319.658,-41.789,8733.027,7883.415,-12.361,-0.053,0.263,0.006,-0.025,-0.050,0.000,0.000,0.000,-0.029,0.695,0.010,0.718,0.0000000,0.0000000,7898.570,0.000,0.000,0.000,0,00:00:00,1,0.000,7898.570,31963.598,-41.792,211.318,0.000,0.337,-12.323,0.030,-0.012,0.006,0.006,0.000,0.000
83.356,2,0,-1.688,1.411,9679.207,-1.546,1.359,303.916,-0.678,0.655,-12.266,0.000,0.000,0.0086050,0.000,9144.000,1.003,1.788,9679.207,303.916,318.681,-41.923,8753.729,7904.116,-12.301,-0.004,0.213,0.009,-0.050,-0.041,0.000,0.000,0.000,-0.030,0.694,0.008,0.720,0.0000000,0.0000000,7919.464,0.000,0.000,0.000,0,00:00:00,1,0.000,7919.464,31867.633,-41.924,210.090,0.000,0.342,-12.341,0.061,-0.001,-0.007,0.002,0.000,0.000
83.457,2,0,-1.670,1.402,9709.478,-1.530,1.345,302.704,-0.722,0.598,-12.122,0.000,0.000,0.0103675,0.000,9144.000,0.999,2.073,9709.478,302.704,317.718,-42.056,8774.194,7924.582,-12.155,-0.048,0.268,0.005,0.002,0.034,0.000,0.000,0.000,-0.029,0.694,0.009,0.720,0.0000000,0.0000000,7940.236,0.000,0.000,0.000,0,00:00:00,1,0.000,7940.236,31770.510,-42.058,208.865,0.000,0.398,-12.225,-0.021,-0.005,0.003,0.000,0.000,0.000
83.558,2,0,-1.653,1.393,9739.627,-1.515,1.331,301.492,-0.717,0.595,-12.122,0.000,0.000,0.0093323,0.000,9144.000,0.995,2.061,9739.627,301.492,317.718,-42.056,8774.194,7924.582,-12.155,-0.048,0.268,0.005,0.002,0.034,0.000,0.000,0.000,-0.028,0.694,0.011,0.720,0.0000000,0.0000000,7940.236,0.000,0.000,0.000,0,00:00:00,1,0.000,7940.236,31770.510,-42.058,208.865,0.000,0.398,-12.225,-0.021,-0.005,0.003,0.000,0.000,0.000
83.659,2,0,-1.636,1.385,9769.655,-1.507,1.356,300.280,-0.782,0.969,-12.112,0.000,0.000,0.0085156,0.000,9144.000,0.991,2.050,9769.655,300.280,315.797,-42.323,8815.185,7965.572,-12.169,0.310,0.289,-0.015,-0.028,-0.008,0.000,0.000,0.000,-0.028,0.693,0.011,0.721,0.0000000,0.0000000,7981.415,0.000,0.000,0.000,0,00:00:00,1,0.000,7981.415,31584.941,-42.316,206.429,0.000,0.327,-12.168,0.072,-0.002,-0.007,0.014,0.000,0.000
83.760,2,0,-1.620,1.379,9799.563,-1.510,1.353,299.081,-0.877,0.699,-11.988,0.000,0.000,0.0103675,0.000,9144.000,0.988,2.207,9799.563,299.081,314.841,-42.456,8835.646,7986.033,-12.033,0.076,0.405,0.021,0.009,-0.007,0.000,0.000,0.000,-0.028,0.693,0.010,0.720,0.0000000,0.0000000,8001.822,0.000,0.000,0.000,0,00:00:00,1,0.000,8001.822,31482.051,-42.459,205.217,0.000,0.349,-12.224,0.006,0.008,-0.002,0.002,0.000,0.000
83.861,2,0,-1.606,1.374,9829.352,-1.493,1.362,297.889,-0.675,0.816,-11.921,0.000,0.000,0.0093501,0.000,9144.000,0.984,2.161,9829.352,297.889,313.910,-42.586,8855.628,8006.015,-11.965,0.207,0.209,0.011,0.007,-0.033,0.000,0.000,0.000,-0.029,0.693,0.008,0.720,0.0000000,0.0000000,8022.108,0.000,0.000,0.000,0,00:00:00,1,0.000,8022.108,31388.463,-42.590,204.008,0.000,0.241,-12.099,-0.041,0.018,0.011,-0.022,0.000,0.000
83.962,2,0,-1.591,1.369,9859.022,-1.487,1.355,296.698,-0.784,0.652,-11.913,0.000,0.000,0.0085101,0.000,9144.000,0.980,2.121,9859.022,296.698,312.958,-42.719,8876.119,8026.507,-11.952,-0.023,0.324,-0.060,-0.000,-0.020,0.000,0.000,0.000,-0.031,0.693,0.010,0.720,0.0000000,0.0000000,8042.274,0.000,0.000,0.000,0,00:00:00,1,0.000,8042.274,31295.840,-42.719,202.803,0.000,0.293,-12.033,-0.067,0.004,0.010,-0.023,0.000,0.000
84.063,2,0,-1.578,1.365,9888.572,-1.485,1.350,295.501,-0.810,0.665,-11.972,0.000,0.000,0.0103675,0.000,9144.000,0.977,2.111,9888.572,295.501,312.012,-42.852,8896.520,8046.908,-12.013,-0.008,0.343,0.004,-0.003,-0.004,0.000,0.000,0.000,-0.031,0.693,0.009,0.720,0.0000000,0.0000000,8062.319,0.000,0.000,0.000,0,00:00:00,1,0.000,8062.319,31205.596,-42.846,201.602,0.000,0.396,-12.060,-0.046,0.012,0.006,0.005,0.000,0.000
84.164,2,0,-1.567,1.360,9918.001,-1.518,1.359,294.290,-1.150,0.801,-12.111,0.000,0.000,0.0093667,0.000,9144.000,0.973,2.129,9918.001,294.290,311.115,-42.978,8915.922,8066.310,-12.174,0.130,0.659,-0.005,-0.008,-0.049,0.000,0.000,0.000,-0.033,0.693,0.008,0.720,0.0000000,0.0000000,8082.245,0.000,0.000,0.000,0,00:00:00,1,0.000,8082.245,31111.623,-42.978,200.405,0.000,0.247,-12.030,0.031,0.002,-0.003,0.012,0.000,0.000
84.265,2,0,-1.560,1.356,9947.309,-1.525,1.338,293.081,-0.891,0.512,-12.090,0.000,0.000,0.0087106,0.000,9144.000,0.969,2.174,9947.309,293.081,310.196,-43.108,8935.840,8086.227,-12.126,-0.127,0.419,0.032,0.007,-0.008,0.000,0.000,0.000,-0.032,0.693,0.006,0.720,0.0000000,0.0000000,8102.051,0.000,0.000,0.000,0,00:00:00,1,0.000,8102.051,31017.336,-43.111,199.211,0.000,0.379,-11.948,0.090,-0.014,-0.004,0.007,0.000,0.000
84.366,2,0,-1.553,1.351,9976.497,-1.541,1.333,291.883,-0.967,0.657,-11.982,0.000,0.000,0.0103675,0.000,9144.000,0.966,2.142,9976.497,291.883,309.309,-43.233,8955.106,8105.493,-12.030,0.053,0.471,0.023,-0.018,-0.001,0.000,0.000,0.000,-0.032,0.692,0.005,0.721,0.0000000,0.0000000,8121.738,0.000,0.000,0.000,0,00:00:00,1,0.000,8121.738,30932.770,-43.230,198.021,0.000,0.347,-11.865,0.048,-0.007,-0.011,0.004,0.000,0.000
84.467,2,0,-1.549,1.346,10005.568,-1.546,1.318,290.715,-0.867,0.559,-11.680,0.000,0.000,0.0094351,0.000,9144.000,0.962,2.247,10005.568,290.715,308.397,-43.362,8974.966,8125.353,-11.721,-0.005,0.330,0.028,-0.053,0.020,0.000,0.000,0.000,-0.030,0.691,0.006,0.723,0.0000000,0.0000000,8141.307,0.000,0.000,0.000,0,00:00:00,1,0.000,8141.307,30840.707,-43.361,196.834,0.000,0.479,-11.876,0.042,0.002,0.005,-0.010,0.000,0.000
84.568,2,0,-1.545,1.339,10034.519,-1.544,1.299,289.504,-0.791,0.514,-12.101,0.000,0.000,0.0085475,0.000,9144.000,0.958,2.533,10034.519,289.504,307.524,-43.486,8994.015,8144.403,-12.135,-0.067,0.244,0.004,0.006,-0.006,0.000,0.000,0.000,-0.030,0.691,0.005,0.722,0.0000000,0.0000000,8160.756,0.000,0.000,0.000,0,00:00:00,1,0.000,8160.756,30751.729,-43.487,195.651,0.000,0.363,-11.825,0.037,-0.012,0.007,-0.005,0.000,0.000
84.669,2,0,-1.542,1.332,10063.352,-1.562,1.291,288.335,-0.996,0.619,-11.699,0.000,0.000,0.0103675,0.000,9144.000,0.955,2.497,10063.352,288.335,306.632,-43.613,9013.524,8163.912,-11.749,0.040,0.446,-0.019,-0.017,0.030,0.000,0.000,0.000,-0.029,0.690,0.007,0.723,0.0000000,0.0000000,8180.088,0.000,0.000,0.000,0,00:00:00,1,0.000,8180.088,30659.988,-43.617,194.471,0.000,0.369,-11.695,0.032,0.012,0.006,-0.006,0.000,0.000
84.770,2,0,-1.540,1.324,10092.070,-1.551,1.270,287.174,-0.695,0.491,-11.606,0.000,0.000,0.0093593,0.000,9144.000,0.951,2.586,10092.070,287.174,305.740,-43.740,9033.079,8183.467,-11.635,-0.102,0.156,-0.007,-0.023,-0.004,0.000,0.000,0.000,-0.029,0.690,0.008,0.723,0.0000000,0.0000000,8199.302,0.000,0.000,0.000,0,00:00:00,1,0.000,8199.302,30576.287,-43.737,193.294,0.000,0.370,-11.853,0.027,0.028,-0.018,-0.003,0.000,0.000
84.871,2,0,-1.538,1.315,10120.670,-1.562,1.251,286.001,-0.917,0.504,-11.728,0.000,0.000,0.0084508,0.000,9144.000,0.948,2.581,10120.670,286.001,304.912,-43.858,9051.296,8201.684,-11.768,-0.055,0.370,0.028,-0.000,-0.001,0.000,0.000,0.000,-0.028,0.690,0.007,0.723,0.0000000,0.0000000,8218.398,0.000,0.000,0.000,0,00:00:00,1,0.000,8218.398,30489.408,-43.861,192.121,0.000,0.380,-11.786,0.017,0.005,-0.006,0.006,0.000,0.000
84.972,2,0,-1.536,1.305,10149.153,-1.564,1.222,284.834,-0.832,0.405,-11.667,0.000,0.000,0.0103675,0.000,9144.000,0.944,2.589,10149.153,284.834,304.046,-43.982,9070.369,8220.757,-11.698,-0.119,0.333,0.030,0.031,0.013,0.000,0.000,0.000,-0.026,0.692,0.006,0.722,0.0000000,0.0000000,8237.378,0.000,0.000,0.000,0,00:00:00,1,0.000,8237.378,30405.203,-43.981,190.951,0.000,0.320,-11.637,0.074,0.008,-0.001,-0.009,0.000,0.000
85.073,2,0,-1.535,1.294,10177.520,-1.567,1.214,283.667,-0.836,0.596,-11.673,0.000,0.000,0.0093235,0.000,9144.000,0.940,2.389,10177.520,283.667,303.176,-44.107,9089.581,8239.968,-11.712,0.076,0.360,0.005,0.021,0.025,0.000,0.000,0.000,-0.025,0.693,0.007,0.721,0.0000000,0.0000000,8256.240,0.000,0.000,0.000,0,00:00:00,1,0.000,8256.240,30317.414,-44.107,189.784,0.000,0.406,-11.632,0.034,0.014,0.018,0.009,0.000,0.000
85.174,2,0,-1.534,1.283,10205.771,-1.558,1.200,282.509,-0.720,0.540,-11.586,0.000,0.000,0.0085269,0.000,9144.000,0.937,2.256,10205.771,282.509,302.336,-44.228,9108.160,8258.548,-11.618,0.068,0.253,0.041,-0.012,0.005,0.000,0.000,0.000,-0.022,0.693,0.007,0.721,0.0000000,0.0000000,8274.986,0.000,0.000,0.000,0,00:00:00,1,0.000,8274.986,30231.818,-44.231,188.620,0.000,0.299,-11.766,-0.116,-0.000,0.014,-0.019,0.000,0.000
85.275,2,0,-1.533,1.271,10233.907,-1.561,1.178,281.359,-0.836,0.452,-11.497,0.000,0.000,0.0103675,0.000,9144.000,0.933,2.247,10233.907,281.359,301.503,-44.348,9126.634,8277.021,-11.529,-0.017,0.402,-0.003,0.020,-0.000,0.000,0.000,0.000,-0.022,0.694,0.008,0.720,0.0000000,0.0000000,8293.616,0.000,0.000,0.000,0,00:00:00,1,0.000,8293.616,30149.244,-44.350,187.459,0.000,0.268,-11.534,0.009,0.005,0.001,0.018,0.000,0.000
85.376,2,0,-1.531,1.259,10261.927,-1.542,1.151,280.199,-0.611,0.386,-11.603,0.000,0.000,0.0092892,0.000,9144.000,0.930,2.114,10261.927,280.199,300.686,-44.466,9144.797,8295.185,-11.624,-0.055,0.212,0.031,0.021,-0.023,0.000,0.000,0.000,-0.021,0.695,0.006,0.719,0.0000000,0.0000000,8312.130,0.000,0.000,0.000,0,00:00:00,1,0.000,8312.130,30068.297,-44.467,186.302,0.000,0.298,-11.581,0.038,0.014,-0.006,0.004,0.000,0.000
85.477,2,0,-1.527,1.245,10289.831,-1.516,1.143,279.042,-0.549,0.583,-11.565,0.000,0.000,0.0084370,0.000,9144.000,0.926,1.927,10289.831,279.042,299.846,-44.588,9163.503,8313.891,-11.590,0.130,0.188,-0.009,0.018,0.028,0.000,0.000,0.000,-0.019,0.696,0.009,0.718,0.0000000,0.0000000,8330.527,0.000,0.000,0.000,0,00:00:00,1,0.000,8330.527,29983.762,-44.589,185.147,0.000,0.342,-11.458,-0.062,0.002,-0.020,-0.001,0.000,0.000
85.578,2,0,-1.523,1.232,10317.620,-1.524,1.120,277.891,-0.877,0.415,-11.508,0.000,0.000,0.0103675,0.000,9144.000,0.922,1.740,10317.620,277.891,299.034,-44.706,9181.628,8332.016,-11.538,-0.018,0.506,0.012,0.002,0.018,0.000,0.000,0.000,-0.018,0.696,0.009,0.718,0.0000000,0.0000000,8348.811,0.000,0.000,0.000,0,00:00:00,1,0.000,8348.811,29901.992,-44.708,183.995,0.000,0.336,-11.548,0.002,-0.014,-0.009,0.016,0.000,0.000
85.679,2,0,-1.520,1.217,10345.296,-1.523,1.086,276.763,-0.798,0.311,-11.283,0.000,0.000,0.0093354,0.000,9144.000,0.919,1.818,10345.296,276.763,298.237,-44.822,9199.464,8349.852,-11.307,-0.072,0.417,0.036,-0.005,-0.034,0.000,0.000,0.000,-0.017,0.695,0.008,0.719,0.0000000,0.0000000,8366.979,0.000,0.000,0.000,0,00:00:00,1,0.000,8366.979,29822.662,-44.823,182.847,0.000,0.312,-11.515,0.079,0.012,-0.015,-0.001,0.000,0.000
85.780,2,0,-1.516,1.202,10372.858,-1.513,1.081,275.618,-0.694,0.580,-11.448,0.000,0.000,0.0083859,0.000,9144.000,0.915,1.912,10372.858,275.618,297.426,-44.940,9217.655,8368.043,-11.478,0.165,0.331,-0.021,0.018,0.003,0.000,0.000,0.000,-0.016,0.696,0.010,0.718,0.0000000,0.0000000,8385.031,0.000,0.000,0.000,0,00:00:00,1,0.000,8385.031,29742.318,-44.941,181.701,0.000,0.303,-11.530,-0.030,-0.004,0.006,0.018,0.000,0.000
85.881,2,0,-1.511,1.187,10400.305,-1.491,1.049,274.469,-0.581,0.303,-11.493,0.000,0.000,0.0103675,0.000,9144.000,0.912,1.785,10400.305,274.469,296.627,-45.057,9235.614,8386.002,-11.508,-0.132,0.281,-0.014,0.050,0.036,0.000,0.000,0.000,-0.016,0.698,0.011,0.716,0.0000000,0.0000000,8402.970,0.000,0.000,0.000,0,00:00:00,1,0.000,8402.970,29665.236,-45.053,180.558,0.000,0.380,-11.477,-0.023,-0.016,-0.008,0.003,0.000,0.000
85.982,2,0,-1.505,1.170,10427.637,-1.465,1.019,273.319,-0.529,0.320,-11.496,0.000,0.000,0.0092903,0.000,9144.000,0.908,1.486,10427.637,273.319,296.627,-45.057,9235.614,8386.002,-11.508,-0.132,0.281,-0.014,0.050,0.036,0.000,0.000,0.000,-0.015,0.699,0.013,0.715,0.0000000,0.0000000,8402.970,0.000,0.000,0.000,0,00:00:00,1,0.000,8402.970,29665.236,-45.053,180.558,0.000,0.380,-11.477,-0.023,-0.016,-0.008,0.003,0.000,0.000
86.083,2,0,-1.495,1.153,10454.856,-1.424,1.001,272.187,-0.377,0.425,-11.325,0.000,0.000,0.0084341,0.000,9144.000,0.904,1.227,10454.856,272.187,295.051,-45.288,9271.148,8421.536,-11.338,-0.015,0.161,0.006,0.012,-0.005,0.000,0.000,0.000,-0.015,0.700,0.013,0.714,0.0000000,0.0000000,8438.505,0.000,0.000,0.000,0,00:00:00,1,0.000,8438.505,29504.158,-45.289,178.280,0.000,0.285,-11.522,0.052,-0.001,0.004,0.021,0.000,0.000
86.184,2,0,-1.485,1.136,10481.959,-1.407,0.993,271.038,-0.617,0.522,-11.488,0.000,0.000,0.0103675,0.000,9144.000,0.901,1.083,10481.959,271.038,294.277,-45.402,9288.649,8439.036,-11.509,0.086,0.388,0.008,0.012,-0.012,0.000,0.000,0.000,-0.015,0.700,0.012,0.714,0.0000000,0.0000000,8456.101,0.000,0.000,0.000,0,00:00:00,1,0.000,8456.101,29427.805,-45.402,177.145,0.000,0.280,-11.314,0.100,0.013,-0.009,-0.000,0.000,0.000
86.285,2,0,-1.473,1.120,10508.948,-1.392,0.985,269.889,-0.626,0.513,-11.487,0.000,0.000,0.0093580,0.000,9144.000,0.898,1.133,10508.948,269.889,294.277,-45.402,9288.649,8439.036,-11.509,0.086,0.388,0.008,0.012,-0.012,0.000,0.000,0.000,-0.014,0.700,0.012,0.714,0.0000000,0.0000000,8456.101,0.000,0.000,0.000,0,00:00:00,1,0.000,8456.101,29427.805,-45.402,177.145,0.000,0.280,-11.314,0.100,0.013,-0.009,-0.000,0.000,0.000
86.386,2,0,-1.461,1.104,10535.825,-1.358,0.970,268.761,-0.436,0.425,-11.286,0.000,0.000,0.0085633,0.000,9144.000,0.894,1.177,10535.825,268.761,292.747,-45.628,9323.383,8473.770,-11.300,-0.012,0.237,-0.015,0.040,-0.010,0.000,0.000,0.000,-0.015,0.701,0.013,0.713,0.0000000,0.0000000,8490.954,0.000,0.000,0.000,0,00:00:00,1,0.000,8490.954,29275.297,-45.627,174.883,0.000,0.357,-11.278,0.006,-0.015,-0.006,-0.008,0.000,0.000
86.487,2,0,-1.447,1.089,10562.590,-1.330,0.964,267.654,-0.483,0.512,-11.067,0.000,0.000,0.0103675,0.000,9144.000,0.890,1.006,10562.590,267.654,292.010,-45.737,9340.159,8490.547,-11.086,0.061,0.264,-0.020,-0.000,-0.015,0.000,0.000,0.000,-0.015,0.700,0.014,0.714,0.0000000,0.0000000,8508.211,0.000,0.000,0.000,0,00:00:00,1,0.000,8508.211,29195.412,-45.745,173.756,0.000,0.286,-11.274,0.099,0.015,0.007,0.003,0.000,0.000
86.588,2,0,-1.432,1.074,10589.243,-1.320,0.939,266.534,-0.655,0.326,-11.201,0.000,0.000,0.0091463,0.000,9144.000,0.887,1.130,10589.243,266.534,291.250,-45.849,9357.490,8507.878,-11.218,-0.112,0.377,0.014,-0.014,-0.008,0.000,0.000,0.000,-0.015,0.698,0.013,0.716,0.0000000,0.0000000,8525.355,0.000,0.000,0.000,0,00:00:00,1,0.000,8525.355,29122.684,-45.853,172.632,0.000,0.340,-11.307,0.019,0.005,0.008,-0.009,0.000,0.000
86.689,2,0,-1.419,1.059,10615.785,-1.329,0.944,265.419,-0.834,0.600,-11.151,0.000,0.000,0.0103675,0.000,9144.000,0.884,1.411,10615.785,265.419,290.505,-45.960,9374.508,8524.896,-11.186,0.186,0.482,0.023,-0.023,-0.012,0.000,0.000,0.000,-0.012,0.696,0.014,0.718,0.0000000,0.0000000,8542.388,0.000,0.000,0.000,0,00:00:00,1,0.000,8542.388,29049.824,-45.961,171.510,0.000,0.366,-11.265,0.043,-0.018,-0.007,0.002,0.000,0.000
86.790,2,0,-1.407,1.045,10642.216,-1.319,0.914,264.303,-0.644,0.255,-11.154,0.000,0.000,0.0093175,0.000,9144.000,0.880,1.815,10642.216,264.303,289.762,-46.071,9391.531,8541.919,-11.170,-0.162,0.299,-0.006,-0.008,-0.026,0.000,0.000,0.000,-0.015,0.696,0.012,0.718,0.0000000,0.0000000,8559.308,0.000,0.000,0.000,0,00:00:00,1,0.000,8559.308,28978.045,-46.068,170.391,0.000,0.312,-11.219,0.080,0.006,-0.020,-0.001,0.000,0.000
86.891,2,0,-1.396,1.030,10668.535,-1.325,0.899,263.191,-0.789,0.394,-11.124,0.000,0.000,0.0083810,0.000,9144.000,0.877,1.760,10668.535,263.191,289.044,-46.178,9408.024,8558.412,-11.150,-0.043,0.464,-0.022,0.076,-0.036,0.000,0.000,0.000,-0.016,0.697,0.012,0.717,0.0000000,0.0000000,8576.115,0.000,0.000,0.000,0,00:00:00,1,0.000,8576.115,28902.314,-46.181,169.274,0.000,0.394,-11.195,0.063,-0.006,-0.004,0.001,0.000,0.000
86.992,2,0,-1.386,1.015,10694.743,-1.327,0.900,262.079,-0.746,0.547,-11.124,0.000,0.000,0.0103675,0.000,9144.000,0.873,1.656,10694.743,262.079,288.317,-46.287,9424.729,8575.116,-11.155,0.075,0.400,-0.030,0.002,-0.006,0.000,0.000,0.000,-0.016,0.696,0.014,0.718,0.0000000,0.0000000,8592.812,0.000,0.000,0.000,0,00:00:00,1,0.000,8592.812,28832.912,-46.285,168.159,0.000,0.365,-11.216,-0.068,0.011,0.002,-0.008,0.000,0.000
87.093,2,0,-1.378,1.003,10720.839,-1.324,0.905,260.964,-0.701,0.574,-11.151,0.000,0.000,0.0093030,0.000,9144.000,0.870,1.771,10720.839,260.964,287.598,-46.394,9441.295,8591.683,-11.182,0.057,0.345,-0.039,-0.014,-0.004,0.000,0.000,0.000,-0.017,0.696,0.016,0.718,0.0000000,0.0000000,8609.396,0.000,0.000,0.000,0,00:00:00,1,0.000,8609.396,28764.029,-46.388,167.047,0.000,0.270,-11.159,0.019,-0.020,-0.016,-0.005,0.000,0.000
87.194,2,0,-1.370,0.992,10746.822,-1.336,0.915,259.830,-0.836,0.623,-11.333,0.000,0.000,0.0084706,0.000,9144.000,0.866,1.827,10746.822,259.830,286.875,-46.503,9457.997,8608.384,-11.372,0.092,0.457,-0.002,0.000,0.022,0.000,0.000,0.000,-0.015,0.695,0.018,0.719,0.0000000,0.0000000,8625.869,0.000,0.000,0.000,0,00:00:00,1,0.000,8625.869,28686.963,-46.504,165.937,0.000,0.420,-11.195,-0.036,-0.011,0.005,-0.009,0.000,0.000
87.295,2,0,-1.364,0.983,10772.694,-1.334,0.918,258.722,-0.699,0.540,-11.081,0.000,0.000,0.0103675,0.000,9144.000,0.863,1.920,10772.694,258.722,286.177,-46.608,9474.156,8624.544,-11.111,0.052,0.343,0.027,0.007,-0.013,0.000,0.000,0.000,-0.014,0.695,0.017,0.718,0.0000000,0.0000000,8642.231,0.000,0.000,0.000,0,00:00:00,1,0.000,8642.231,28616.422,-46.610,164.830,0.000,0.420,-11.157,0.015,0.003,-0.008,-0.003,0.000,0.000
87.396,2,0,-1.358,0.975,10798.457,-1.348,0.928,257.632,-0.854,0.618,-10.897,0.000,0.000,0.0093009,0.000,9144.000,0.859,1.845,10798.457,257.632,285.477,-46.714,9490.373,8640.761,-10.938,0.129,0.449,-0.008,-0.025,-0.027,0.000,0.000,0.000,-0.014,0.694,0.018,0.720,0.0000000,0.0000000,8658.483,0.000,0.000,0.000,0,00:00:00,1,0.000,8658.483,28547.404,-46.714,163.724,0.000,0.436,-11.083,0.012,0.024,-0.000,-0.005,0.000,0.000
87.497,2,0,-1.355,0.968,10824.109,-1.359,0.924,256.517,-0.816,0.470,-11.156,0.000,0.000,0.0084371,0.000,9144.000,0.856,2.140,10824.109,256.517,284.794,-46.817,9506.236,8656.623,-11.187,-0.022,0.425,0.007,0.034,0.004,0.000,0.000,0.000,-0.014,0.694,0.017,0.719,0.0000000,0.0000000,8674.624,0.000,0.000,0.000,0,00:00:00,1,0.000,8674.624,28479.486,-46.817,162.621,0.000,0.398,-11.083,-0.018,0.005,-0.001,0.001,0.000,0.000
87.598,2,0,-1.352,0.962,10849.650,-1.355,0.924,255.406,-0.675,0.501,-11.104,0.000,0.000,0.0103675,0.000,9144.000,0.852,2.013,10849.650,255.406,284.115,-46.920,9522.053,8672.440,-11.132,0.006,0.312,-0.003,0.000,0.022,0.000,0.000,0.000,-0.014,0.695,0.017,0.718,0.0000000,0.0000000,8690.654,0.000,0.000,0.000,0,00:00:00,1,0.000,8690.654,28411.561,-46.919,161.521,0.000,0.350,-10.987,-0.033,-0.017,-0.012,-0.010,0.000,0.000
87.699,2,0,-1.350,0.956,10875.080,-1.373,0.925,254.306,-0.883,0.517,-11.001,0.000,0.000,0.0093343,0.000,9144.000,0.849,1.881,10875.080,254.306,283.425,-47.024,9538.137,8688.525,-11.038,0.024,0.471,-0.001,-0.018,0.029,0.000,0.000,0.000,-0.014,0.694,0.018,0.720,0.0000000,0.0000000,8706.575,0.000,0.000,0.000,0,00:00:00,1,0.000,8706.575,28342.656,-47.024,160.422,0.000,0.308,-10.972,0.003,0.007,0.010,0.012,0.000,0.000
87.800,2,0,-1.348,0.951,10900.401,-1.359,0.922,253.204,-0.577,0.463,-11.020,0.000,0.000,0.0085384,0.000,9144.000,0.845,2.154,10900.401,253.204,282.749,-47.127,9553.932,8704.319,-11.042,-0.006,0.227,0.021,-0.011,0.029,0.000,0.000,0.000,-0.013,0.696,0.017,0.718,0.0000000,0.0000000,8722.386,0.000,0.000,0.000,0,00:00:00,1,0.000,8722.386,28280.184,-47.119,159.326,0.000,0.281,-10.933,-0.025,0.005,0.004,0.002,0.000,0.000
87.901,2,0,-1.346,0.946,10925.611,-1.355,0.923,252.103,-0.665,0.513,-11.015,0.000,0.000,0.0103675,0.000,9144.000,0.842,1.831,10925.611,252.103,282.102,-47.225,9569.082,8719.470,-11.042,0.040,0.317,-0.006,-0.014,-0.033,0.000,0.000,0.000,-0.014,0.696,0.016,0.718,0.0000000,0.0000000,8738.086,0.000,0.000,0.000,0,00:00:00,1,0.000,8738.086,28209.312,-47.227,158.231,0.000,0.209,-10.973,0.076,-0.010,-0.010,0.007,0.000,0.000
88.002,2,0,-1.343,0.942,10950.711,-1.351,0.925,251.001,-0.663,0.518,-11.015,0.000,0.000,0.0093199,0.000,9144.000,0.838,1.812,10950.711,251.001,282.102,-47.225,9569.082,8719.470,-11.042,0.040,0.317,-0.006,-0.014,-0.033,0.000,0.000,0.000,-0.015,0.696,0.016,0.718,0.0000000,0.0000000,8738.086,0.000,0.000,0.000,0,00:00:00,1,0.000,8738.086,28209.312,-47.227,158.231,0.000,0.209,-10.973,0.076,-0.010,-0.010,0.007,0.000,0.000
88.103,2,0,-1.341,0.938,10975.701,-1.346,0.928,249.900,-0.662,0.522,-11.014,0.000,0.000,0.0084946,0.000,9144.000,0.835,1.799,10975.701,249.900,282.102,-47.225,9569.082,8719.470,-11.042,0.040,0.317,-0.006,-0.014,-0.033,0.000,0.000,0.000,-0.015,0.696,0.016,0.718,0.0000000,0.0000000,8738.086,0.000,0.000,0.000,0,00:00:00,1,0.000,8738.086,28209.312,-47.227,158.231,0.000,0.209,-10.973,0.076,-0.010,-0.010,0.007,0.000,0.000
88.204,2,0,-1.337,0.935,10999.690,-1.334,0.917,312.638,-0.582,0.379,-10.716,0.000,0.000,0.0103675,0.000,9144.000,0.831,1.792,11000.584,248.828,280.118,-47.529,9615.696,8766.084,-10.735,-0.051,0.288,0.037,0.033,0.021,0.000,0.000,0.000,-0.015,0.697,0.014,0.717,0.0000000,0.0000000,8784.531,0.000,0.000,0.000,0,00:00:00,1,0.000,8784.531,28011.102,-47.530,154.961,0.000,0.173,-10.945,0.027,-0.006,0.005,0.011,0.000,0.000
88.305,2,0,-1.334,0.931,11025.359,-1.336,0.916,247.748,-0.719,0.474,-10.801,0.000,0.000,0.0088176,0.000,9144.000,1.040,1.570,11025.359,247.748,279.485,-47.626,9630.626,8781.014,-10.829,0.063,0.382,0.024,-0.002,0.030,0.000,0.000,0.000,-0.012,0.696,0.015,0.718,0.0000000,0.0000000,8799.795,0.000,0.000,0.000,0,00:00:00,1,0.000,8799.795,27946.889,-47.628,153.875,0.000,0.277,-10.867,-0.040,-0.002,-0.003,-0.010,0.000,0.000
88.406,2,0,-1.331,0.926,11029.727,-1.336,0.898,218.451,-0.700,0.310,-10.873,0.000,0.000,0.0103675,0.000,9144.000,0.824,1.791,11050.025,246.661,278.833,-47.726,9646.042,8796.429,-10.894,-0.102,0.355,-0.000,0.003,0.001,0.000,0.000,0.000,-0.014,0.696,0.013,0.718,0.0000000,0.0000000,8814.950,0.000,0.000,0.000,0,00:00:00,1,0.000,8814.950,27879.080,-47.732,152.790,0.000,0.321,-10.764,0.052,-0.003,-0.011,-0.002,0.000,0.000
88.507,3,0,-1.328,0.921,10787.086,-1.336,0.880,171.902,-0.704,0.309,-10.873,0.000,0.000,0.0095294,0.000,9144.000,0.727,1.815,11074.582,245.574,278.833,-47.726,9646.042,8796.429,-10.894,-0.102,0.355,-0.000,0.003,0.001,0.000,0.000,0.000,-0.015,0.696,0.012,0.718,0.0000000,0.0000000,8814.950,0.000,0.000,0.000,0,00:00:00,1,0.000,8814.950,27879.080,-47.732,152.790,0.000,0.321,-10.764,0.052,-0.003,-0.011,-0.002,0.000,0.000
88.608,3,0,-1.327,0.915,10389.200,-1.348,0.873,261.347,-0.813,0.410,-10.733,70.000,0.000,0.0095294,12209.737,9144.000,0.572,1.829,11099.032,244.500,277.552,-47.923,9676.408,8826.796,-10.764,-0.002,0.423,-0.005,-0.011,-0.005,0.000,0.000,0.000,-0.014,0.694,0.013,0.720,0.0000000,0.0000000,8844.935,0.000,0.000,0.000,0,00:00:00,1,0.000,8844.935,27755.012,-47.924,150.628,0.000,0.392,-10.871,0.018,0.008,-0.011,-0.008,0.000,0.000
88.709,3,0,-1.326,0.908,11123.374,-1.354,0.854,243.412,-0.752,0.290,-10.880,70.000,0.000,0.0095294,13484.345,9144.000,0.870,2.073,11123.374,243.412,276.934,-48.019,9691.086,8841.473,-10.903,-0.131,0.371,-0.002,0.008,0.041,0.000,0.000,0.000,-0.015,0.695,0.012,0.719,0.0000000,0.0000000,8859.764,0.000,0.000,0.000,0,00:00:00,1,0.000,8859.764,27698.975,-48.010,149.550,0.000,0.266,-10.790,0.104,0.006,-0.008,0.008,0.000,0.000
88.810,3,0,-1.325,0.900,11086.837,-1.358,0.836,169.627,-0.744,0.293,-10.881,70.000,0.000,0.0095294,13866.185,9144.000,0.811,1.994,11147.606,242.324,276.934,-48.019,9691.086,8841.473,-10.903,-0.131,0.371,-0.002,0.008,0.041,0.000,0.000,0.000,-0.016,0.695,0.012,0.719,0.0000000,0.0000000,8859.764,0.000,0.000,0.000,0,00:00:00,1,0.000,8859.764,27698.975,-48.010,149.550,0.000,0.266,-10.790,0.104,0.006,-0.008,0.008,0.000,0.000
88.911,3,0,-1.324,0.892,10431.969,-1.330,0.839,255.704,-0.420,0.505,-10.568,70.000,0.000,0.0095294,12476.300,9144.000,0.565,1.950,11171.733,241.267,275.707,-48.209,9720.314,8870.702,-10.587,0.066,0.162,-0.025,0.005,-0.009,0.000,0.000,0.000,-0.015,0.698,0.015,0.716,0.0000000,0.0000000,8889.099,0.000,0.000,0.000,0,00:00:00,1,0.000,8889.099,27570.289,-48.210,147.399,0.000,0.381,-10.795,-0.003,0.019,0.015,0.004,0.000,0.000
89.012,3,0,-1.321,0.885,11195.752,-1.322,0.842,240.195,-0.611,0.496,-10.729,70.000,0.000,0.0095294,13410.323,9144.000,0.852,1.397,11195.752,240.195,275.124,-48.300,9734.258,8884.645,-10.753,0.039,0.319,-0.010,-0.006,0.003,0.000,0.000,0.000,-0.014,0.697,0.016,0.717,0.0000000,0.0000000,8903.605,0.000,0.000,0.000,0,00:00:00,1,0.000,8903.605,27514.750,-48.296,146.326,0.000,0.342,-10.744,-0.077,0.006,0.015,0.005,0.000,0.000
89.113,3,0,-1.318,0.879,11128.655,-1.314,0.834,211.067,-0.616,0.375,-10.992,70.000,0.000,0.0095294,13875.321,9144.000,0.801,1.566,11219.662,239.095,274.509,-48.395,9748.970,8899.357,-11.011,-0.103,0.302,-0.012,-0.015,-0.038,0.000,0.000,0.000,-0.017,0.697,0.014,0.717,0.0000000,0.0000000,8918.004,0.000,0.000,0.000,0,00:00:00,1,0.000,8918.004,27450.078,-48.396,145.255,0.000,0.281,-10.747,-0.004,0.003,0.005,-0.002,0.000,0.000
89.214,3,0,-1.313,0.872,10880.609,-1.293,0.816,208.497,-0.484,0.281,-10.464,70.000,0.000,0.0095294,13232.624,9144.000,0.704,1.622,11243.467,238.049,273.921,-48.487,9763.064,8913.451,-10.476,-0.145,0.221,0.028,-0.005,0.013,0.000,0.000,0.000,-0.017,0.698,0.012,0.716,0.0000000,0.0000000,8932.295,0.000,0.000,0.000,0,00:00:00,1,0.000,8932.295,27391.248,-48.488,144.186,0.000,0.304,-10.768,0.111,0.007,0.012,0.008,0.000,0.000
89.315,3,0,-1.308,0.865,10878.716,-1.289,0.819,206.922,-0.645,0.493,-10.814,70.000,0.000,0.0095294,12932.429,9144.000,0.695,1.428,11267.163,236.968,273.346,-48.577,9776.882,8927.270,-10.839,0.048,0.340,-0.001,-0.002,0.037,0.000,0.000,0.000,-0.014,0.697,0.015,0.717,0.0000000,0.0000000,8946.479,0.000,0.000,0.000,0,00:00:00,1,0.000,8946.479,27330.391,-48.583,143.118,0.000,0.327,-10.716,0.011,-0.006,-0.004,0.024,0.000,0.000
89.416,3,0,-1.303,0.859,10886.004,-1.278,0.821,208.351,-0.579,0.472,-10.804,70.000,0.000,0.0095294,12901.158,9144.000,0.690,1.610,11290.752,235.887,272.741,-48.671,9791.436,8941.824,-10.826,0.032,0.274,0.004,-0.030,-0.011,0.000,0.000,0.000,-0.014,0.697,0.015,0.717,0.0000000,0.0000000,8960.556,0.000,0.000,0.000,0,00:00:00,1,0.000,8960.556,27275.787,-48.669,142.052,0.000,0.295,-10.760,0.043,-0.007,0.001,-0.003,0.000,0.000
89.517,3,0,-1.299,0.853,10921.265,-1.299,0.824,204.802,-0.886,0.475,-10.851,70.000,0.000,0.0095294,12934.850,9144.000,0.695,1.621,11314.232,234.802,272.176,-48.760,9805.051,8955.439,-10.886,0.073,0.491,0.038,-0.013,-0.002,0.000,0.000,0.000,-0.012,0.694,0.014,0.720,0.0000000,0.0000000,8974.525,0.000,0.000,0.000,0,00:00:00,1,0.000,8974.525,27217.855,-48.759,140.988,0.000,0.298,-10.712,-0.020,0.007,-0.006,0.021,0.000,0.000
89.618,3,0,-1.296,0.848,10909.405,-1.308,0.814,204.228,-0.773,0.347,-10.329,70.000,0.000,0.0095294,12904.676,9144.000,0.683,2.092,11337.609,233.769,271.610,-48.849,9818.717,8969.104,-10.356,-0.062,0.396,-0.025,0.016,0.038,0.000,0.000,0.000,-0.014,0.694,0.014,0.720,0.0000000,0.0000000,8988.390,0.000,0.000,0.000,0,00:00:00,1,0.000,8988.390,27155.990,-48.857,139.926,0.000,0.390,-10.752,-0.014,0.000,-0.005,-0.000,0.000,0.000
89.719,3,0,-1.293,0.843,10925.563,-1.287,0.815,204.852,-0.473,0.449,-10.689,70.000,0.000,0.0095294,12882.164,9144.000,0.681,2.094,11360.879,232.700,271.026,-48.941,9832.844,8983.231,-10.708,0.004,0.182,-0.022,-0.008,-0.041,0.000,0.000,0.000,-0.015,0.697,0.014,0.717,0.0000000,0.0000000,9002.146,0.000,0.000,0.000,0,00:00:00,1,0.000,9002.146,27101.248,-48.943,138.865,0.000,0.314,-10.535,0.013,-0.016,0.005,-0.003,0.000,0.000
89.820,3,0,-1.289,0.839,10952.882,-1.274,0.833,201.759,-0.544,0.623,-10.789,70.000,0.000,0.0095294,12911.139,9144.000,0.684,1.557,11384.041,231.621,270.475,-49.027,9846.184,8996.571,-10.817,0.148,0.262,-0.021,-0.015,0.027,0.000,0.000,0.000,-0.013,0.698,0.018,0.716,0.0000000,0.0000000,9015.797,0.000,0.000,0.000,0,00:00:00,1,0.000,9015.797,27047.426,-49.027,137.806,0.000,0.327,-10.734,-0.020,0.015,0.005,-0.001,0.000,0.000
