State - Time (s),State - Stage,State - Stage,State - PX (m),State - PY (m),State - PZ (m),State - VX (m/s),State - VY (m/s),State - VZ (m/s),State - AX (m/s/s),State - AY (m/s/s),State - AZ (m/s/s),State - Actuation Angle (deg),State - Acutal Angle (deg),State - CdA,State - Est Apo (m),State - Target Apogee (m),State - Mach Number,State - Tilt [deg],MockBarometer - Pres (hPa),MockBarometer - Temp (C),MockBarometer - Alt ASL (m),MockBarometer - Alt AGL (m),MockIMU - AccX (m/s^2),MockIMU - AccY (m/s^2),MockIMU - AccZ (m/s^2),MockIMU - GyroX (rad/s),MockIMU - GyroY (rad/s),MockIMU - GyroZ (rad/s),MockIMU - MagX (uT),MockIMU - MagY (uT),MockIMU - MagZ (uT),MockIMU - OriX,MockIMU - OriY,MockIMU - OriZ,MockIMU - OriW,MockGPS - Lat,MockGPS - Lon,MockGPS - Alt (m),MockGPS - Disp X (m),MockGPS - Disp Y (m),MockGPS - Disp Z (m),MockGPS - Fix Quality,MockGPS - Time of Day,E5 - Rel Steps,BR - Battery Voltage (V),BR - ALT (m),BR - PRES (Pa),BR - TEMP (C),BR - VEL (m/s),BR - ANG (deg),BR - ACCX (m/s^2),BR - ACCY (m/s^2),BR - ACCZ (m/s^2),BR - GYROX (rad/s),BR - GYROY (rad/s),BR - GYROZ (rad/s),BR - ROLL (deg),BR - TILT (deg),
84.940,1,0,-1.292,-0.449,-10.379,-1.102,-0.220,-1.470,2.093,2.274,96.753,0.000,0.000,0.0103675,0.000,7500.000,0.038,1.612,1013.070,15.040,1.502,1.610,96.802,0.055,0.324,0.018,0.032,-0.016,0.000,0.000,0.000,0.009,0.698,-0.007,0.716,0.0000000,0.0000000,1.451,0.000,0.000,0.000,0,00:00:00,0,0.000,0.000,0.000,0.000,0.000,0.000,0.000,0.000,0.000,0.000,0.000,0.000,0.000,0.000,
85.041,1,0,-1.260,-0.417,-8.073,-0.835,-0.011,9.858,1.973,1.846,97.683,0.000,0.000,0.0103675,0.000,7500.000,0.005,1.428,1012.791,15.023,3.822,3.931,97.719,-0.142,0.441,-0.026,0.003,0.014,0.000,0.000,0.000,0.009,0.698,-0.006,0.716,0.0000000,0.0000000,3.883,0.000,0.000,0.000,0,00:00:00,0,0.000,0.000,0.000,0.000,0.000,0.000,0.000,0.000,0.000,0.000,0.000,0.000,0.000,0.000,
85.142,1,0,-1.205,-0.368,-4.609,-0.544,0.224,21.281,2.255,2.135,98.562,0.000,0.000,0.0103675,0.000,7500.000,0.029,1.411,1012.367,15.001,7.346,7.454,98.610,0.008,0.302,0.013,-0.012,0.019,0.000,0.000,0.000,0.010,0.698,-0.006,0.716,0.0000000,0.0000000,7.305,0.000,0.000,0.000,0,00:00:00,0,0.000,0.000,0.000,0.000,0.000,0.000,0.000,0.000,0.000,0.000,0.000,0.000,0.000,0.000
85.243,1,0,-1.129,-0.303,0.002,-0.277,0.448,32.797,2.043,2.063,99.564,0.000,0.000,0.0103675,0.000,7500.000,0.063,1.479,1011.823,14.973,11.879,11.987,99.605,-0.060,0.420,-0.002,0.012,0.008,0.000,0.000,0.000,0.010,0.698,-0.005,0.716,0.0000000,0.0000000,11.727,0.000,0.000,0.000,0,00:00:00,0,0.000,0.000,0.000,0.000,0.000,0.000,0.000,0.000,0.000,0.000,0.000,0.000,0.000,0.000
85.344,1,0,-1.036,-0.223,5.685,0.007,0.682,44.346,2.269,2.200,100.611,0.000,0.000,0.0103675,0.000,7500.000,0.097,1.409,1011.212,14.938,16.969,17.077,100.660,0.056,0.331,-0.001,-0.012,-0.029,0.000,0.000,0.000,0.009,0.698,-0.006,0.716,0.0000000,0.0000000,17.158,0.000,0.000,0.000,0,00:00:00,0,0.000,0.000,0.000,0.000,0.000,0.000,0.000,0.000,0.000,0.000,0.000,0.000,0.000,0.000
85.445,1,0,-0.924,-0.129,12.484,0.300,0.908,55.950,2.419,2.171,101.556,0.000,0.000,0.0103675,0.000,7500.000,0.131,1.476,1010.437,14.896,23.437,23.545,101.607,0.173,0.211,-0.017,-0.001,-0.028,0.000,0.000,0.000,0.007,0.698,-0.007,0.716,0.0000000,0.0000000,23.608,0.000,0.000,0.000,0,00:00:00,0,0.000,0.000,0.000,0.000,0.000,0.000,0.000,0.000,0.000,0.000,0.000,0.000,0.000,0.000
85.546,1,0,-0.797,-0.024,20.403,0.583,1.129,67.589,2.377,2.170,102.321,0.000,0.000,0.0103675,0.000,7500.000,0.165,1.482,1009.529,14.848,31.009,31.117,102.371,0.295,0.363,-0.013,-0.008,0.021,0.000,0.000,0.000,0.008,0.698,-0.005,0.716,0.0000000,0.0000000,31.085,0.000,0.000,0.000,0,00:00:00,0,0.000,0.000,0.000,0.000,0.000,0.000,0.000,0.000,0.000,0.000,0.000,0.000,0.000,0.000
85.647,1,0,-0.656,0.090,29.425,0.867,1.314,79.257,2.468,1.877,103.177,0.000,0.000,0.0103675,0.000,7500.000,0.199,1.530,1008.505,14.792,39.559,39.667,103.223,0.022,0.407,-0.003,-0.011,0.012,0.000,0.000,0.000,0.008,0.697,-0.005,0.717,0.0000000,0.0000000,39.598,0.000,0.000,0.000,0,00:00:00,0,0.000,0.000,0.000,0.000,0.000,0.000,0.000,0.000,0.000,0.000,0.000,0.000,0.000,0.000
85.748,1,0,-0.502,0.209,39.529,1.155,1.461,90.956,2.590,1.565,104.243,0.000,0.000,0.0103675,0.000,7500.000,0.233,1.592,1007.371,14.727,49.034,49.142,104.286,-0.119,0.398,-0.019,-0.008,-0.019,0.000,0.000,0.000,0.006,0.697,-0.005,0.717,0.0000000,0.0000000,49.157,0.000,0.000,0.000,0,00:00:00,0,0.000,0.000,0.000,0.000,0.000,0.000,0.000,0.000,0.000,0.000,0.000,0.000,0.000,0.000
85.849,1,0,-0.336,0.328,49.232,1.443,1.582,101.474,2.674,1.376,104.243,0.000,0.000,0.0103675,0.000,7500.000,0.268,1.640,1007.371,14.727,49.034,49.142,104.286,-0.119,0.398,-0.019,-0.008,-0.019,0.000,0.000,0.000,0.005,0.697,-0.005,0.717,0.0000000,0.0000000,49.157,0.000,0.000,0.000,0,00:00:00,0,0.000,0.000,0.000,0.000,0.000,0.000,0.000,0.000,0.000,0.000,0.000,0.000,0.000,0.000
85.950,1,0,-0.159,0.447,58.490,1.730,1.678,110.864,2.759,1.186,104.243,0.000,0.000,0.0103675,0.000,7500.000,0.299,1.688,1007.371,14.727,49.034,49.142,104.286,-0.119,0.398,-0.019,-0.008,-0.019,0.000,0.000,0.000,0.004,0.696,-0.005,0.718,0.0000000,0.0000000,49.157,0.000,0.000,0.000,0,00:00:00,0,0.000,0.000,0.000,0.000,0.000,0.000,0.000,0.000,0.000,0.000,0.000,0.000,0.000,0.000
86.051,1,0,0.028,0.565,72.218,2.024,1.819,123.133,2.924,1.687,106.779,0.000,0.000,0.0103675,0.000,7500.000,0.327,1.735,1003.160,14.499,84.297,84.405,106.832,0.081,0.248,0.025,0.005,-0.022,0.000,0.000,0.000,0.004,0.696,-0.007,0.718,0.0000000,0.0000000,84.197,0.000,0.000,0.000,0,00:00:00,0,0.000,0.000,0.000,0.000,0.000,0.000,0.000,0.000,0.000,0.000,0.000,0.000,0.000,0.000
86.152,1,0,0.223,0.685,86.973,2.297,1.962,135.341,2.817,1.777,107.786,0.000,0.000,0.0103675,0.000,7500.000,0.363,1.705,1001.561,14.406,97.720,97.829,107.836,0.157,0.442,-0.001,-0.006,-0.017,0.000,0.000,0.000,0.003,0.696,-0.007,0.718,0.0000000,0.0000000,98.027,0.000,0.000,0.000,0,00:00:00,0,0.000,0.000,0.000,0.000,0.000,0.000,0.000,0.000,0.000,0.000,0.000,0.000,0.000,0.000
86.253,1,0,0.424,0.805,102.848,2.567,2.078,147.562,2.904,1.569,108.790,0.000,0.000,0.0103675,0.000,7500.000,0.399,1.737,999.759,14.311,112.868,112.976,108.839,0.035,0.353,-0.010,0.003,-0.009,0.000,0.000,0.000,0.003,0.696,-0.007,0.718,0.0000000,0.0000000,112.947,0.000,0.000,0.000,0,00:00:00,0,0.000,0.000,0.000,0.000,0.000,0.000,0.000,0.000,0.000,0.000,0.000,0.000,0.000,0.000
86.354,1,0,0.631,0.925,119.799,2.822,2.192,159.717,2.854,1.618,109.327,0.000,0.000,0.0103675,0.000,7500.000,0.435,1.720,997.863,14.206,128.826,128.934,109.376,0.018,0.407,0.006,0.002,0.026,0.000,0.000,0.000,0.004,0.696,-0.007,0.718,0.0000000,0.0000000,128.965,0.000,0.000,0.000,0,00:00:00,0,0.000,0.000,0.000,0.000,0.000,0.000,0.000,0.000,0.000,0.000,0.000,0.000,0.000,0.000
86.455,1,0,0.844,1.043,137.864,3.116,2.272,171.885,3.355,1.338,110.331,0.000,0.000,0.0103675,0.000,7500.000,0.471,1.712,995.806,14.095,146.168,146.276,110.390,-0.054,0.215,-0.022,-0.026,-0.054,0.000,0.000,0.000,0.001,0.696,-0.008,0.718,0.0000000,0.0000000,146.090,0.000,0.000,0.000,0,00:00:00,0,0.000,0.000,0.000,0.000,0.000,0.000,0.000,0.000,0.000,0.000,0.000,0.000,0.000,0.000
86.556,1,0,1.062,1.158,157.020,3.396,2.398,184.021,3.326,1.862,111.062,0.000,0.000,0.0103675,0.000,7500.000,0.507,1.860,993.641,13.974,164.456,164.564,111.127,0.137,0.298,0.029,-0.003,-0.017,0.000,0.000,0.000,0.002,0.695,-0.009,0.719,0.0000000,0.0000000,164.330,0.000,0.000,0.000,0,00:00:00,0,0.000,0.000,0.000,0.000,0.000,0.000,0.000,0.000,0.000,0.000,0.000,0.000,0.000,0.000
86.657,1,0,1.287,1.274,177.213,3.682,2.501,196.097,3.509,1.686,111.909,0.000,0.000,0.0103675,0.000,7500.000,0.543,1.879,991.395,13.845,183.461,183.569,111.977,0.052,0.309,-0.009,-0.015,-0.004,0.000,0.000,0.000,0.001,0.695,-0.009,0.719,0.0000000,0.0000000,183.693,0.000,0.000,0.000,0,00:00:00,0,0.000,0.000,0.000,0.000,0.000,0.000,0.000,0.000,0.000,0.000,0.000,0.000,0.000,0.000
86.758,1,0,1.517,1.388,198.530,3.985,2.605,208.172,3.799,1.762,112.614,0.000,0.000,0.0103675,0.000,7500.000,0.579,1.964,988.952,13.713,204.171,204.279,112.691,0.122,0.207,-0.001,-0.015,-0.007,0.000,0.000,0.000,0.001,0.694,-0.009,0.720,0.0000000,0.0000000,204.187,0.000,0.000,0.000,0,00:00:00,0,0.000,0.000,0.000,0.000,0.000,0.000,0.000,0.000,0.000,0.000,0.000,0.000,0.000,0.000
86.859,1,0,1.751,1.500,220.941,4.247,2.685,220.232,3.512,1.582,113.443,0.000,0.000,0.0103675,0.000,7500.000,0.614,2.048,986.408,13.570,225.784,225.892,113.507,-0.115,0.422,0.005,0.010,0.033,0.000,0.000,0.000,0.002,0.695,-0.008,0.719,0.0000000,0.0000000,225.821,0.000,0.000,0.000,0,00:00:00,0,0.000,0.000,0.000,0.000,0.000,0.000,0.000,0.000,0.000,0.000,0.000,0.000,0.000,0.000
86.960,1,0,1.985,1.609,244.518,4.468,2.774,232.331,3.238,1.725,114.235,0.000,0.000,0.0103675,0.000,7500.000,0.650,1.993,983.679,13.420,249.016,249.124,114.293,0.038,0.352,-0.002,0.032,-0.010,0.000,0.000,0.000,0.002,0.696,-0.009,0.718,0.0000000,0.0000000,248.602,0.000,0.000,0.000,0,00:00:00,0,0.000,0.000,0.000,0.000,0.000,0.000,0.000,0.000,0.000,0.000,0.000,0.000,0.000,0.000
87.061,1,0,2.217,1.714,269.176,4.663,2.823,244.415,3.097,1.389,115.169,0.000,0.000,0.0103675,0.000,7500.000,0.686,1.808,980.894,13.263,272.780,272.888,115.218,-0.007,0.237,-0.026,0.025,0.011,0.000,0.000,0.000,0.001,0.697,-0.007,0.717,0.0000000,0.0000000,272.537,0.000,0.000,0.000,0,00:00:00,0,0.000,0.000,0.000,0.000,0.000,0.000,0.000,0.000,0.000,0.000,0.000,0.000,0.000,0.000
87.162,1,0,2.442,1.814,294.905,4.813,2.889,256.460,2.766,1.603,115.917,0.000,0.000,0.0103675,0.000,7500.000,0.722,1.664,977.996,13.098,297.566,297.674,115.960,-0.023,0.499,0.019,0.008,0.002,0.000,0.000,0.000,0.002,0.697,-0.008,0.717,0.0000000,0.0000000,297.634,0.000,0.000,0.000,0,00:00:00,0,0.000,0.000,0.000,0.000,0.000,0.000,0.000,0.000,0.000,0.000,0.000,0.000,0.000,0.000
87.263,1,0,2.661,1.910,321.830,4.963,2.916,268.560,2.887,1.276,116.638,0.000,0.000,0.0103675,0.000,7500.000,0.758,1.620,974.872,12.929,324.346,324.454,116.680,-0.029,0.406,-0.028,-0.000,0.018,0.000,0.000,0.000,0.002,0.697,-0.006,0.717,0.0000000,0.0000000,323.901,0.000,0.000,0.000,0,00:00:00,0,0.000,0.000,0.000,0.000,0.000,0.000,0.000,0.000,0.000,0.000,0.000,0.000,0.000,0.000
87.364,1,0,2.871,1.997,346.032,5.103,2.905,277.713,2.894,0.945,116.641,0.000,0.000,0.0103675,0.000,7500.000,0.794,1.621,974.872,12.929,324.346,324.454,116.680,-0.029,0.406,-0.028,-0.000,0.018,0.000,0.000,0.000,0.001,0.697,-0.005,0.717,0.0000000,0.0000000,323.901,0.000,0.000,0.000,0,00:00:00,0,0.000,0.000,0.000,0.000,0.000,0.000,0.000,0.000,0.000,0.000,0.000,0.000,0.000,0.000
87.465,1,0,3.075,2.074,375.445,5.244,2.885,290.201,3.019,0.885,118.009,0.000,0.000,0.0103675,0.000,7500.000,0.821,1.623,968.405,12.561,380.015,380.123,118.050,-0.005,0.517,-0.007,-0.016,0.042,0.000,0.000,0.000,0.002,0.696,-0.003,0.718,0.0000000,0.0000000,379.973,0.000,0.000,0.000,0,00:00:00,0,0.000,0.000,0.000,0.000,0.000,0.000,0.000,0.000,0.000,0.000,0.000,0.000,0.000,0.000
87.566,1,0,3.274,2.141,406.007,5.404,2.832,302.688,3.302,0.607,118.857,0.000,0.000,0.0103675,0.000,7500.000,0.858,1.717,964.953,12.366,409.858,409.967,118.904,-0.070,0.359,-0.018,-0.008,0.004,0.000,0.000,0.000,0.002,0.696,-0.002,0.718,0.0000000,0.0000000,409.791,0.000,0.000,0.000,0,00:00:00,0,0.000,0.000,0.000,0.000,0.000,0.000,0.000,0.000,0.000,0.000,0.000,0.000,0.000,0.000
87.667,1,0,3.469,2.196,433.370,5.563,2.755,311.842,3.402,0.388,118.855,0.000,0.000,0.0103675,0.000,7500.000,0.895,1.765,964.953,12.366,409.858,409.967,118.904,-0.070,0.359,-0.018,-0.008,0.004,0.000,0.000,0.000,0.001,0.696,-0.001,0.718,0.0000000,0.0000000,409.791,0.000,0.000,0.000,0,00:00:00,0,0.000,0.000,0.000,0.000,0.000,0.000,0.000,0.000,0.000,0.000,0.000,0.000,0.000,0.000
87.768,1,0,3.661,2.238,466.568,5.757,2.670,324.783,3.841,0.340,120.074,0.000,0.000,0.0103675,0.000,7500.000,0.922,1.813,957.665,11.949,473.138,473.247,120.135,-0.087,0.400,-0.003,-0.037,-0.008,0.000,0.000,0.000,0.001,0.695,-0.002,0.719,0.0000000,0.0000000,473.026,0.000,0.000,0.000,0,00:00:00,0,0.000,0.000,0.000,0.000,0.000,0.000,0.000,0.000,0.000,0.000,0.000,0.000,0.000,0.000
87.869,1,0,3.855,2.269,500.923,5.983,2.603,337.675,4.269,0.523,120.714,0.000,0.000,0.0103675,0.000,7500.000,0.961,2.023,953.834,11.731,506.561,506.669,120.790,0.025,0.425,0.005,-0.036,-0.025,0.000,0.000,0.000,0.000,0.693,-0.003,0.721,0.0000000,0.0000000,506.455,0.000,0.000,0.000,0,00:00:00,0,0.000,0.000,0.000,0.000,0.000,0.000,0.000,0.000,0.000,0.000,0.000,0.000,0.000,0.000
87.970,1,0,4.050,2.292,536.425,6.186,2.543,350.504,4.140,0.617,121.260,0.000,0.000,0.0103675,0.000,7500.000,1.000,2.228,949.889,11.508,541.091,541.199,121.332,-0.002,0.307,0.010,0.022,0.010,0.000,0.000,0.000,0.001,0.694,-0.003,0.720,0.0000000,0.0000000,541.101,0.000,0.000,0.000,0,00:00:00,0,0.000,0.000,0.000,0.000,0.000,0.000,0.000,0.000,0.000,0.000,0.000,0.000,0.000,0.000
88.071,1,0,4.243,2.306,573.119,6.338,2.476,363.306,3.734,0.545,121.779,0.000,0.000,0.0103675,0.000,7500.000,1.038,2.101,945.784,11.270,577.138,577.246,121.836,-0.026,0.421,-0.004,0.026,0.013,0.000,0.000,0.000,0.001,0.695,-0.002,0.719,0.0000000,0.0000000,576.968,0.000,0.000,0.000,0,00:00:00,0,0.000,0.000,0.000,0.000,0.000,0.000,0.000,0.000,0.000,0.000,0.000,0.000,0.000,0.000
88.172,1,0,4.432,2.312,611.048,6.509,2.368,376.141,4.020,0.146,122.564,0.000,0.000,0.0103675,0.000,7500.000,1.077,1.954,941.525,11.024,614.682,614.790,122.630,-0.033,0.231,-0.032,-0.006,0.022,0.000,0.000,0.000,0.001,0.695,-0.000,0.719,0.0000000,0.0000000,614.064,0.000,0.000,0.000,0,00:00:00,0,0.000,0.000,0.000,0.000,0.000,0.000,0.000,0.000,0.000,0.000,0.000,0.000,0.000,0.000
88.273,1,0,4.619,2.307,650.079,6.667,2.270,388.870,4.001,0.251,122.979,0.000,0.000,0.0103675,0.000,7500.000,1.115,1.987,937.250,10.776,652.504,652.613,123.044,0.106,0.434,-0.002,-0.014,0.012,0.000,0.000,0.000,0.001,0.694,0.000,0.720,0.0000000,0.0000000,652.393,0.000,0.000,0.000,0,00:00:00,0,0.000,0.000,0.000,0.000,0.000,0.000,0.000,0.000,0.000,0.000,0.000,0.000,0.000,0.000
88.374,1,0,4.804,2.293,684.745,6.834,2.170,397.378,4.171,0.215,122.974,0.000,0.000,0.0103675,0.000,7500.000,1.154,2.065,937.250,10.776,652.504,652.613,123.044,0.106,0.434,-0.002,-0.014,0.012,0.000,0.000,0.000,0.002,0.694,0.001,0.720,0.0000000,0.0000000,652.393,0.000,0.000,0.000,0,00:00:00,0,0.000,0.000,0.000,0.000,0.000,0.000,0.000,0.000,0.000,0.000,0.000,0.000,0.000,0.000
88.475,1,0,4.986,2.272,726.568,6.997,2.071,410.710,4.238,0.211,124.201,0.000,0.000,0.0103675,0.000,7500.000,1.179,2.144,928.210,10.247,732.934,733.042,124.273,0.107,0.242,-0.000,0.014,0.003,0.000,0.000,0.000,0.002,0.694,0.001,0.720,0.0000000,0.0000000,732.772,0.000,0.000,0.000,0,00:00:00,0,0.000,0.000,0.000,0.000,0.000,0.000,0.000,0.000,0.000,0.000,0.000,0.000,0.000,0.000
88.576,1,0,5.165,2.244,769.629,7.154,1.978,424.002,4.269,0.260,124.624,0.000,0.000,0.0103675,0.000,7500.000,1.219,2.066,923.477,9.973,775.309,775.417,124.697,0.011,0.313,0.012,-0.007,0.016,0.000,0.000,0.000,0.003,0.694,0.001,0.720,0.0000000,0.0000000,774.832,0.000,0.000,0.000,0,00:00:00,0,0.000,0.000,0.000,0.000,0.000,0.000,0.000,0.000,0.000,0.000,0.000,0.000,0.000,0.000
88.677,1,0,5.343,2.210,813.902,7.318,1.883,437.225,4.440,0.219,124.917,0.000,0.000,0.0103675,0.000,7500.000,1.260,2.105,918.642,9.689,818.769,818.877,124.995,-0.064,0.445,0.002,-0.023,-0.005,0.000,0.000,0.000,0.003,0.693,0.001,0.721,0.0000000,0.0000000,818.145,0.000,0.000,0.000,0,00:00:00,0,0.000,0.000,0.000,0.000,0.000,0.000,0.000,0.000,0.000,0.000,0.000,0.000,0.000,0.000
88.778,1,0,5.519,2.171,859.361,7.498,1.783,450.404,4.680,0.155,125.614,0.000,0.000,0.0103675,0.000,7500.000,1.299,2.239,913.709,9.395,863.298,863.407,125.701,0.045,0.303,-0.013,-0.006,0.017,0.000,0.000,0.000,0.003,0.693,0.002,0.721,0.0000000,0.0000000,862.717,0.000,0.000,0.000,0,00:00:00,0,0.000,0.000,0.000,0.000,0.000,0.000,0.000,0.000,0.000,0.000,0.000,0.000,0.000,0.000
88.879,1,0,5.694,2.126,905.994,7.638,1.694,463.506,4.378,0.238,126.032,0.000,0.000,0.0103675,0.000,7500.000,1.339,2.271,908.675,9.097,908.949,909.057,126.108,0.222,0.321,-0.008,0.024,-0.009,0.000,0.000,0.000,0.002,0.694,0.002,0.720,0.0000000,0.0000000,908.550,0.000,0.000,0.000,0,00:00:00,0,0.000,0.000,0.000,0.000,0.000,0.000,0.000,0.000,0.000,0.000,0.000,0.000,0.000,0.000
88.980,1,0,5.864,2.076,953.822,7.767,1.583,476.538,4.365,-0.009,126.297,0.000,0.000,0.0103675,0.000,7500.000,1.379,2.135,903.512,8.790,955.980,956.088,126.372,-0.005,0.405,-0.003,-0.005,-0.042,0.000,0.000,0.000,0.001,0.694,0.001,0.720,0.0000000,0.0000000,955.650,0.000,0.000,0.000,0,00:00:00,0,0.000,0.000,0.000,0.000,0.000,0.000,0.000,0.000,0.000,0.000,0.000,0.000,0.000,0.000
89.081,1,0,6.031,2.018,1002.907,7.917,1.401,489.573,4.661,-0.744,126.773,0.000,0.000,0.0103675,0.000,7500.000,1.419,2.163,898.189,8.466,1004.689,1004.797,126.860,-0.005,0.226,-0.058,-0.008,0.002,0.000,0.000,0.000,-0.001,0.693,0.003,0.721,0.0000000,0.0000000,1004.020,0.000,0.000,0.000,0,00:00:00,0,0.000,0.000,0.000,0.000,0.000,0.000,0.000,0.000,0.000,0.000,0.000,0.000,0.000,0.000
89.182,1,0,6.194,1.947,1053.233,8.014,1.193,502.587,4.215,-1.029,127.149,0.000,0.000,0.0103675,0.000,7500.000,1.458,2.208,892.768,8.146,1054.544,1054.652,127.223,-0.029,0.273,-0.020,0.032,0.021,0.000,0.000,0.000,-0.001,0.695,0.004,0.719,0.0000000,0.0000000,1053.664,0.000,0.000,0.000,0,00:00:00,0,0.000,0.000,0.000,0.000,0.000,0.000,0.000,0.000,0.000,0.000,0.000,0.000,0.000,0.000
89.283,1,0,6.349,1.864,1104.728,8.073,0.986,515.545,3.922,-1.077,127.684,0.000,0.000,0.0103675,0.000,7500.000,1.498,2.024,887.295,7.811,1105.125,1105.233,127.748,0.052,0.319,-0.010,0.021,0.006,0.000,0.000,0.000,-0.001,0.695,0.005,0.719,0.0000000,0.0000000,1104.585,0.000,0.000,0.000,0,00:00:00,0,0.000,0.000,0.000,0.000,0.000,0.000,0.000,0.000,0.000,0.000,0.000,0.000,0.000,0.000
89.384,1,0,6.495,1.768,1157.435,8.146,0.736,528.443,4.144,-1.540,127.814,0.000,0.000,0.0103675,0.000,7500.000,1.537,1.904,881.686,7.470,1157.232,1157.341,127.891,0.003,0.201,-0.032,-0.008,0.018,0.000,0.000,0.000,-0.002,0.695,0.006,0.719,0.0000000,0.0000000,1156.787,0.000,0.000,0.000,0,00:00:00,0,0.000,0.000,0.000,0.000,0.000,0.000,0.000,0.000,0.000,0.000,0.000,0.000,0.000,0.000
89.485,1,0,6.634,1.657,1211.406,8.203,0.474,541.345,4.046,-1.726,128.152,0.000,0.000,0.0103675,0.000,7500.000,1.577,1.951,875.931,7.120,1210.961,1211.069,128.227,-0.051,0.264,-0.009,0.003,0.042,0.000,0.000,0.000,-0.001,0.695,0.008,0.719,0.0000000,0.0000000,1210.272,0.000,0.000,0.000,0,00:00:00,0,0.000,0.000,0.000,0.000,0.000,0.000,0.000,0.000,0.000,0.000,0.000,0.000,0.000,0.000
89.586,1,0,6.763,1.532,1266.617,8.225,0.190,554.248,3.774,-2.006,128.643,0.000,0.000,0.0103675,0.000,7500.000,1.616,1.934,870.093,6.759,1265.769,1265.877,128.714,0.046,0.247,-0.029,0.024,0.012,0.000,0.000,0.000,-0.001,0.696,0.010,0.718,0.0000000,0.0000000,1265.043,0.000,0.000,0.000,0,00:00:00,0,0.000,0.000,0.000,0.000,0.000,0.000,0.000,0.000,0.000,0.000,0.000,0.000,0.000,0.000
89.687,1,0,6.882,1.393,1323.102,8.242,-0.084,567.157,3.791,-1.974,128.941,0.000,0.000,0.0103675,0.000,7500.000,1.656,1.800,864.129,6.392,1322.061,1322.169,129.011,0.162,0.330,-0.008,-0.006,-0.059,0.000,0.000,0.000,-0.004,0.696,0.008,0.718,0.0000000,0.0000000,1321.104,0.000,0.000,0.000,0,00:00:00,0,0.000,0.000,0.000,0.000,0.000,0.000,0.000,0.000,0.000,0.000,0.000,0.000,0.000,0.000
89.788,2,0,6.964,1.256,1379.640,7.667,-0.057,561.295,-2.029,0.926,-54.590,0.000,0.000,0.0103675,0.000,7500.000,1.695,1.836,858.375,6.035,1376.673,1376.781,-54.635,0.088,0.297,0.014,0.002,0.036,0.000,0.000,0.000,-0.002,0.696,0.009,0.718,0.0000000,0.0000000,1375.701,0.000,0.000,0.000,0,00:00:00,0,0.000,0.000,0.000,0.000,0.000,0.000,0.000,0.000,0.000,0.000,0.000,0.000,0.000,0.000
89.889,2,0,6.986,1.135,1435.290,7.107,-0.015,555.309,-1.876,1.008,-53.588,0.000,0.000,0.0123727,0.000,6800.285,1.679,1.826,852.737,5.681,1430.473,1430.581,-53.629,0.047,0.368,-0.026,0.036,-0.014,0.000,0.000,0.000,-0.004,0.697,0.009,0.717,0.0000000,0.0000000,1429.767,0.000,0.000,0.000,0,00:00:00,0,0.000,0.000,0.000,0.000,0.000,0.000,0.000,0.000,0.000,0.000,0.000,0.000,0.000,0.000
89.990,2,0,6.956,1.030,1482.621,6.567,0.046,543.559,-1.685,1.146,-53.592,0.000,0.000,0.0124250,0.000,6795.685,1.662,1.621,852.737,5.681,1430.473,1430.581,-53.629,0.047,0.368,-0.026,0.036,-0.014,0.000,0.000,0.000,-0.005,0.698,0.009,0.716,0.0000000,0.0000000,1429.767,0.000,0.000,0.000,0,00:00:00,0,0.000,0.000,0.000,0.000,0.000,0.000,0.000,0.000,0.000,0.000,0.000,0.000,0.000,0.000
90.091,2,0,6.880,0.941,1537.218,6.035,0.120,538.340,-1.649,1.228,-51.370,0.000,0.000,0.0126446,0.000,6664.763,1.627,1.415,841.677,4.980,1536.858,1536.966,-51.410,0.090,0.373,-0.017,-0.002,-0.025,0.000,0.000,0.000,-0.006,0.698,0.009,0.716,0.0000000,0.0000000,1536.350,0.000,0.000,0.000,0,00:00:00,0,0.000,0.000,0.000,0.000,0.000,0.000,0.000,0.000,0.000,0.000,0.000,0.000,0.000,0.000
90.192,2,0,6.762,0.867,1591.127,5.492,0.194,533.106,-1.823,1.187,-50.299,0.000,0.000,0.0126977,0.000,6666.455,1.613,1.428,836.221,4.638,1589.749,1589.858,-50.342,0.098,0.619,0.005,0.009,-0.007,0.000,0.000,0.000,-0.007,0.699,0.009,0.715,0.0000000,0.0000000,1588.887,0.000,0.000,0.000,0,00:00:00,0,0.000,0.000,0.000,0.000,0.000,0.000,0.000,0.000,0.000,0.000,0.000,0.000,0.000,0.000
90.293,2,0,6.605,0.806,1637.026,4.961,0.268,522.281,-1.778,1.162,-50.301,0.000,0.000,0.0127398,0.000,6667.409,1.599,1.376,836.221,4.638,1589.749,1589.858,-50.342,0.098,0.619,0.005,0.009,-0.007,0.000,0.000,0.000,-0.007,0.699,0.008,0.715,0.0000000,0.0000000,1588.887,0.000,0.000,0.000,0,00:00:00,0,0.000,0.000,0.000,0.000,0.000,0.000,0.000,0.000,0.000,0.000,0.000,0.000,0.000,0.000
90.394,2,0,6.417,0.758,1690.058,4.473,0.322,517.759,-1.456,0.936,-48.700,0.000,0.000,0.0128682,0.000,6572.977,1.566,1.323,825.633,3.958,1693.204,1693.312,-48.730,-0.117,0.242,-0.005,-0.019,-0.006,0.000,0.000,0.000,-0.007,0.698,0.008,0.716,0.0000000,0.0000000,1692.500,0.000,0.000,0.000,0,00:00:00,0,0.000,0.000,0.000,0.000,0.000,0.000,0.000,0.000,0.000,0.000,0.000,0.000,0.000,0.000
90.495,2,0,6.201,0.719,1742.444,3.974,0.384,513.211,-1.687,0.986,-47.498,0.000,0.000,0.0129410,0.000,6572.572,1.554,1.429,820.435,3.624,1744.389,1744.498,-47.536,-0.125,0.456,-0.018,-0.009,-0.016,0.000,0.000,0.000,-0.008,0.698,0.008,0.716,0.0000000,0.0000000,1743.595,0.000,0.000,0.000,0,00:00:00,0,0.000,0.000,0.000,0.000,0.000,0.000,0.000,0.000,0.000,0.000,0.000,0.000,0.000,0.000
90.596,2,0,5.961,0.690,1794.130,3.496,0.461,508.563,-1.596,1.123,-46.692,0.000,0.000,0.0129923,0.000,6576.092,1.542,1.484,815.364,3.294,1794.574,1794.682,-46.731,0.068,0.296,0.008,-0.020,0.005,0.000,0.000,0.000,-0.008,0.697,0.008,0.717,0.0000000,0.0000000,1794.226,0.000,0.000,0.000,0,00:00:00,0,0.000,0.000,0.000,0.000,0.000,0.000,0.000,0.000,0.000,0.000,0.000,0.000,0.000,0.000
90.697,2,0,5.701,0.671,1845.260,3.040,0.545,503.928,-1.513,1.192,-45.883,0.000,0.000,0.0130416,0.000,6577.371,1.529,1.596,810.280,2.965,1845.144,1845.252,-45.922,0.120,0.261,-0.008,0.006,-0.007,0.000,0.000,0.000,-0.008,0.697,0.008,0.717,0.0000000,0.0000000,1844.403,0.000,0.000,0.000,0,00:00:00,0,0.000,0.000,0.000,0.000,0.000,0.000,0.000,0.000,0.000,0.000,0.000,0.000,0.000,0.000
90.798,2,0,5.424,0.662,1895.801,2.601,0.628,499.276,-1.498,1.170,-45.126,0.000,0.000,0.0130891,0.000,6581.366,1.516,1.563,805.300,2.635,1894.924,1895.032,-45.165,0.163,0.232,0.010,-0.007,-0.009,0.000,0.000,0.000,-0.008,0.697,0.008,0.717,0.0000000,0.0000000,1894.133,0.000,0.000,0.000,0,00:00:00,0,0.000,0.000,0.000,0.000,0.000,0.000,0.000,0.000,0.000,0.000,0.000,0.000,0.000,0.000
90.899,2,0,5.133,0.660,1945.815,2.175,0.681,494.662,-1.520,0.870,-44.302,0.000,0.000,0.0131366,0.000,6581.723,1.503,1.605,800.360,2.314,1944.558,1944.666,-44.336,0.100,0.262,0.049,-0.003,-0.007,0.000,0.000,0.000,-0.007,0.697,0.006,0.717,0.0000000,0.0000000,1943.424,0.000,0.000,0.000,0,00:00:00,0,0.000,0.000,0.000,0.000,0.000,0.000,0.000,0.000,0.000,0.000,0.000,0.000,0.000,0.000
91.000,2,0,4.832,0.662,1988.418,1.763,0.712,484.859,-1.536,0.652,-44.305,0.000,0.000,0.0131819,0.000,6582.051,1.489,1.625,800.360,2.314,1944.558,1944.666,-44.336,0.100,0.262,0.049,-0.003,-0.007,0.000,0.000,0.000,-0.005,0.697,0.004,0.717,0.0000000,0.0000000,1943.424,0.000,0.000,0.000,0,00:00:00,0,0.000,0.000,0.000,0.000,0.000,0.000,0.000,0.000,0.000,0.000,0.000,0.000,0.000,0.000
91.101,2,0,4.522,0.666,2037.772,1.385,0.738,480.985,-1.359,0.609,-42.802,0.000,0.000,0.0132679,0.000,6504.310,1.460,1.645,790.796,1.679,2041.351,2041.459,-42.827,-0.005,0.230,-0.019,0.024,0.003,0.000,0.000,0.000,-0.006,0.698,0.005,0.716,0.0000000,0.0000000,2040.721,0.000,0.000,0.000,0,00:00:00,0,0.000,0.000,0.000,0.000,0.000,0.000,0.000,0.000,0.000,0.000,0.000,0.000,0.000,0.000
91.202,2,0,4.208,0.673,2079.872,1.035,0.772,471.984,-1.258,0.690,-42.804,0.000,0.000,0.0133279,0.000,6509.989,1.450,1.510,790.796,1.679,2041.351,2041.459,-42.827,-0.005,0.230,-0.019,0.024,0.003,0.000,0.000,0.000,-0.006,0.699,0.005,0.716,0.0000000,0.0000000,2040.721,0.000,0.000,0.000,0,00:00:00,0,0.000,0.000,0.000,0.000,0.000,0.000,0.000,0.000,0.000,0.000,0.000,0.000,0.000,0.000
91.303,2,0,3.893,0.681,2128.747,0.707,0.788,468.865,-1.196,0.513,-41.346,0.000,0.000,0.0134202,0.000,6438.196,1.423,1.375,781.405,1.053,2137.321,2137.429,-41.365,-0.086,0.262,0.017,0.015,-0.013,0.000,0.000,0.000,-0.006,0.699,0.004,0.715,0.0000000,0.0000000,2136.351,0.000,0.000,0.000,0,00:00:00,0,0.000,0.000,0.000,0.000,0.000,0.000,0.000,0.000,0.000,0.000,0.000,0.000,0.000,0.000
91.404,2,0,3.578,0.690,2177.088,0.393,0.818,465.648,-1.232,0.668,-40.686,0.000,0.000,0.0103675,0.000,7130.542,1.415,1.291,776.841,0.743,2184.304,2184.413,-40.708,-0.013,0.344,-0.023,0.007,0.000,0.000,0.000,0.000,-0.007,0.699,0.005,0.715,0.0000000,0.0000000,2183.558,0.000,0.000,0.000,0,00:00:00,0,0.000,0.000,0.000,0.000,0.000,0.000,0.000,0.000,0.000,0.000,0.000,0.000,0.000,0.000
91.505,2,0,3.264,0.702,2225.004,0.091,0.861,462.424,-1.275,0.790,-39.979,0.000,0.000,0.0106111,0.000,7083.746,1.406,1.249,772.270,0.436,2231.575,2231.683,-40.004,0.090,0.490,-0.007,0.022,0.025,0.000,0.000,0.000,-0.006,0.700,0.006,0.714,0.0000000,0.0000000,2230.369,0.000,0.000,0.000,0,00:00:00,0,0.000,0.000,0.000,0.000,0.000,0.000,0.000,0.000,0.000,0.000,0.000,0.000,0.000,0.000
91.606,2,0,2.955,0.717,2272.429,-0.163,0.890,459.145,-0.961,0.669,-39.279,0.000,0.000,0.0108288,0.000,7047.860,1.397,1.123,767.806,0.131,2277.972,2278.080,-39.295,-0.092,0.219,-0.020,0.008,-0.052,0.000,0.000,0.000,-0.009,0.700,0.005,0.714,0.0000000,0.0000000,2276.790,0.000,0.000,0.000,0,00:00:00,0,0.000,0.000,0.000,0.000,0.000,0.000,0.000,0.000,0.000,0.000,0.000,0.000,0.000,0.000
91.707,2,0,2.650,0.733,2319.375,-0.431,0.936,455.822,-1.259,0.840,-38.581,0.000,0.000,0.0110243,0.000,7015.078,1.388,1.077,763.398,-0.173,2323.984,2324.092,-38.610,0.023,0.348,-0.017,-0.047,0.016,0.000,0.000,0.000,-0.009,0.699,0.006,0.715,0.0000000,0.0000000,2322.827,0.000,0.000,0.000,0,00:00:00,0,0.000,0.000,0.000,0.000,0.000,0.000,0.000,0.000,0.000,0.000,0.000,0.000,0.000,0.000
91.808,2,0,2.350,0.752,2365.813,-0.681,0.980,452.422,-1.233,0.831,-38.064,0.000,0.000,0.0112016,0.000,6987.978,1.379,1.348,759.073,-0.473,2369.355,2369.463,-38.091,-0.060,0.357,-0.023,0.006,-0.016,0.000,0.000,0.000,-0.010,0.699,0.006,0.715,0.0000000,0.0000000,2368.487,0.000,0.000,0.000,0,00:00:00,0,0.000,0.000,0.000,0.000,0.000,0.000,0.000,0.000,0.000,0.000,0.000,0.000,0.000,0.000
91.909,2,0,2.057,0.773,2411.854,-0.902,1.023,449.040,-1.105,0.824,-37.453,0.000,0.000,0.0113662,0.000,6962.312,1.369,1.311,754.737,-0.768,2415.039,2415.147,-37.477,-0.072,0.208,-0.005,-0.009,0.004,0.000,0.000,0.000,-0.010,0.699,0.007,0.715,0.0000000,0.0000000,2413.774,0.000,0.000,0.000,0,00:00:00,0,0.000,0.000,0.000,0.000,0.000,0.000,0.000,0.000,0.000,0.000,0.000,0.000,0.000,0.000
92.010,2,0,1.772,0.795,2457.435,-1.114,1.055,445.635,-1.172,0.736,-36.795,0.000,0.000,0.0115182,0.000,6939.519,1.360,1.365,750.502,-1.060,2459.875,2459.984,-36.819,-0.084,0.366,0.016,0.020,0.004,0.000,0.000,0.000,-0.009,0.699,0.006,0.715,0.0000000,0.0000000,2458.696,0.000,0.000,0.000,0,00:00:00,0,0.000,0.000,0.000,0.000,0.000,0.000,0.000,0.000,0.000,0.000,0.000,0.000,0.000,0.000
92.111,2,0,1.495,0.820,2502.572,-1.308,1.105,442.194,-1.138,0.927,-36.388,0.000,0.000,0.0116583,0.000,6922.801,1.350,1.249,746.316,-1.352,2504.392,2504.500,-36.415,0.069,0.350,-0.013,0.003,-0.015,0.000,0.000,0.000,-0.010,0.699,0.006,0.715,0.0000000,0.0000000,2503.256,0.000,0.000,0.000,0,00:00:00,0,0.000,0.000,0.000,0.000,0.000,0.000,0.000,0.000,0.000,0.000,0.000,0.000,0.000,0.000
92.212,2,0,1.226,0.846,2547.265,-1.491,1.144,438.747,-1.166,0.832,-35.707,0.000,0.000,0.0117923,0.000,6904.087,1.340,1.231,742.190,-1.640,2548.467,2548.575,-35.734,0.047,0.361,0.016,-0.009,-0.006,0.000,0.000,0.000,-0.010,0.699,0.005,0.715,0.0000000,0.0000000,2547.461,0.000,0.000,0.000,0,00:00:00,0,0.000,0.000,0.000,0.000,0.000,0.000,0.000,0.000,0.000,0.000,0.000,0.000,0.000,0.000
92.313,2,0,0.967,0.872,2585.395,-1.664,1.176,430.657,-1.198,0.775,-35.707,0.000,0.000,0.0119164,0.000,6889.319,1.331,1.282,742.190,-1.640,2548.467,2548.575,-35.734,0.047,0.361,0.016,-0.009,-0.006,0.000,0.000,0.000,-0.010,0.699,0.005,0.715,0.0000000,0.0000000,2547.461,0.000,0.000,0.000,0,00:00:00,0,0.000,0.000,0.000,0.000,0.000,0.000,0.000,0.000,0.000,0.000,0.000,0.000,0.000,0.000
92.414,2,0,0.717,0.899,2617.479,-1.826,1.201,418.660,-1.230,0.718,-35.707,0.000,0.000,0.0120549,0.000,6797.953,1.306,1.334,742.190,-1.640,2548.467,2548.575,-35.734,0.047,0.361,0.016,-0.009,-0.006,0.000,0.000,0.000,-0.009,0.698,0.004,0.716,0.0000000,0.0000000,2547.461,0.000,0.000,0.000,0,00:00:00,0,0.000,0.000,0.000,0.000,0.000,0.000,0.000,0.000,0.000,0.000,0.000,0.000,0.000,0.000
92.515,2,0,0.476,0.926,2662.360,-1.957,1.230,417.270,-1.048,0.782,-34.253,0.000,0.000,0.0122186,0.000,6644.344,1.270,1.386,730.055,-2.498,2679.251,2679.360,-34.277,0.124,0.263,-0.004,0.015,-0.002,0.000,0.000,0.000,-0.010,0.699,0.004,0.715,0.0000000,0.0000000,2677.996,0.000,0.000,0.000,0,00:00:00,0,0.000,0.000,0.000,0.000,0.000,0.000,0.000,0.000,0.000,0.000,0.000,0.000,0.000,0.000
92.616,2,0,0.247,0.953,2706.885,-2.081,1.267,415.774,-1.097,0.862,-33.699,0.000,0.000,0.0123530,0.000,6657.302,1.268,1.301,726.084,-2.780,2722.437,2722.545,-33.725,0.152,0.415,-0.018,0.026,0.019,0.000,0.000,0.000,-0.010,0.700,0.005,0.714,0.0000000,0.0000000,2720.830,0.000,0.000,0.000,0,00:00:00,0,0.000,0.000,0.000,0.000,0.000,0.000,0.000,0.000,0.000,0.000,0.000,0.000,0.000,0.000
92.717,2,0,0.028,0.982,2745.039,-2.184,1.308,409.631,-1.006,0.925,-33.700,0.000,0.000,0.0124757,0.000,6673.633,1.264,1.149,726.084,-2.780,2722.437,2722.545,-33.725,0.152,0.415,-0.018,0.026,0.019,0.000,0.000,0.000,-0.010,0.701,0.007,0.713,0.0000000,0.0000000,2720.830,0.000,0.000,0.000,0,00:00:00,0,0.000,0.000,0.000,0.000,0.000,0.000,0.000,0.000,0.000,0.000,0.000,0.000,0.000,0.000
92.818,2,0,-0.177,1.010,2789.115,-2.254,1.317,408.458,-0.784,0.620,-32.845,0.000,0.000,0.0126084,0.000,6614.937,1.245,0.998,718.393,-3.332,2806.616,2806.724,-32.860,-0.075,0.193,0.018,-0.005,0.007,0.000,0.000,0.000,-0.009,0.701,0.006,0.713,0.0000000,0.0000000,2805.512,0.000,0.000,0.000,0,00:00:00,0,0.000,0.000,0.000,0.000,0.000,0.000,0.000,0.000,0.000,0.000,0.000,0.000,0.000,0.000
92.919,2,0,-0.370,1.035,2832.789,-2.313,1.309,407.120,-0.783,0.460,-32.372,0.000,0.000,0.0127241,0.000,6633.904,1.243,1.027,714.587,-3.607,2848.541,2848.649,-32.384,-0.139,0.203,0.026,0.001,-0.010,0.000,0.000,0.000,-0.008,0.701,0.005,0.713,0.0000000,0.0000000,2847.368,0.000,0.000,0.000,0,00:00:00,0,0.000,0.000,0.000,0.000,0.000,0.000,0.000,0.000,0.000,0.000,0.000,0.000,0.000,0.000
93.020,2,0,-0.549,1.057,2876.083,-2.364,1.294,405.640,-0.789,0.415,-31.941,0.000,0.000,0.0128309,0.000,6654.303,1.239,1.022,710.811,-3.879,2890.320,2890.428,-31.952,-0.156,0.317,0.007,0.031,0.035,0.000,0.000,0.000,-0.007,0.702,0.006,0.712,0.0000000,0.0000000,2888.907,0.000,0.000,0.000,0,00:00:00,0,0.000,0.000,0.000,0.000,0.000,0.000,0.000,0.000,0.000,0.000,0.000,0.000,0.000,0.000
93.121,2,0,-0.717,1.076,2918.934,-2.428,1.288,403.983,-1.014,0.501,-31.514,0.000,0.000,0.0129303,0.000,6671.943,1.235,0.845,707.118,-4.152,2931.350,2931.458,-31.531,-0.091,0.420,-0.010,-0.041,-0.014,0.000,0.000,0.000,-0.008,0.700,0.006,0.714,0.0000000,0.0000000,2930.133,0.000,0.000,0.000,0,00:00:00,0,0.000,0.000,0.000,0.000,0.000,0.000,0.000,0.000,0.000,0.000,0.000,0.000,0.000,0.000
93.222,2,0,-0.875,1.093,2955.635,-2.497,1.283,397.856,-1.142,0.529,-31.509,0.000,0.000,0.0130236,0.000,6686.678,1.231,1.077,707.118,-4.152,2931.350,2931.458,-31.531,-0.091,0.420,-0.010,-0.041,-0.014,0.000,0.000,0.000,-0.008,0.699,0.006,0.715,0.0000000,0.0000000,2930.133,0.000,0.000,0.000,0,00:00:00,0,0.000,0.000,0.000,0.000,0.000,0.000,0.000,0.000,0.000,0.000,0.000,0.000,0.000,0.000
93.323,2,0,-1.024,1.108,2998.102,-2.557,1.301,396.577,-1.129,0.759,-30.727,0.000,0.000,0.0131276,0.000,6631.796,1.212,1.309,699.818,-4.685,3012.971,3013.079,-30.752,0.089,0.518,-0.021,0.031,0.002,0.000,0.000,0.000,-0.009,0.700,0.006,0.714,0.0000000,0.0000000,3011.661,0.000,0.000,0.000,0,00:00:00,0,0.000,0.000,0.000,0.000,0.000,0.000,0.000,0.000,0.000,0.000,0.000,0.000,0.000,0.000
93.424,2,0,-1.163,1.125,3040.148,-2.585,1.335,395.100,-0.888,0.931,-30.503,0.000,0.000,0.0132194,0.000,6652.784,1.210,1.132,696.242,-4.948,3053.210,3053.318,-30.529,0.287,0.209,0.007,-0.024,-0.001,0.000,0.000,0.000,-0.009,0.699,0.006,0.715,0.0000000,0.0000000,3051.972,0.000,0.000,0.000,0,00:00:00,0,0.000,0.000,0.000,0.000,0.000,0.000,0.000,0.000,0.000,0.000,0.000,0.000,0.000,0.000
93.525,2,0,-1.292,1.142,3081.816,-2.609,1.339,393.497,-0.918,0.640,-30.043,0.000,0.000,0.0133081,0.000,6672.898,1.206,1.269,692.679,-5.207,3093.463,3093.572,-30.063,0.050,0.242,0.014,-0.002,-0.009,0.000,0.000,0.000,-0.009,0.699,0.005,0.715,0.0000000,0.0000000,3091.986,0.000,0.000,0.000,0,00:00:00,0,0.000,0.000,0.000,0.000,0.000,0.000,0.000,0.000,0.000,0.000,0.000,0.000,0.000,0.000
93.626,2,0,-1.411,1.156,3123.041,-2.644,1.321,391.750,-1.094,0.423,-29.374,0.000,0.000,0.0133909,0.000,6689.741,1.201,1.283,689.199,-5.472,3132.949,3133.057,-29.395,-0.141,0.399,0.005,-0.012,0.012,0.000,0.000,0.000,-0.008,0.699,0.006,0.715,0.0000000,0.0000000,3131.706,0.000,0.000,0.000,0,00:00:00,0,0.000,0.000,0.000,0.000,0.000,0.000,0.000,0.000,0.000,0.000,0.000,0.000,0.000,0.000
93.727,2,0,-1.521,1.169,3163.951,-2.662,1.332,389.927,-0.978,0.729,-29.082,0.000,0.000,0.0134656,0.000,6705.095,1.197,1.352,685.683,-5.729,3172.994,3173.103,-29.106,0.092,0.311,-0.027,0.007,-0.009,0.000,0.000,0.000,-0.009,0.699,0.006,0.715,0.0000000,0.0000000,3171.136,0.000,0.000,0.000,0,00:00:00,0,0.000,0.000,0.000,0.000,0.000,0.000,0.000,0.000,0.000,0.000,0.000,0.000,0.000,0.000
93.828,2,0,-1.622,1.182,3204.428,-2.658,1.341,387.954,-0.812,0.712,-28.708,0.000,0.000,0.0103675,0.000,7187.980,1.192,1.308,682.279,-5.984,3211.932,3212.040,-28.728,0.024,0.158,-0.021,0.002,-0.010,0.000,0.000,0.000,-0.010,0.699,0.007,0.715,0.0000000,0.0000000,3210.280,0.000,0.000,0.000,0,00:00:00,0,0.000,0.000,0.000,0.000,0.000,0.000,0.000,0.000,0.000,0.000,0.000,0.000,0.000,0.000
93.929,2,0,-1.712,1.194,3239.061,-2.649,1.356,381.764,-0.807,0.770,-28.707,0.000,0.000,0.0105142,0.000,7181.919,1.186,1.296,682.279,-5.984,3211.932,3212.040,-28.728,0.024,0.158,-0.021,0.002,-0.010,0.000,0.000,0.000,-0.012,0.699,0.007,0.715,0.0000000,0.0000000,3210.280,0.000,0.000,0.000,0,00:00:00,0,0.000,0.000,0.000,0.000,0.000,0.000,0.000,0.000,0.000,0.000,0.000,0.000,0.000,0.000
94.030,2,0,-1.795,1.207,3279.167,-2.659,1.376,380.186,-1.049,0.840,-28.139,0.000,0.000,0.0106681,0.000,7098.781,1.167,1.283,675.544,-6.491,3289.439,3289.547,-28.169,0.111,0.326,0.001,-0.031,0.005,0.000,0.000,0.000,-0.011,0.698,0.007,0.716,0.0000000,0.0000000,3287.723,0.000,0.000,0.000,0,00:00:00,0,0.000,0.000,0.000,0.000,0.000,0.000,0.000,0.000,0.000,0.000,0.000,0.000,0.000,0.000
94.131,2,0,-1.871,1.219,3318.837,-2.685,1.364,378.435,-1.236,0.519,-27.791,0.000,0.000,0.0108120,0.000,7100.140,1.164,1.461,672.265,-6.744,3327.397,3327.506,-27.816,-0.186,0.587,0.003,0.024,-0.037,0.000,0.000,0.000,-0.013,0.699,0.006,0.715,0.0000000,0.0000000,3326.029,0.000,0.000,0.000,0,00:00:00,0,0.000,0.000,0.000,0.000,0.000,0.000,0.000,0.000,0.000,0.000,0.000,0.000,0.000,0.000
94.232,2,0,-1.940,1.231,3358.102,-2.671,1.384,376.551,-0.882,0.850,-27.398,0.000,0.000,0.0109497,0.000,7098.748,1.159,1.327,669.008,-6.992,3365.250,3365.358,-27.424,0.136,0.243,-0.005,0.001,0.007,0.000,0.000,0.000,-0.012,0.699,0.006,0.715,0.0000000,0.0000000,3364.062,0.000,0.000,0.000,0,00:00:00,0,0.000,0.000,0.000,0.000,0.000,0.000,0.000,0.000,0.000,0.000,0.000,0.000,0.000,0.000
94.333,2,0,-2.002,1.242,3397.065,-2.665,1.380,374.615,-0.997,0.609,-27.076,0.000,0.000,0.0110812,0.000,7095.620,1.154,1.320,665.729,-7.239,3403.515,3403.623,-27.098,-0.050,0.411,0.017,0.016,0.004,0.000,0.000,0.000,-0.012,0.699,0.006,0.715,0.0000000,0.0000000,3401.825,0.000,0.000,0.000,0,00:00:00,0,0.000,0.000,0.000,0.000,0.000,0.000,0.000,0.000,0.000,0.000,0.000,0.000,0.000,0.000
94.434,2,0,-2.057,1.251,3435.623,-2.647,1.363,372.550,-0.903,0.486,-26.808,0.000,0.000,0.0112079,0.000,7092.636,1.148,1.228,662.547,-7.486,3440.785,3440.893,-26.825,-0.062,0.347,0.038,0.009,-0.029,0.000,0.000,0.000,-0.011,0.700,0.003,0.714,0.0000000,0.0000000,3439.321,0.000,0.000,0.000,0,00:00:00,0,0.000,0.000,0.000,0.000,0.000,0.000,0.000,0.000,0.000,0.000,0.000,0.000,0.000,0.000
94.535,2,0,-2.106,1.257,3473.787,-2.633,1.343,370.380,-0.970,0.472,-26.452,0.000,0.000,0.0113309,0.000,7090.651,1.142,1.178,659.400,-7.731,3477.799,3477.907,-26.471,-0.045,0.378,0.009,-0.016,-0.000,0.000,0.000,0.000,-0.011,0.699,0.003,0.715,0.0000000,0.0000000,3476.554,0.000,0.000,0.000,0,00:00:00,0,0.000,0.000,0.000,0.000,0.000,0.000,0.000,0.000,0.000,0.000,0.000,0.000,0.000,0.000
94.636,2,0,-2.148,1.261,3511.611,-2.605,1.328,368.138,-0.845,0.509,-26.260,0.000,0.000,0.0114497,0.000,7084.844,1.136,1.270,656.259,-7.973,3514.872,3514.980,-26.278,0.031,0.162,0.014,-0.036,-0.006,0.000,0.000,0.000,-0.011,0.698,0.002,0.716,0.0000000,0.0000000,3513.526,0.000,0.000,0.000,0,00:00:00,0,0.000,0.000,0.000,0.000,0.000,0.000,0.000,0.000,0.000,0.000,0.000,0.000,0.000,0.000
94.737,2,0,-2.184,1.264,3549.135,-2.588,1.328,365.873,-0.987,0.667,-25.934,0.000,0.000,0.0115667,0.000,7077.590,1.130,1.478,653.131,-8.213,3551.941,3552.050,-25.958,0.231,0.289,0.013,-0.007,-0.012,0.000,0.000,0.000,-0.011,0.698,0.001,0.716,0.0000000,0.0000000,3550.240,0.000,0.000,0.000,0,00:00:00,0,0.000,0.000,0.000,0.000,0.000,0.000,0.000,0.000,0.000,0.000,0.000,0.000,0.000,0.000
94.838,2,0,-2.215,1.266,3586.296,-2.573,1.310,363.517,-1.013,0.490,-25.842,0.000,0.000,0.0116803,0.000,7073.341,1.123,1.520,650.078,-8.449,3588.268,3588.376,-25.865,0.068,0.318,0.005,-0.001,0.011,0.000,0.000,0.000,-0.010,0.698,0.002,0.716,0.0000000,0.0000000,3586.700,0.000,0.000,0.000,0,00:00:00,0,0.000,0.000,0.000,0.000,0.000,0.000,0.000,0.000,0.000,0.000,0.000,0.000,0.000,0.000
94.939,2,0,-2.242,1.267,3618.044,-2.556,1.291,357.294,-1.016,0.478,-25.842,0.000,0.000,0.0117940,0.000,7065.810,1.117,1.528,650.078,-8.449,3588.268,3588.376,-25.865,0.068,0.318,0.005,-0.001,0.011,0.000,0.000,0.000,-0.010,0.697,0.002,0.717,0.0000000,0.0000000,3586.700,0.000,0.000,0.000,0,00:00:00,0,0.000,0.000,0.000,0.000,0.000,0.000,0.000,0.000,0.000,0.000,0.000,0.000,0.000,0.000
95.040,2,0,-2.265,1.266,3654.934,-2.543,1.287,355.438,-1.054,0.623,-25.266,0.000,0.000,0.0119163,0.000,6991.887,1.098,1.536,644.036,-8.924,3660.545,3660.653,-25.292,0.130,0.405,-0.037,0.014,-0.002,0.000,0.000,0.000,-0.011,0.698,0.003,0.716,0.0000000,0.0000000,3658.865,0.000,0.000,0.000,0,00:00:00,0,0.000,0.000,0.000,0.000,0.000,0.000,0.000,0.000,0.000,0.000,0.000,0.000,0.000,0.000
95.141,2,0,-2.284,1.265,3691.518,-2.532,1.295,353.547,-1.095,0.746,-24.723,0.000,0.000,0.0120313,0.000,6995.193,1.093,1.456,641.058,-9.158,3696.385,3696.493,-24.755,0.204,0.377,-0.024,-0.033,0.013,0.000,0.000,0.000,-0.011,0.697,0.004,0.717,0.0000000,0.0000000,3694.575,0.000,0.000,0.000,0,00:00:00,0,0.000,0.000,0.000,0.000,0.000,0.000,0.000,0.000,0.000,0.000,0.000,0.000,0.000,0.000
95.242,2,0,-2.302,1.263,3727.688,-2.527,1.262,351.489,-1.165,0.334,-24.728,0.000,0.000,0.0121396,0.000,6995.273,1.087,1.646,638.176,-9.389,3731.185,3731.294,-24.753,-0.159,0.430,0.021,-0.009,0.026,0.000,0.000,0.000,-0.010,0.696,0.004,0.717,0.0000000,0.0000000,3730.042,0.000,0.000,0.000,0,00:00:00,0,0.000,0.000,0.000,0.000,0.000,0.000,0.000,0.000,0.000,0.000,0.000,0.000,0.000,0.000
95.343,2,0,-2.316,1.259,3763.603,-2.510,1.234,349.442,-1.046,0.382,-24.249,0.000,0.000,0.0122491,0.000,6992.866,1.082,1.698,635.238,-9.619,3766.801,3766.909,-24.272,-0.104,0.312,0.001,-0.005,0.030,0.000,0.000,0.000,-0.009,0.696,0.006,0.718,0.0000000,0.0000000,3765.267,0.000,0.000,0.000,0,00:00:00,0,0.000,0.000,0.000,0.000,0.000,0.000,0.000,0.000,0.000,0.000,0.000,0.000,0.000,0.000
95.444,2,0,-2.327,1.254,3799.241,-2.485,1.238,347.353,-0.982,0.705,-24.140,0.000,0.000,0.0123533,0.000,6991.182,1.076,1.729,632.345,-9.848,3801.999,3802.107,-24.167,0.169,0.302,-0.022,0.022,-0.012,0.000,0.000,0.000,-0.010,0.697,0.006,0.717,0.0000000,0.0000000,3800.252,0.000,0.000,0.000,0,00:00:00,0,0.000,0.000,0.000,0.000,0.000,0.000,0.000,0.000,0.000,0.000,0.000,0.000,0.000,0.000
95.545,2,0,-2.335,1.250,3829.703,-2.455,1.248,341.554,-0.929,0.756,-24.140,0.000,0.000,0.0124575,0.000,6992.129,1.070,1.601,632.345,-9.848,3801.999,3802.107,-24.167,0.169,0.302,-0.022,0.022,-0.012,0.000,0.000,0.000,-0.011,0.698,0.006,0.716,0.0000000,0.0000000,3800.252,0.000,0.000,0.000,0,00:00:00,0,0.000,0.000,0.000,0.000,0.000,0.000,0.000,0.000,0.000,0.000,0.000,0.000,0.000,0.000
95.646,2,0,-2.340,1.246,3865.092,-2.438,1.233,339.940,-1.059,0.508,-23.477,0.000,0.000,0.0125699,0.000,6928.532,1.052,1.473,626.688,-10.305,3871.194,3871.302,-23.502,-0.031,0.434,0.012,-0.007,-0.026,0.000,0.000,0.000,-0.012,0.698,0.005,0.716,0.0000000,0.0000000,3869.514,0.000,0.000,0.000,0,00:00:00,0,0.000,0.000,0.000,0.000,0.000,0.000,0.000,0.000,0.000,0.000,0.000,0.000,0.000,0.000
95.747,2,0,-2.342,1.242,3900.156,-2.409,1.231,338.208,-0.944,0.628,-23.426,0.000,0.000,0.0126738,0.000,6933.690,1.048,1.512,623.919,-10.529,3905.262,3905.370,-23.451,0.150,0.276,0.027,-0.019,0.007,0.000,0.000,0.000,-0.010,0.697,0.004,0.717,0.0000000,0.0000000,3903.796,0.000,0.000,0.000,0,00:00:00,0,0.000,0.000,0.000,0.000,0.000,0.000,0.000,0.000,0.000,0.000,0.000,0.000,0.000,0.000
95.848,2,0,-2.342,1.237,3934.944,-2.390,1.203,336.418,-1.047,0.376,-23.258,0.000,0.000,0.0127779,0.000,6939.472,1.043,1.621,621.151,-10.751,3939.424,3939.532,-23.281,-0.158,0.365,-0.026,-0.009,-0.004,0.000,0.000,0.000,-0.011,0.697,0.005,0.717,0.0000000,0.0000000,3937.848,0.000,0.000,0.000,0,00:00:00,0,0.000,0.000,0.000,0.000,0.000,0.000,0.000,0.000,0.000,0.000,0.000,0.000,0.000,0.000
95.949,2,0,-2.340,1.231,3969.522,-2.369,1.196,334.657,-1.023,0.578,-22.732,0.000,0.000,0.0128809,0.000,6942.134,1.038,1.670,618.376,-10.972,3973.805,3973.913,-22.760,0.046,0.306,-0.003,-0.022,0.020,0.000,0.000,0.000,-0.011,0.696,0.006,0.718,0.0000000,0.0000000,3971.672,0.000,0.000,0.000,0,00:00:00,0,0.000,0.000,0.000,0.000,0.000,0.000,0.000,0.000,0.000,0.000,0.000,0.000,0.000,0.000
96.050,2,0,-2.337,1.223,4003.761,-2.361,1.173,332.771,-1.151,0.420,-22.771,0.000,0.000,0.0129778,0.000,6945.383,1.033,1.795,615.702,-11.193,4007.057,4007.165,-22.801,-0.090,0.395,0.008,-0.016,-0.025,0.000,0.000,0.000,-0.011,0.695,0.005,0.719,0.0000000,0.0000000,4005.271,0.000,0.000,0.000,0,00:00:00,0,0.000,0.000,0.000,0.000,0.000,0.000,0.000,0.000,0.000,0.000,0.000,0.000,0.000,0.000
96.151,2,0,-2.333,1.215,4037.713,-2.356,1.162,330.838,-1.172,0.523,-22.525,0.000,0.000,0.0130768,0.000,6946.400,1.028,1.889,613.029,-11.411,4040.407,4040.515,-22.558,0.015,0.389,-0.000,-0.016,0.011,0.000,0.000,0.000,-0.011,0.695,0.005,0.719,0.0000000,0.0000000,4038.646,0.000,0.000,0.000,0,00:00:00,0,0.000,0.000,0.000,0.000,0.000,0.000,0.000,0.000,0.000,0.000,0.000,0.000,0.000,0.000
96.252,2,0,-2.330,1.206,4071.421,-2.351,1.129,328.886,-1.179,0.311,-22.335,0.000,0.000,0.0131740,0.000,6949.218,1.022,1.978,610.361,-11.627,4073.811,4073.920,-22.365,-0.141,0.376,0.022,-0.012,-0.018,0.000,0.000,0.000,-0.011,0.694,0.004,0.720,0.0000000,0.0000000,4071.800,0.000,0.000,0.000,0,00:00:00,0,0.000,0.000,0.000,0.000,0.000,0.000,0.000,0.000,0.000,0.000,0.000,0.000,0.000,0.000
96.353,2,0,-2.326,1.196,4104.790,-2.340,1.114,326.849,-1.116,0.485,-22.121,0.000,0.000,0.0132703,0.000,6949.690,1.016,2.050,607.775,-11.846,4106.304,4106.412,-22.152,-0.011,0.312,-0.024,-0.002,-0.049,0.000,0.000,0.000,-0.013,0.694,0.003,0.720,0.0000000,0.0000000,4104.735,0.000,0.000,0.000,0,00:00:00,0,0.000,0.000,0.000,0.000,0.000,0.000,0.000,0.000,0.000,0.000,0.000,0.000,0.000,0.000
96.454,2,0,-2.320,1.185,4137.897,-2.315,1.109,324.802,-0.968,0.570,-21.797,0.000,0.000,0.0133655,0.000,6948.954,1.011,2.060,605.177,-12.061,4139.058,4139.166,-21.824,0.058,0.238,-0.009,0.028,0.030,0.000,0.000,0.000,-0.013,0.695,0.004,0.719,0.0000000,0.0000000,4137.452,0.000,0.000,0.000,0,00:00:00,0,0.000,0.000,0.000,0.000,0.000,0.000,0.000,0.000,0.000,0.000,0.000,0.000,0.000,0.000
96.555,2,0,-2.314,1.175,4170.755,-2.296,1.092,322.731,-1.029,0.450,-21.712,0.000,0.000,0.0134582,0.000,6948.762,1.005,1.898,602.601,-12.272,4171.649,4171.757,-21.739,-0.035,0.296,0.011,-0.004,-0.003,0.000,0.000,0.000,-0.012,0.695,0.004,0.719,0.0000000,0.0000000,4169.955,0.000,0.000,0.000,0,00:00:00,0,0.000,0.000,0.000,0.000,0.000,0.000,0.000,0.000,0.000,0.000,0.000,0.000,0.000,0.000
96.656,2,0,-2.306,1.164,4198.828,-2.278,1.073,317.242,-1.037,0.426,-21.712,0.000,0.000,0.0103675,0.000,7244.866,0.999,1.919,602.601,-12.272,4171.649,4171.757,-21.739,-0.035,0.296,0.011,-0.004,-0.003,0.000,0.000,0.000,-0.012,0.695,0.003,0.719,0.0000000,0.0000000,4169.955,0.000,0.000,0.000,0,00:00:00,0,0.000,0.000,0.000,0.000,0.000,0.000,0.000,0.000,0.000,0.000,0.000,0.000,0.000,0.000
96.757,2,0,-2.298,1.152,4231.543,-2.275,1.068,315.676,-1.173,0.557,-21.296,0.000,0.000,0.0105154,0.000,7168.375,0.982,1.940,597.522,-12.693,4236.236,4236.344,-21.329,0.106,0.521,-0.002,0.037,-0.014,0.000,0.000,0.000,-0.013,0.696,0.003,0.718,0.0000000,0.0000000,4234.321,0.000,0.000,0.000,0,00:00:00,0,0.000,0.000,0.000,0.000,0.000,0.000,0.000,0.000,0.000,0.000,0.000,0.000,0.000,0.000
96.858,2,0,-2.289,1.141,4263.989,-2.255,1.054,314.055,-1.007,0.453,-21.001,0.000,0.000,0.0106575,0.000,7168.089,0.978,1.730,595.038,-12.902,4267.992,4268.100,-21.028,0.017,0.327,0.006,-0.019,0.011,0.000,0.000,0.000,-0.012,0.696,0.003,0.718,0.0000000,0.0000000,4266.189,0.000,0.000,0.000,0,00:00:00,0,0.000,0.000,0.000,0.000,0.000,0.000,0.000,0.000,0.000,0.000,0.000,0.000,0.000,0.000
96.959,2,0,-2.280,1.130,4296.227,-2.239,1.049,312.407,-1.045,0.545,-20.940,0.000,0.000,0.0107954,0.000,7163.693,0.973,1.837,592.546,-13.107,4299.953,4300.061,-20.969,0.132,0.390,0.009,0.012,-0.019,0.000,0.000,0.000,-0.012,0.696,0.002,0.718,0.0000000,0.0000000,4297.849,0.000,0.000,0.000,0,00:00:00,0,0.000,0.000,0.000,0.000,0.000,0.000,0.000,0.000,0.000,0.000,0.000,0.000,0.000,0.000
97.060,2,0,-2.270,1.119,4328.153,-2.228,1.031,310.672,-1.082,0.414,-20.724,0.000,0.000,0.0109326,0.000,7159.591,0.968,1.766,590.135,-13.313,4330.984,4331.092,-20.752,-0.007,0.389,-0.005,-0.023,0.002,0.000,0.000,0.000,-0.013,0.695,0.002,0.719,0.0000000,0.0000000,4329.303,0.000,0.000,0.000,0,00:00:00,0,0.000,0.000,0.000,0.000,0.000,0.000,0.000,0.000,0.000,0.000,0.000,0.000,0.000,0.000
97.161,2,0,-2.260,1.108,4359.900,-2.205,1.006,308.963,-0.961,0.341,-20.416,0.000,0.000,0.0110673,0.000,7155.914,0.963,1.896,587.679,-13.520,4362.690,4362.798,-20.438,-0.139,0.295,-0.032,0.007,-0.001,0.000,0.000,0.000,-0.014,0.695,0.003,0.718,0.0000000,0.0000000,4360.553,0.000,0.000,0.000,0,00:00:00,0,0.000,0.000,0.000,0.000,0.000,0.000,0.000,0.000,0.000,0.000,0.000,0.000,0.000,0.000
97.262,2,0,-2.250,1.095,4391.349,-2.198,0.992,307.161,-1.114,0.436,-20.415,0.000,0.000,0.0111981,0.000,7151.851,0.958,1.854,585.311,-13.721,4393.374,4393.482,-20.445,-0.038,0.481,0.002,0.017,0.006,0.000,0.000,0.000,-0.014,0.696,0.003,0.718,0.0000000,0.0000000,4391.601,0.000,0.000,0.000,0,00:00:00,0,0.000,0.000,0.000,0.000,0.000,0.000,0.000,0.000,0.000,0.000,0.000,0.000,0.000,0.000
97.363,2,0,-2.239,1.083,4422.570,-2.189,0.997,305.372,-1.089,0.616,-19.921,0.000,0.000,0.0113297,0.000,7146.269,0.953,1.758,582.931,-13.925,4424.298,4424.406,-19.955,0.161,0.404,0.003,-0.031,-0.017,0.000,0.000,0.000,-0.014,0.695,0.003,0.719,0.0000000,0.0000000,4422.447,0.000,0.000,0.000,0,00:00:00,0,0.000,0.000,0.000,0.000,0.000,0.000,0.000,0.000,0.000,0.000,0.000,0.000,0.000,0.000
97.464,2,0,-2.229,1.073,4453.553,-2.173,1.004,303.552,-1.018,0.638,-19.812,0.000,0.000,0.0114553,0.000,7140.350,0.948,1.937,580.583,-14.127,4454.928,4455.036,-19.844,0.201,0.341,0.009,0.002,0.021,0.000,0.000,0.000,-0.013,0.695,0.003,0.719,0.0000000,0.0000000,4453.095,0.000,0.000,0.000,0,00:00:00,0,0.000,0.000,0.000,0.000,0.000,0.000,0.000,0.000,0.000,0.000,0.000,0.000,0.000,0.000
97.565,2,0,-2.217,1.064,4484.345,-2.146,0.991,301.716,-0.894,0.428,-19.917,0.000,0.000,0.0115803,0.000,7137.274,0.943,1.928,578.232,-14.328,4485.677,4485.785,-19.941,-0.068,0.201,-0.026,-0.009,0.013,0.000,0.000,0.000,-0.013,0.695,0.004,0.719,0.0000000,0.0000000,4483.545,0.000,0.000,0.000,0,00:00:00,0,0.000,0.000,0.000,0.000,0.000,0.000,0.000,0.000,0.000,0.000,0.000,0.000,0.000,0.000
97.666,2,0,-2.205,1.055,4514.866,-2.133,0.998,299.853,-1.032,0.620,-19.531,0.000,0.000,0.0117075,0.000,7131.464,0.937,1.976,575.948,-14.524,4515.661,4515.769,-19.565,0.132,0.322,-0.002,-0.014,-0.000,0.000,0.000,0.000,-0.014,0.694,0.004,0.720,0.0000000,0.0000000,4513.799,0.000,0.000,0.000,0,00:00:00,0,0.000,0.000,0.000,0.000,0.000,0.000,0.000,0.000,0.000,0.000,0.000,0.000,0.000,0.000
97.767,2,0,-2.193,1.047,4545.154,-2.121,0.996,297.953,-1.030,0.529,-19.575,0.000,0.000,0.0118307,0.000,7125.308,0.932,2.055,573.669,-14.720,4545.675,4545.783,-19.606,0.073,0.347,0.016,0.014,-0.005,0.000,0.000,0.000,-0.013,0.695,0.004,0.719,0.0000000,0.0000000,4543.859,0.000,0.000,0.000,0,00:00:00,0,0.000,0.000,0.000,0.000,0.000,0.000,0.000,0.000,0.000,0.000,0.000,0.000,0.000,0.000
97.868,2,0,-2.180,1.040,4571.032,-2.106,0.991,292.901,-1.003,0.497,-19.578,0.000,0.000,0.0119556,0.000,7118.926,0.926,1.976,573.669,-14.720,4545.675,4545.783,-19.606,0.073,0.347,0.016,0.014,-0.005,0.000,0.000,0.000,-0.013,0.695,0.003,0.719,0.0000000,0.0000000,4543.859,0.000,0.000,0.000,0,00:00:00,0,0.000,0.000,0.000,0.000,0.000,0.000,0.000,0.000,0.000,0.000,0.000,0.000,0.000,0.000
97.969,2,0,-2.168,1.033,4601.233,-2.108,0.988,291.497,-1.158,0.521,-19.200,0.000,0.000,0.0120876,0.000,7060.684,0.911,1.897,569.146,-15.109,4605.520,4605.628,-19.236,0.087,0.434,-0.012,-0.041,-0.025,0.000,0.000,0.000,-0.014,0.694,0.002,0.720,0.0000000,0.0000000,4603.401,0.000,0.000,0.000,0,00:00:00,0,0.000,0.000,0.000,0.000,0.000,0.000,0.000,0.000,0.000,0.000,0.000,0.000,0.000,0.000
98.070,2,0,-2.157,1.027,4631.231,-2.096,0.998,290.051,-1.013,0.634,-19.158,0.000,0.000,0.0122148,0.000,7061.655,0.907,2.131,566.918,-15.304,4635.140,4635.248,-19.193,0.185,0.245,-0.007,-0.023,-0.005,0.000,0.000,0.000,-0.014,0.693,0.003,0.721,0.0000000,0.0000000,4632.887,0.000,0.000,0.000,0,00:00:00,0,0.000,0.000,0.000,0.000,0.000,0.000,0.000,0.000,0.000,0.000,0.000,0.000,0.000,0.000
98.171,2,0,-2.147,1.021,4660.965,-2.113,0.992,288.549,-1.299,0.477,-18.822,0.000,0.000,0.0123417,0.000,7062.240,0.903,2.261,564.744,-15.498,4664.135,4664.243,-18.865,0.104,0.515,0.035,-0.016,0.017,0.000,0.000,0.000,-0.013,0.692,0.002,0.722,0.0000000,0.0000000,4662.185,0.000,0.000,0.000,0,00:00:00,0,0.000,0.000,0.000,0.000,0.000,0.000,0.000,0.000,0.000,0.000,0.000,0.000,0.000,0.000
98.272,2,0,-2.140,1.015,4690.483,-2.122,0.975,287.011,-1.216,0.365,-18.702,0.000,0.000,0.0124648,0.000,7065.171,0.898,2.359,562.567,-15.683,4693.258,4693.366,-18.738,0.056,0.480,0.033,0.022,-0.010,0.000,0.000,0.000,-0.012,0.693,0.000,0.721,0.0000000,0.0000000,4691.295,0.000,0.000,0.000,0,00:00:00,0,0.000,0.000,0.000,0.000,0.000,0.000,0.000,0.000,0.000,0.000,0.000,0.000,0.000,0.000
98.373,2,0,-2.133,1.008,4719.819,-2.120,0.953,285.465,-1.107,0.312,-18.588,0.000,0.000,0.0125868,0.000,7065.997,0.894,2.233,560.393,-15.877,4722.429,4722.537,-18.620,-0.009,0.349,-0.005,-0.015,0.023,0.000,0.000,0.000,-0.011,0.693,0.001,0.721,0.0000000,0.0000000,4720.220,0.000,0.000,0.000,0,00:00:00,0,0.000,0.000,0.000,0.000,0.000,0.000,0.000,0.000,0.000,0.000,0.000,0.000,0.000,0.000
98.474,2,0,-2.127,1.000,4748.929,-2.133,0.937,283.881,-1.238,0.369,-18.431,0.000,0.000,0.0127080,0.000,7065.797,0.889,2.318,558.263,-16.063,4751.103,4751.211,-18.472,0.043,0.406,-0.004,-0.044,0.009,0.000,0.000,0.000,-0.011,0.691,0.002,0.723,0.0000000,0.0000000,4748.960,0.000,0.000,0.000,0,00:00:00,0,0.000,0.000,0.000,0.000,0.000,0.000,0.000,0.000,0.000,0.000,0.000,0.000,0.000,0.000
98.575,2,0,-2.123,0.991,4777.807,-2.130,0.915,282.257,-1.095,0.304,-18.295,0.000,0.000,0.0128281,0.000,7064.216,0.885,2.570,556.158,-16.251,4779.532,4779.640,-18.328,-0.053,0.301,-0.017,0.017,0.018,0.000,0.000,0.000,-0.011,0.692,0.003,0.722,0.0000000,0.0000000,4777.518,0.000,0.000,0.000,0,00:00:00,0,0.000,0.000,0.000,0.000,0.000,0.000,0.000,0.000,0.000,0.000,0.000,0.000,0.000,0.000
98.676,2,0,-2.118,0.981,4802.496,-2.125,0.897,277.626,-1.064,0.337,-18.296,0.000,0.000,0.0129472,0.000,7066.218,0.880,2.474,556.158,-16.251,4779.532,4779.640,-18.328,-0.053,0.301,-0.017,0.017,0.018,0.000,0.000,0.000,-0.011,0.692,0.004,0.722,0.0000000,0.0000000,4777.518,0.000,0.000,0.000,0,00:00:00,0,0.000,0.000,0.000,0.000,0.000,0.000,0.000,0.000,0.000,0.000,0.000,0.000,0.000,0.000
98.777,2,0,-2.114,0.970,4831.247,-2.131,0.885,276.403,-1.171,0.393,-18.042,0.000,0.000,0.0130731,0.000,7015.392,0.866,2.378,551.990,-16.624,4836.062,4836.170,-18.080,0.019,0.402,0.003,-0.008,-0.027,0.000,0.000,0.000,-0.012,0.692,0.003,0.722,0.0000000,0.0000000,4834.091,0.000,0.000,0.000,0,00:00:00,0,0.000,0.000,0.000,0.000,0.000,0.000,0.000,0.000,0.000,0.000,0.000,0.000,0.000,0.000
98.878,2,0,-2.111,0.960,4859.824,-2.143,0.881,275.163,-1.229,0.463,-17.841,0.000,0.000,0.0131959,0.000,7020.525,0.862,2.426,549.916,-16.806,4864.327,4864.435,-17.884,0.083,0.425,-0.009,-0.023,-0.037,0.000,0.000,0.000,-0.013,0.691,0.002,0.723,0.0000000,0.0000000,4862.108,0.000,0.000,0.000,0,00:00:00,0,0.000,0.000,0.000,0.000,0.000,0.000,0.000,0.000,0.000,0.000,0.000,0.000,0.000,0.000
98.979,2,0,-2.110,0.950,4888.184,-2.156,0.875,273.853,-1.235,0.442,-17.850,0.000,0.000,0.0133162,0.000,7027.752,0.859,2.554,547.883,-16.986,4892.123,4892.231,-17.894,-0.020,0.396,-0.044,-0.021,0.009,0.000,0.000,0.000,-0.015,0.690,0.004,0.723,0.0000000,0.0000000,4889.948,0.000,0.000,0.000,0,00:00:00,0,0.000,0.000,0.000,0.000,0.000,0.000,0.000,0.000,0.000,0.000,0.000,0.000,0.000,0.000
99.080,2,0,-2.109,0.941,4916.321,-2.159,0.875,272.505,-1.135,0.491,-17.536,0.000,0.000,0.0134374,0.000,7031.587,0.855,2.670,545.872,-17.169,4919.694,4919.802,-17.577,0.025,0.314,-0.006,0.003,0.013,0.000,0.000,0.000,-0.014,0.690,0.005,0.723,0.0000000,0.0000000,4917.611,0.000,0.000,0.000,0,00:00:00,0,0.000,0.000,0.000,0.000,0.000,0.000,0.000,0.000,0.000,0.000,0.000,0.000,0.000,0.000
99.181,2,0,-2.109,0.933,4944.252,-2.165,0.877,271.096,-1.175,0.511,-17.637,0.000,0.000,0.0103675,0.000,7219.778,0.851,2.655,543.871,-17.349,4947.200,4947.309,-17.679,-0.022,0.392,-0.037,0.024,0.009,0.000,0.000,0.000,-0.015,0.691,0.006,0.722,0.0000000,0.0000000,4945.099,0.000,0.000,0.000,0,00:00:00,0,0.000,0.000,0.000,0.000,0.000,0.000,0.000,0.000,0.000,0.000,0.000,0.000,0.000,0.000
99.282,2,0,-2.109,0.926,4972.001,-2.160,0.878,269.663,-1.059,0.497,-17.575,0.000,0.000,0.0105212,0.000,7216.837,0.847,2.517,541.877,-17.528,4974.702,4974.810,-17.611,-0.019,0.291,0.007,0.008,-0.042,0.000,0.000,0.000,-0.017,0.691,0.005,0.722,0.0000000,0.0000000,4972.413,0.000,0.000,0.000,0,00:00:00,0,0.000,0.000,0.000,0.000,0.000,0.000,0.000,0.000,0.000,0.000,0.000,0.000,0.000,0.000
99.383,2,0,-2.109,0.919,4995.737,-2.154,0.877,265.340,-1.047,0.480,-17.576,0.000,0.000,0.0106742,0.000,7215.651,0.843,2.473,541.877,-17.528,4974.702,4974.810,-17.611,-0.019,0.291,0.007,0.008,-0.042,0.000,0.000,0.000,-0.018,0.692,0.003,0.722,0.0000000,0.0000000,4972.413,0.000,0.000,0.000,0,00:00:00,0,0.000,0.000,0.000,0.000,0.000,0.000,0.000,0.000,0.000,0.000,0.000,0.000,0.000,0.000
99.484,2,0,-2.108,0.914,5023.329,-2.157,0.885,264.257,-1.137,0.556,-17.229,0.000,0.000,0.0108333,0.000,7160.363,0.829,2.430,537.985,-17.881,5028.623,5028.732,-17.271,0.121,0.380,0.030,-0.007,-0.010,0.000,0.000,0.000,-0.017,0.691,0.001,0.722,0.0000000,0.0000000,5026.524,0.000,0.000,0.000,0,00:00:00,0,0.000,0.000,0.000,0.000,0.000,0.000,0.000,0.000,0.000,0.000,0.000,0.000,0.000,0.000
99.585,2,0,-2.107,0.908,5050.750,-2.147,0.871,263.160,-1.009,0.342,-16.910,0.000,0.000,0.0109869,0.000,7162.941,0.827,2.472,536.042,-18.058,5055.658,5055.767,-16.941,-0.058,0.262,0.017,-0.005,-0.007,0.000,0.000,0.000,-0.017,0.691,0.001,0.722,0.0000000,0.0000000,5053.323,0.000,0.000,0.000,0,00:00:00,0,0.000,0.000,0.000,0.000,0.000,0.000,0.000,0.000,0.000,0.000,0.000,0.000,0.000,0.000
99.686,2,0,-2.106,0.901,5077.974,-2.145,0.840,262.007,-1.084,0.168,-16.822,0.000,0.000,0.0111353,0.000,7168.268,0.823,2.501,534.129,-18.233,5082.346,5082.454,-16.853,-0.235,0.307,-0.002,-0.023,0.029,0.000,0.000,0.000,-0.016,0.690,0.002,0.723,0.0000000,0.0000000,5079.953,0.000,0.000,0.000,0,00:00:00,0,0.000,0.000,0.000,0.000,0.000,0.000,0.000,0.000,0.000,0.000,0.000,0.000,0.000,0.000
99.787,2,0,-2.104,0.893,5104.953,-2.138,0.829,260.765,-1.042,0.361,-16.743,0.000,0.000,0.0112824,0.000,7170.105,0.820,2.634,532.258,-18.407,5108.536,5108.644,-16.777,-0.065,0.307,-0.015,0.025,0.006,0.000,0.000,0.000,-0.016,0.691,0.002,0.722,0.0000000,0.0000000,5106.414,0.000,0.000,0.000,0,00:00:00,0,0.000,0.000,0.000,0.000,0.000,0.000,0.000,0.000,0.000,0.000,0.000,0.000,0.000,0.000
99.888,2,0,-2.102,0.884,5131.712,-2.137,0.812,259.451,-1.097,0.298,-16.766,0.000,0.000,0.0114285,0.000,7171.610,0.817,2.488,530.392,-18.576,5134.720,5134.828,-16.800,-0.088,0.380,0.025,0.011,0.015,0.000,0.000,0.000,-0.015,0.692,0.002,0.722,0.0000000,0.0000000,5132.708,0.000,0.000,0.000,0,00:00:00,0,0.000,0.000,0.000,0.000,0.000,0.000,0.000,0.000,0.000,0.000,0.000,0.000,0.000,0.000
99.989,2,0,-2.101,0.875,5158.268,-2.155,0.800,258.104,-1.283,0.338,-16.566,0.000,0.000,0.0115755,0.000,7171.454,0.813,2.427,528.536,-18.748,5160.832,5160.940,-16.610,-0.030,0.543,0.004,-0.018,-0.029,0.000,0.000,0.000,-0.016,0.691,0.001,0.723,0.0000000,0.0000000,5158.836,0.000,0.000,0.000,0,00:00:00,0,0.000,0.000,0.000,0.000,0.000,0.000,0.000,0.000,0.000,0.000,0.000,0.000,0.000,0.000
100.090,2,0,-2.102,0.866,5180.985,-2.176,0.787,253.990,-1.314,0.328,-16.564,0.000,0.000,0.0117202,0.000,7170.146,0.809,2.531,528.536,-18.748,5160.832,5160.940,-16.610,-0.030,0.543,0.004,-0.018,-0.029,0.000,0.000,0.000,-0.016,0.690,-0.000,0.723,0.0000000,0.0000000,5158.836,0.000,0.000,0.000,0,00:00:00,0,0.000,0.000,0.000,0.000,0.000,0.000,0.000,0.000,0.000,0.000,0.000,0.000,0.000,0.000
100.191,3,0,-2.104,0.855,5207.439,-2.166,0.766,253.004,-1.005,0.236,-16.304,0.000,0.000,0.0118711,0.000,7123.854,0.796,2.635,524.862,-19.086,5212.758,5212.866,-16.335,-0.057,0.254,0.038,0.005,-0.039,0.000,0.000,0.000,-0.016,0.691,-0.003,0.723,0.0000000,0.0000000,5210.598,0.000,0.000,0.000,0,00:00:00,0,0.000,0.000,0.000,0.000,0.000,0.000,0.000,0.000,0.000,0.000,0.000,0.000,0.000,0.000
100.292,3,0,-2.104,0.844,5233.710,-2.159,0.743,251.952,-1.033,0.214,-16.342,70.000,0.000,0.0118711,7636.456,7123.854,0.793,2.613,523.048,-19.254,5238.516,5238.624,-16.374,-0.081,0.238,0.003,-0.027,0.049,0.000,0.000,0.000,-0.015,0.690,-0.001,0.724,0.0000000,0.0000000,5236.234,0.000,0.000,0.000,0,00:00:00,0,0.000,0.000,0.000,0.000,0.000,0.000,0.000,0.000,0.000,0.000,0.000,0.000,0.000,0.000
100.393,3,0,-2.104,0.832,5259.804,-2.146,0.729,250.857,-0.985,0.303,-16.233,70.000,0.000,0.0118711,7647.041,7123.854,0.790,2.767,521.245,-19.421,5264.168,5264.276,-16.265,0.015,0.162,0.005,-0.019,0.012,0.000,0.000,0.000,-0.014,0.689,-0.001,0.725,0.0000000,0.0000000,5261.708,0.000,0.000,0.000,0,00:00:00,0,0.000,0.000,0.000,0.000,0.000,0.000,0.000,0.000,0.000,0.000,0.000,0.000,0.000,0.000
100.494,3,0,-2.102,0.820,5285.659,-2.137,0.715,249.677,-1.016,0.290,-16.129,70.000,0.000,0.0118711,7656.863,7123.854,0.787,2.877,519.489,-19.589,5289.236,5289.345,-16.163,-0.009,0.150,-0.009,-0.030,-0.022,0.000,0.000,0.000,-0.015,0.688,-0.001,0.726,0.0000000,0.0000000,5287.020,0.000,0.000,0.000,0,00:00:00,0,0.000,0.000,0.000,0.000,0.000,0.000,0.000,0.000,0.000,0.000,0.000,0.000,0.000,0.000
100.595,3,0,-2.101,0.808,5311.343,-2.149,0.697,248.472,-1.226,0.248,-15.994,70.000,0.000,0.0118711,7667.350,7123.854,0.784,3.046,517.717,-19.753,5314.603,5314.711,-16.037,-0.032,0.398,0.005,0.020,-0.018,0.000,0.000,0.000,-0.016,0.689,-0.002,0.725,0.0000000,0.0000000,5312.173,0.000,0.000,0.000,0,00:00:00,0,0.000,0.000,0.000,0.000,0.000,0.000,0.000,0.000,0.000,0.000,0.000,0.000,0.000,0.000
100.696,3,0,-2.100,0.795,5336.793,-2.138,0.679,247.180,-0.995,0.241,-16.007,70.000,0.000,0.0118711,7676.172,7123.854,0.780,2.934,515.992,-19.915,5339.356,5339.465,-16.039,-0.016,0.144,0.020,-0.015,0.013,0.000,0.000,0.000,-0.014,0.688,-0.002,0.726,0.0000000,0.0000000,5337.166,0.000,0.000,0.000,0,00:00:00,0,0.000,0.000,0.000,0.000,0.000,0.000,0.000,0.000,0.000,0.000,0.000,0.000,0.000,0.000
100.797,3,0,-2.099,0.782,5362.135,-2.146,0.671,245.921,-1.174,0.331,-15.856,70.000,0.000,0.0118711,7682.439,7123.854,0.776,3.024,514.221,-20.080,5364.836,5364.944,-15.900,0.080,0.323,-0.003,-0.002,-0.043,0.000,0.000,0.000,-0.016,0.688,-0.004,0.726,0.0000000,0.0000000,5362.001,0.000,0.000,0.000,0,00:00:00,0,0.000,0.000,0.000,0.000,0.000,0.000,0.000,0.000,0.000,0.000,0.000,0.000,0.000,0.000
100.898,3,0,-2.099,0.769,5387.225,-2.157,0.653,244.585,-1.216,0.227,-15.684,70.000,0.000,0.0118711,7689.370,7123.854,0.773,3.036,512.536,-20.239,5389.153,5389.261,-15.728,-0.028,0.369,-0.004,-0.005,0.017,0.000,0.000,0.000,-0.016,0.688,-0.003,0.726,0.0000000,0.0000000,5386.679,0.000,0.000,0.000,0,00:00:00,0,0.000,0.000,0.000,0.000,0.000,0.000,0.000,0.000,0.000,0.000,0.000,0.000,0.000,0.000
100.999,3,0,-2.100,0.757,5412.127,-2.170,0.647,243.226,-1.238,0.340,-15.513,70.000,0.000,0.0118711,7694.677,7123.854,0.769,3.067,510.838,-20.403,5413.725,5413.833,-15.561,0.063,0.406,-0.014,0.005,0.032,0.000,0.000,0.000,-0.015,0.688,-0.002,0.726,0.0000000,0.0000000,5411.201,0.000,0.000,0.000,0,00:00:00,0,0.000,0.000,0.000,0.000,0.000,0.000,0.000,0.000,0.000,0.000,0.000,0.000,0.000,0.000
101.100,3,0,-2.102,0.745,5436.809,-2.179,0.654,241.780,-1.192,0.456,-15.767,70.000,0.000,0.0118711,7699.623,7123.854,0.765,3.036,509.171,-20.562,5437.908,5438.016,-15.814,0.115,0.383,-0.037,0.024,0.008,0.000,0.000,0.000,-0.016,0.689,0.000,0.725,0.0000000,0.0000000,5435.566,0.000,0.000,0.000,0,00:00:00,0,0.000,0.000,0.000,0.000,0.000,0.000,0.000,0.000,0.000,0.000,0.000,0.000,0.000,0.000
101.201,3,0,-2.105,0.735,5461.305,-2.197,0.665,240.333,-1.284,0.495,-15.478,70.000,0.000,0.0118711,7703.365,7123.854,0.760,2.895,507.504,-20.719,5462.148,5462.256,-15.531,0.136,0.479,-0.018,-0.007,-0.005,0.000,0.000,0.000,-0.017,0.689,0.000,0.725,0.0000000,0.0000000,5459.778,0.000,0.000,0.000,0,00:00:00,0,0.000,0.000,0.000,0.000,0.000,0.000,0.000,0.000,0.000,0.000,0.000,0.000,0.000,0.000
101.302,3,0,-2.108,0.727,5485.625,-2.188,0.662,238.882,-1.024,0.357,-15.283,70.000,0.000,0.0118711,7708.919,7123.854,0.756,2.930,505.850,-20.875,5486.276,5486.385,-15.318,0.005,0.286,0.003,0.035,-0.012,0.000,0.000,0.000,-0.017,0.690,-0.000,0.724,0.0000000,0.0000000,5483.835,0.000,0.000,0.000,0,00:00:00,0,0.000,0.000,0.000,0.000,0.000,0.000,0.000,0.000,0.000,0.000,0.000,0.000,0.000,0.000
101.403,3,0,-2.110,0.719,5509.730,-2.192,0.649,237.376,-1.145,0.248,-15.323,70.000,0.000,0.0118711,7712.653,7123.854,0.752,2.729,504.230,-21.035,5509.965,5510.074,-15.362,-0.087,0.414,0.011,0.004,0.013,0.000,0.000,0.000,-0.016,0.690,-0.000,0.724,0.0000000,0.0000000,5507.740,0.000,0.000,0.000,0,00:00:00,0,0.000,0.000,0.000,0.000,0.000,0.000,0.000,0.000,0.000,0.000,0.000,0.000,0.000,0.000
101.504,3,0,-2.113,0.710,5530.325,-2.195,0.635,233.362,-1.138,0.232,-15.324,70.000,0.000,0.0118711,7714.517,7123.854,0.747,2.706,504.230,-21.035,5509.965,5510.074,-15.362,-0.087,0.414,0.011,0.004,0.013,0.000,0.000,0.000,-0.015,0.690,0.000,0.723,0.0000000,0.0000000,5507.740,0.000,0.000,0.000,0,00:00:00,0,0.000,0.000,0.000,0.000,0.000,0.000,0.000,0.000,0.000,0.000,0.000,0.000,0.000,0.000
101.605,3,0,-2.115,0.701,5554.367,-2.172,0.614,232.244,-0.885,0.166,-15.128,70.000,0.000,0.0118711,7675.694,7123.854,0.735,2.682,500.983,-21.344,5557.625,5557.734,-15.152,-0.150,0.197,0.003,0.016,-0.001,0.000,0.000,0.000,-0.015,0.691,-0.000,0.723,0.0000000,0.0000000,5555.093,0.000,0.000,0.000,0,00:00:00,0,0.000,0.000,0.000,0.000,0.000,0.000,0.000,0.000,0.000,0.000,0.000,0.000,0.000,0.000
101.706,3,0,-2.114,0.691,5578.239,-2.142,0.605,231.088,-0.820,0.273,-15.095,70.000,0.000,0.0118711,7683.935,7123.854,0.731,2.588,499.387,-21.497,5581.152,5581.260,-15.118,-0.058,0.157,-0.013,0.018,-0.042,0.000,0.000,0.000,-0.017,0.691,-0.001,0.722,0.0000000,0.0000000,5578.544,0.000,0.000,0.000,0,00:00:00,0,0.000,0.000,0.000,0.000,0.000,0.000,0.000,0.000,0.000,0.000,0.000,0.000,0.000,0.000
101.807,3,0,-2.111,0.681,5601.919,-2.135,0.602,229.890,-1.032,0.331,-14.940,70.000,0.000,0.0118711,7691.363,7123.854,0.728,2.485,497.815,-21.648,5604.368,5604.476,-14.977,-0.036,0.295,-0.029,-0.054,-0.007,0.000,0.000,0.000,-0.019,0.689,-0.000,0.724,0.0000000,0.0000000,5601.845,0.000,0.000,0.000,0,00:00:00,0,0.000,0.000,0.000,0.000,0.000,0.000,0.000,0.000,0.000,0.000,0.000,0.000,0.000,0.000
101.908,3,0,-2.108,0.673,5625.357,-2.141,0.624,228.618,-1.173,0.570,-14.779,70.000,0.000,0.0118711,7696.500,7123.854,0.724,2.788,496.283,-21.801,5627.057,5627.165,-14.829,0.166,0.427,-0.031,-0.007,-0.013,0.000,0.000,0.000,-0.020,0.689,0.000,0.724,0.0000000,0.0000000,5624.997,0.000,0.000,0.000,0,00:00:00,0,0.000,0.000,0.000,0.000,0.000,0.000,0.000,0.000,0.000,0.000,0.000,0.000,0.000,0.000
102.009,3,0,-2.106,0.667,5648.681,-2.138,0.620,227.362,-1.077,0.309,-14.715,70.000,0.000,0.0118711,7701.104,7123.854,0.721,2.821,494.707,-21.953,5650.468,5650.576,-14.753,-0.131,0.339,-0.021,-0.004,0.049,0.000,0.000,0.000,-0.019,0.689,0.003,0.724,0.0000000,0.0000000,5648.001,0.000,0.000,0.000,0,00:00:00,0,0.000,0.000,0.000,0.000,0.000,0.000,0.000,0.000,0.000,0.000,0.000,0.000,0.000,0.000
102.110,3,0,-2.105,0.662,5671.840,-2.145,0.629,226.070,-1.177,0.441,-14.786,70.000,0.000,0.0118711,7705.852,7123.854,0.717,2.838,493.167,-22.101,5673.387,5673.495,-14.833,-0.019,0.420,-0.011,-0.009,0.023,0.000,0.000,0.000,-0.019,0.689,0.004,0.725,0.0000000,0.0000000,5670.858,0.000,0.000,0.000,0,00:00:00,0,0.000,0.000,0.000,0.000,0.000,0.000,0.000,0.000,0.000,0.000,0.000,0.000,0.000,0.000
102.211,3,0,-2.104,0.657,5694.791,-2.162,0.637,224.731,-1.276,0.425,-14.693,70.000,0.000,0.0118711,7709.673,7123.854,0.713,2.890,491.661,-22.250,5695.870,5695.978,-14.744,0.025,0.536,0.036,0.009,-0.019,0.000,0.000,0.000,-0.018,0.689,0.002,0.724,0.0000000,0.0000000,5693.568,0.000,0.000,0.000,0,00:00:00,0,0.000,0.000,0.000,0.000,0.000,0.000,0.000,0.000,0.000,0.000,0.000,0.000,0.000,0.000
102.312,3,0,-2.104,0.654,5717.588,-2.158,0.626,223.392,-1.063,0.232,-14.543,70.000,0.000,0.0118711,7715.690,7123.854,0.709,2.840,490.146,-22.398,5718.543,5718.651,-14.579,-0.105,0.368,0.042,0.023,-0.008,0.000,0.000,0.000,-0.017,0.690,0.000,0.724,0.0000000,0.0000000,5716.132,0.000,0.000,0.000,0,00:00:00,0,0.000,0.000,0.000,0.000,0.000,0.000,0.000,0.000,0.000,0.000,0.000,0.000,0.000,0.000
102.413,3,0,-2.104,0.650,5740.233,-2.144,0.635,222.035,-0.974,0.428,-14.591,70.000,0.000,0.0118711,7719.321,7123.854,0.705,2.714,488.643,-22.546,5741.088,5741.196,-14.628,0.054,0.270,-0.022,-0.003,0.024,0.000,0.000,0.000,-0.017,0.690,0.002,0.724,0.0000000,0.0000000,5738.551,0.000,0.000,0.000,0,00:00:00,0,0.000,0.000,0.000,0.000,0.000,0.000,0.000,0.000,0.000,0.000,0.000,0.000,0.000,0.000
102.514,3,0,-2.102,0.647,5762.689,-2.123,0.643,220.668,-0.897,0.425,-14.299,70.000,0.000,0.0118711,7721.986,7123.854,0.701,2.726,487.171,-22.690,5763.213,5763.321,-14.332,0.097,0.221,0.029,0.010,0.021,0.000,0.000,0.000,-0.015,0.690,0.002,0.723,0.0000000,0.0000000,5760.826,0.000,0.000,0.000,0,00:00:00,0,0.000,0.000,0.000,0.000,0.000,0.000,0.000,0.000,0.000,0.000,0.000,0.000,0.000,0.000
102.615,3,0,-2.098,0.646,5784.963,-2.113,0.647,219.265,-0.997,0.378,-14.332,70.000,0.000,0.0118711,7724.451,7123.854,0.697,2.670,485.711,-22.837,5785.223,5785.331,-14.369,0.031,0.292,-0.014,-0.019,-0.014,0.000,0.000,0.000,-0.016,0.690,0.002,0.724,0.0000000,0.0000000,5782.957,0.000,0.000,0.000,0,00:00:00,0,0.000,0.000,0.000,0.000,0.000,0.000,0.000,0.000,0.000,0.000,0.000,0.000,0.000,0.000
102.716,3,0,-2.094,0.643,5807.114,-2.109,0.624,217.886,-1.070,0.108,-14.224,70.000,0.000,0.0118711,7725.558,7123.854,0.693,2.780,484.238,-22.981,5807.481,5807.589,-14.259,-0.240,0.325,-0.002,-0.036,0.011,0.000,0.000,0.000,-0.016,0.688,0.002,0.725,0.0000000,0.0000000,5804.945,0.000,0.000,0.000,0,00:00:00,0,0.000,0.000,0.000,0.000,0.000,0.000,0.000,0.000,0.000,0.000,0.000,0.000,0.000,0.000
102.817,3,0,-2.092,0.640,5829.129,-2.125,0.625,216.496,-1.249,0.345,-14.374,70.000,0.000,0.0118711,7729.093,7123.854,0.688,2.988,482.783,-23.123,5829.524,5829.632,-14.423,-0.003,0.498,0.003,0.004,0.027,0.000,0.000,0.000,-0.015,0.688,0.003,0.725,0.0000000,0.0000000,5826.791,0.000,0.000,0.000,0,00:00:00,0,0.000,0.000,0.000,0.000,0.000,0.000,0.000,0.000,0.000,0.000,0.000,0.000,0.000,0.000
102.918,3,0,-2.089,0.637,5850.901,-2.117,0.614,215.054,-1.026,0.224,-14.110,70.000,0.000,0.0118711,7730.911,7123.854,0.684,2.966,481.391,-23.264,5850.656,5850.764,-14.147,-0.110,0.237,0.011,-0.038,0.029,0.000,0.000,0.000,-0.014,0.687,0.004,0.726,0.0000000,0.0000000,5848.495,0.000,0.000,0.000,0,00:00:00,0,0.000,0.000,0.000,0.000,0.000,0.000,0.000,0.000,0.000,0.000,0.000,0.000,0.000,0.000
103.019,3,0,-2.086,0.633,5872.625,-2.095,0.610,213.690,-0.878,0.293,-14.068,70.000,0.000,0.0118711,7730.741,7123.854,0.680,3.186,479.924,-23.406,5872.980,5873.088,-14.098,-0.016,0.079,0.017,-0.007,-0.004,0.000,0.000,0.000,-0.013,0.687,0.003,0.727,0.0000000,0.0000000,5870.058,0.000,0.000,0.000,0,00:00:00,0,0.000,0.000,0.000,0.000,0.000,0.000,0.000,0.000,0.000,0.000,0.000,0.000,0.000,0.000
103.120,3,0,-2.083,0.629,5894.170,-2.116,0.596,212.282,-1.302,0.197,-14.186,70.000,0.000,0.0118711,7732.284,7123.854,0.676,3.229,478.529,-23.546,5894.272,5894.380,-14.239,-0.089,0.456,0.016,-0.030,0.011,0.000,0.000,0.000,-0.012,0.686,0.003,0.728,0.0000000,0.0000000,5891.480,0.000,0.000,0.000,0,00:00:00,0,0.000,0.000,0.000,0.000,0.000,0.000,0.000,0.000,0.000,0.000,0.000,0.000,0.000,0.000
103.221,3,0,-2.081,0.624,5915.502,-2.118,0.590,210.851,-1.113,0.263,-13.895,70.000,0.000,0.0118711,7732.434,7123.854,0.672,3.399,477.163,-23.684,5915.165,5915.273,-13.939,-0.021,0.257,-0.002,-0.019,-0.004,0.000,0.000,0.000,-0.012,0.685,0.003,0.728,0.0000000,0.0000000,5912.763,0.000,0.000,0.000,0,00:00:00,0,0.000,0.000,0.000,0.000,0.000,0.000,0.000,0.000,0.000,0.000,0.000,0.000,0.000,0.000
103.322,3,0,-2.081,0.619,5936.688,-2.145,0.583,209.415,-1.367,0.257,-13.933,70.000,0.000,0.0118711,7734.729,7123.854,0.667,3.507,475.781,-23.822,5936.338,5936.446,-13.993,0.001,0.508,0.017,0.000,-0.019,0.000,0.000,0.000,-0.012,0.685,0.001,0.728,0.0000000,0.0000000,5933.907,0.000,0.000,0.000,0,00:00:00,0,0.000,0.000,0.000,0.000,0.000,0.000,0.000,0.000,0.000,0.000,0.000,0.000,0.000,0.000
103.423,3,0,-2.083,0.614,5957.698,-2.159,0.587,207.957,-1.227,0.371,-13.918,70.000,0.000,0.0118711,7735.091,7123.854,0.663,3.506,474.426,-23.961,5957.165,5957.273,-13.972,0.108,0.367,-0.002,-0.000,0.011,0.000,0.000,0.000,-0.012,0.685,0.002,0.728,0.0000000,0.0000000,5954.913,0.000,0.000,0.000,0,00:00:00,0,0.000,0.000,0.000,0.000,0.000,0.000,0.000,0.000,0.000,0.000,0.000,0.000,0.000,0.000
103.524,3,0,-2.084,0.610,5978.633,-2.154,0.575,206.571,-1.050,0.198,-13.732,70.000,0.000,0.0118711,7734.882,7123.854,0.658,3.507,473.038,-24.098,5978.531,5978.640,-13.772,-0.029,0.175,0.024,-0.021,-0.003,0.000,0.000,0.000,-0.011,0.684,0.001,0.729,0.0000000,0.0000000,5975.780,0.000,0.000,0.000,0,00:00:00,0,0.000,0.000,0.000,0.000,0.000,0.000,0.000,0.000,0.000,0.000,0.000,0.000,0.000,0.000
103.625,3,0,-2.086,0.605,5999.396,-2.162,0.568,205.157,-1.178,0.253,-13.778,70.000,0.000,0.0118711,7735.134,7123.854,0.654,3.628,471.706,-24.233,5999.101,5999.209,-13.828,0.037,0.295,0.010,-0.004,0.016,0.000,0.000,0.000,-0.010,0.684,0.001,0.729,0.0000000,0.0000000,5996.511,0.000,0.000,0.000,0,00:00:00,0,0.000,0.000,0.000,0.000,0.000,0.000,0.000,0.000,0.000,0.000,0.000,0.000,0.000,0.000
103.726,3,0,-2.089,0.600,6019.990,-2.180,0.553,203.738,-1.279,0.161,-13.630,70.000,0.000,0.0118711,7735.107,7123.854,0.650,3.653,470.385,-24.368,6019.533,6019.641,-13.685,-0.057,0.393,-0.001,-0.010,0.035,0.000,0.000,0.000,-0.009,0.684,0.002,0.730,0.0000000,0.0000000,6017.104,0.000,0.000,0.000,0,00:00:00,0,0.000,0.000,0.000,0.000,0.000,0.000,0.000,0.000,0.000,0.000,0.000,0.000,0.000,0.000
103.827,3,0,-2.094,0.594,6040.457,-2.210,0.551,202.338,-1.391,0.299,-13.553,70.000,0.000,0.0118711,7737.226,7123.854,0.646,3.708,469.059,-24.505,6040.094,6040.203,-13.619,0.078,0.470,-0.005,-0.028,-0.012,0.000,0.000,0.000,-0.010,0.683,0.002,0.731,0.0000000,0.0000000,6037.562,0.000,0.000,0.000,0,00:00:00,0,0.000,0.000,0.000,0.000,0.000,0.000,0.000,0.000,0.000,0.000,0.000,0.000,0.000,0.000
103.928,3,0,-2.101,0.589,6057.934,-2.242,0.551,198.810,-1.429,0.304,-13.549,70.000,0.000,0.0118711,7736.946,7123.854,0.641,3.867,469.059,-24.505,6040.094,6040.203,-13.619,0.078,0.470,-0.005,-0.028,-0.012,0.000,0.000,0.000,-0.010,0.682,0.002,0.732,0.0000000,0.0000000,6037.562,0.000,0.000,0.000,0,00:00:00,0,0.000,0.000,0.000,0.000,0.000,0.000,0.000,0.000,0.000,0.000,0.000,0.000,0.000,0.000
104.029,3,0,-2.111,0.584,6078.359,-2.274,0.554,197.744,-1.425,0.339,-13.626,70.000,0.000,0.0118711,7701.846,7123.854,0.630,4.025,466.443,-24.768,6080.795,6080.903,-13.698,0.034,0.417,-0.054,-0.033,0.020,0.000,0.000,0.000,-0.012,0.681,0.005,0.733,0.0000000,0.0000000,6078.073,0.000,0.000,0.000,0,00:00:00,0,0.000,0.000,0.000,0.000,0.000,0.000,0.000,0.000,0.000,0.000,0.000,0.000,0.000,0.000
104.130,3,0,-2.122,0.580,6098.615,-2.294,0.568,196.650,-1.316,0.440,-13.435,70.000,0.000,0.0118711,7706.171,7123.854,0.627,4.211,465.170,-24.898,6100.671,6100.780,-13.502,0.138,0.313,0.001,-0.007,0.013,0.000,0.000,0.000,-0.011,0.680,0.005,0.733,0.0000000,0.0000000,6098.126,0.000,0.000,0.000,0,00:00:00,0,0.000,0.000,0.000,0.000,0.000,0.000,0.000,0.000,0.000,0.000,0.000,0.000,0.000,0.000
104.231,3,0,-2.133,0.577,6118.760,-2.308,0.556,195.549,-1.254,0.183,-13.508,70.000,0.000,0.0118711,7713.208,7123.854,0.624,4.251,463.883,-25.032,6120.809,6120.917,-13.565,-0.096,0.242,0.021,-0.004,0.025,0.000,0.000,0.000,-0.010,0.680,0.005,0.733,0.0000000,0.0000000,6118.046,0.000,0.000,0.000,0,00:00:00,0,0.000,0.000,0.000,0.000,0.000,0.000,0.000,0.000,0.000,0.000,0.000,0.000,0.000,0.000
104.332,3,0,-2.145,0.574,6138.769,-2.329,0.548,194.447,-1.335,0.227,-13.323,70.000,0.000,0.0118711,7717.731,7123.854,0.620,4.274,462.617,-25.160,6140.667,6140.775,-13.387,-0.022,0.352,0.018,0.012,-0.012,0.000,0.000,0.000,-0.009,0.681,0.004,0.733,0.0000000,0.0000000,6137.833,0.000,0.000,0.000,0,00:00:00,0,0.000,0.000,0.000,0.000,0.000,0.000,0.000,0.000,0.000,0.000,0.000,0.000,0.000,0.000
104.433,3,0,-2.158,0.570,6158.622,-2.358,0.543,193.339,-1.422,0.250,-13.042,70.000,0.000,0.0118711,7722.483,7123.854,0.617,4.205,461.372,-25.290,6160.233,6160.341,-13.115,-0.022,0.429,-0.023,-0.023,-0.007,0.000,0.000,0.000,-0.010,0.680,0.005,0.733,0.0000000,0.0000000,6157.486,0.000,0.000,0.000,0,00:00:00,0,0.000,0.000,0.000,0.000,0.000,0.000,0.000,0.000,0.000,0.000,0.000,0.000,0.000,0.000
104.534,3,0,-2.173,0.565,6178.297,-2.401,0.531,192.176,-1.569,0.175,-13.112,70.000,0.000,0.0118711,7726.085,7123.854,0.614,4.336,460.148,-25.419,6179.507,6179.616,-13.196,-0.103,0.518,-0.003,-0.041,0.008,0.000,0.000,0.000,-0.010,0.678,0.005,0.735,0.0000000,0.0000000,6177.008,0.000,0.000,0.000,0,00:00:00,0,0.000,0.000,0.000,0.000,0.000,0.000,0.000,0.000,0.000,0.000,0.000,0.000,0.000,0.000
104.635,3,0,-2.189,0.561,6197.866,-2.408,0.535,191.025,-1.224,0.341,-13.064,70.000,0.000,0.0118711,7728.173,7123.854,0.610,4.571,458.904,-25.541,6199.143,6199.251,-13.124,0.073,0.210,0.005,0.027,-0.026,0.000,0.000,0.000,-0.011,0.679,0.004,0.734,0.0000000,0.0000000,6196.398,0.000,0.000,0.000,0,00:00:00,0,0.000,0.000,0.000,0.000,0.000,0.000,0.000,0.000,0.000,0.000,0.000,0.000,0.000,0.000
104.736,3,0,-2.205,0.557,6217.288,-2.424,0.524,189.862,-1.318,0.180,-12.953,70.000,0.000,0.0118711,7732.019,7123.854,0.607,4.419,457.688,-25.668,6218.374,6218.482,-13.017,-0.062,0.332,0.015,0.015,-0.030,0.000,0.000,0.000,-0.011,0.680,0.002,0.733,0.0000000,0.0000000,6215.657,0.000,0.000,0.000,0,00:00:00,0,0.000,0.000,0.000,0.000,0.000,0.000,0.000,0.000,0.000,0.000,0.000,0.000,0.000,0.000
104.837,3,0,-2.220,0.553,6236.579,-2.433,0.533,188.683,-1.255,0.383,-13.020,70.000,0.000,0.0118711,7737.852,7123.854,0.603,4.337,456.476,-25.795,6237.586,6237.694,-13.082,0.120,0.272,-0.014,0.008,0.004,0.000,0.000,0.000,-0.012,0.680,0.003,0.733,0.0000000,0.0000000,6234.786,0.000,0.000,0.000,0,00:00:00,0,0.000,0.000,0.000,0.000,0.000,0.000,0.000,0.000,0.000,0.000,0.000,0.000,0.000,0.000
104.938,3,0,-2.234,0.550,6255.703,-2.430,0.526,187.476,-1.152,0.213,-12.932,70.000,0.000,0.0118711,7740.848,7123.854,0.600,4.292,455.291,-25.919,6256.409,6256.517,-12.983,-0.084,0.184,-0.028,0.004,-0.015,0.000,0.000,0.000,-0.013,0.680,0.003,0.733,0.0000000,0.0000000,6253.785,0.000,0.000,0.000,0,00:00:00,0,0.000,0.000,0.000,0.000,0.000,0.000,0.000,0.000,0.000,0.000,0.000,0.000,0.000,0.000
105.039,3,0,-2.248,0.545,6274.644,-2.449,0.506,186.219,-1.370,0.095,-12.982,70.000,0.000,0.0118711,7743.157,7123.854,0.596,4.264,454.125,-26.044,6274.980,6275.089,-13.047,-0.183,0.402,0.016,0.002,0.022,0.000,0.000,0.000,-0.012,0.680,0.004,0.733,0.0000000,0.0000000,6272.654,0.000,0.000,0.000,0,00:00:00,0,0.000,0.000,0.000,0.000,0.000,0.000,0.000,0.000,0.000,0.000,0.000,0.000,0.000,0.000
105.140,3,0,-2.262,0.542,6293.534,-2.471,0.538,185.032,-1.401,0.600,-12.840,70.000,0.000,0.0118711,7744.447,7123.854,0.592,4.254,452.912,-26.166,6294.330,6294.438,-12.921,0.279,0.416,-0.039,-0.016,-0.021,0.000,0.000,0.000,-0.014,0.680,0.004,0.733,0.0000000,0.0000000,6291.394,0.000,0.000,0.000,0,00:00:00,0,0.000,0.000,0.000,0.000,0.000,0.000,0.000,0.000,0.000,0.000,0.000,0.000,0.000,0.000
105.241,3,0,-2.277,0.540,6312.272,-2.494,0.538,183.826,-1.428,0.282,-12.790,70.000,0.000,0.0118711,7746.278,7123.854,0.588,4.341,451.753,-26.288,6312.865,6312.973,-12.865,-0.028,0.454,0.006,0.003,-0.012,0.000,0.000,0.000,-0.014,0.680,0.004,0.733,0.0000000,0.0000000,6310.005,0.000,0.000,0.000,0,00:00:00,0,0.000,0.000,0.000,0.000,0.000,0.000,0.000,0.000,0.000,0.000,0.000,0.000,0.000,0.000
105.342,3,0,-2.291,0.538,6330.822,-2.488,0.533,182.555,-1.142,0.235,-12.949,70.000,0.000,0.0118711,7748.044,7123.854,0.585,4.324,450.619,-26.409,6331.023,6331.131,-13.000,-0.069,0.164,0.010,0.005,-0.007,0.000,0.000,0.000,-0.014,0.680,0.003,0.733,0.0000000,0.0000000,6328.489,0.000,0.000,0.000,0,00:00:00,0,0.000,0.000,0.000,0.000,0.000,0.000,0.000,0.000,0.000,0.000,0.000,0.000,0.000,0.000
105.443,3,0,-2.304,0.537,6349.237,-2.502,0.529,181.306,-1.358,0.243,-12.676,70.000,0.000,0.0118711,7751.585,7123.854,0.581,4.298,449.476,-26.526,6349.381,6349.490,-12.744,-0.070,0.399,-0.018,-0.001,-0.022,0.000,0.000,0.000,-0.016,0.680,0.003,0.733,0.0000000,0.0000000,6346.845,0.000,0.000,0.000,0,00:00:00,0,0.000,0.000,0.000,0.000,0.000,0.000,0.000,0.000,0.000,0.000,0.000,0.000,0.000,0.000
105.544,3,0,-2.318,0.534,6367.537,-2.510,0.515,180.068,-1.293,0.137,-12.642,70.000,0.000,0.0118711,7752.697,7123.854,0.577,4.301,448.333,-26.645,6367.754,6367.862,-12.704,-0.143,0.311,0.027,-0.021,0.007,0.000,0.000,0.000,-0.014,0.679,0.002,0.734,0.0000000,0.0000000,6365.073,0.000,0.000,0.000,0,00:00:00,0,0.000,0.000,0.000,0.000,0.000,0.000,0.000,0.000,0.000,0.000,0.000,0.000,0.000,0.000
105.645,3,0,-2.331,0.531,6385.746,-2.539,0.517,178.855,-1.520,0.299,-12.653,70.000,0.000,0.0118711,7753.362,7123.854,0.573,4.424,447.191,-26.766,6386.171,6386.279,-12.735,0.012,0.552,-0.013,0.015,-0.032,0.000,0.000,0.000,-0.016,0.680,0.001,0.733,0.0000000,0.0000000,6383.175,0.000,0.000,0.000,0,00:00:00,0,0.000,0.000,0.000,0.000,0.000,0.000,0.000,0.000,0.000,0.000,0.000,0.000,0.000,0.000
105.746,3,0,-2.345,0.529,6403.773,-2.547,0.523,177.592,-1.308,0.342,-12.712,70.000,0.000,0.0118711,7755.061,7123.854,0.570,4.337,446.098,-26.884,6403.830,6403.938,-12.779,0.020,0.334,-0.018,-0.002,0.041,0.000,0.000,0.000,-0.015,0.680,0.003,0.733,0.0000000,0.0000000,6401.151,0.000,0.000,0.000,0,00:00:00,0,0.000,0.000,0.000,0.000,0.000,0.000,0.000,0.000,0.000,0.000,0.000,0.000,0.000,0.000
105.847,3,0,-2.358,0.527,6421.700,-2.541,0.524,176.361,-1.184,0.286,-12.582,70.000,0.000,0.0118711,7755.431,7123.854,0.566,4.347,444.980,-27.003,6421.923,6422.031,-12.639,-0.066,0.213,-0.023,-0.008,0.024,0.000,0.000,0.000,-0.015,0.679,0.005,0.734,0.0000000,0.0000000,6419.001,0.000,0.000,0.000,0,00:00:00,0,0.000,0.000,0.000,0.000,0.000,0.000,0.000,0.000,0.000,0.000,0.000,0.000,0.000,0.000
105.948,3,0,-2.369,0.526,6439.463,-2.534,0.524,175.109,-1.176,0.273,-12.507,70.000,0.000,0.0118711,7758.794,7123.854,0.562,4.389,443.899,-27.115,6439.442,6439.550,-12.563,-0.062,0.257,0.007,0.038,-0.051,0.000,0.000,0.000,-0.017,0.681,0.003,0.732,0.0000000,0.0000000,6436.726,0.000,0.000,0.000,0,00:00:00,0,0.000,0.000,0.000,0.000,0.000,0.000,0.000,0.000,0.000,0.000,0.000,0.000,0.000,0.000
106.049,3,0,-2.378,0.524,6457.064,-2.528,0.525,173.836,-1.193,0.293,-12.437,70.000,0.000,0.0118711,7760.265,7123.854,0.558,4.174,442.830,-27.233,6456.825,6456.933,-12.494,-0.089,0.268,-0.042,-0.008,-0.022,0.000,0.000,0.000,-0.019,0.680,0.004,0.733,0.0000000,0.0000000,6454.326,0.000,0.000,0.000,0,00:00:00,0,0.000,0.000,0.000,0.000,0.000,0.000,0.000,0.000,0.000,0.000,0.000,0.000,0.000,0.000
106.150,3,0,-2.387,0.524,6474.593,-2.535,0.550,172.610,-1.319,0.520,-12.397,70.000,0.000,0.0118711,7760.336,7123.854,0.554,4.216,441.732,-27.348,6474.697,6474.805,-12.472,0.106,0.366,-0.030,-0.020,-0.020,0.000,0.000,0.000,-0.021,0.680,0.004,0.733,0.0000000,0.0000000,6471.801,0.000,0.000,0.000,0,00:00:00,0,0.000,0.000,0.000,0.000,0.000,0.000,0.000,0.000,0.000,0.000,0.000,0.000,0.000,0.000
106.251,3,0,-2.395,0.527,6489.558,-2.544,0.578,169.562,-1.346,0.555,-12.393,70.000,0.000,0.0118711,7760.687,7123.854,0.550,4.329,441.732,-27.348,6474.697,6474.805,-12.472,0.106,0.366,-0.030,-0.020,-0.020,0.000,0.000,0.000,-0.023,0.679,0.004,0.734,0.0000000,0.0000000,6471.801,0.000,0.000,0.000,0,00:00:00,0,0.000,0.000,0.000,0.000,0.000,0.000,0.000,0.000,0.000,0.000,0.000,0.000,0.000,0.000
106.352,3,0,-2.403,0.531,6506.973,-2.546,0.602,168.578,-1.283,0.518,-12.342,70.000,0.000,0.0118711,7735.855,7123.854,0.541,4.441,439.630,-27.574,6509.022,6509.130,-12.415,0.040,0.299,-0.020,-0.010,0.036,0.000,0.000,0.000,-0.022,0.678,0.006,0.734,0.0000000,0.0000000,6506.380,0.000,0.000,0.000,0,00:00:00,0,0.000,0.000,0.000,0.000,0.000,0.000,0.000,0.000,0.000,0.000,0.000,0.000,0.000,0.000
106.453,3,0,-2.410,0.537,6524.249,-2.543,0.613,167.565,-1.241,0.384,-12.341,70.000,0.000,0.0118711,7739.962,7123.854,0.538,4.498,438.589,-27.685,6526.059,6526.167,-12.404,-0.121,0.314,-0.022,0.044,0.003,0.000,0.000,0.000,-0.023,0.680,0.007,0.733,0.0000000,0.0000000,6523.485,0.000,0.000,0.000,0,00:00:00,0,0.000,0.000,0.000,0.000,0.000,0.000,0.000,0.000,0.000,0.000,0.000,0.000,0.000,0.000
106.554,3,0,-2.416,0.544,6541.401,-2.530,0.632,166.548,-1.143,0.483,-12.220,70.000,0.000,0.0118711,7744.567,7123.854,0.535,4.246,437.552,-27.797,6543.076,6543.184,-12.280,-0.031,0.247,-0.009,0.019,0.013,0.000,0.000,0.000,-0.023,0.681,0.008,0.732,0.0000000,0.0000000,6540.466,0.000,0.000,0.000,0,00:00:00,0,0.000,0.000,0.000,0.000,0.000,0.000,0.000,0.000,0.000,0.000,0.000,0.000,0.000,0.000
106.655,3,0,-2.421,0.552,6558.456,-2.525,0.659,165.545,-1.227,0.555,-12.116,70.000,0.000,0.0118711,7748.452,7123.854,0.531,4.136,436.513,-27.910,6560.158,6560.266,-12.184,0.037,0.397,-0.007,0.048,0.025,0.000,0.000,0.000,-0.022,0.683,0.009,0.730,0.0000000,0.0000000,6557.326,0.000,0.000,0.000,0,00:00:00,0,0.000,0.000,0.000,0.000,0.000,0.000,0.000,0.000,0.000,0.000,0.000,0.000,0.000,0.000
106.756,3,0,-2.424,0.561,6575.365,-2.516,0.678,164.479,-1.181,0.485,-12.416,70.000,0.000,0.0118711,7752.896,7123.854,0.528,3.862,435.503,-28.018,6576.802,6576.910,-12.476,-0.075,0.382,-0.021,0.039,0.025,0.000,0.000,0.000,-0.022,0.684,0.011,0.729,0.0000000,0.0000000,6574.063,0.000,0.000,0.000,0,00:00:00,0,0.000,0.000,0.000,0.000,0.000,0.000,0.000,0.000,0.000,0.000,0.000,0.000,0.000,0.000
106.857,3,0,-2.427,0.571,6592.156,-2.521,0.698,163.439,-1.327,0.495,-12.079,70.000,0.000,0.0118711,7756.097,7123.854,0.525,3.638,434.489,-28.127,6593.526,6593.634,-12.151,-0.044,0.508,0.008,-0.036,0.042,0.000,0.000,0.000,-0.020,0.683,0.012,0.730,0.0000000,0.0000000,6590.678,0.000,0.000,0.000,0,00:00:00,0,0.000,0.000,0.000,0.000,0.000,0.000,0.000,0.000,0.000,0.000,0.000,0.000,0.000,0.000
106.958,3,0,-2.431,0.582,6606.504,-2.530,0.717,160.652,-1.369,0.491,-12.074,70.000,0.000,0.0118711,7761.103,7123.854,0.522,3.845,434.489,-28.127,6593.526,6593.634,-12.151,-0.044,0.508,0.008,-0.036,0.042,0.000,0.000,0.000,-0.019,0.681,0.013,0.732,0.0000000,0.0000000,6590.678,0.000,0.000,0.000,0,00:00:00,0,0.000,0.000,0.000,0.000,0.000,0.000,0.000,0.000,0.000,0.000,0.000,0.000,0.000,0.000
107.059,3,0,-2.434,0.594,6623.238,-2.523,0.736,159.859,-1.206,0.501,-12.068,70.000,0.000,0.0118711,7737.825,7123.854,0.513,4.052,432.489,-28.339,6626.626,6626.735,-12.133,-0.055,0.363,-0.016,0.014,0.011,0.000,0.000,0.000,-0.019,0.682,0.014,0.731,0.0000000,0.0000000,6623.546,0.000,0.000,0.000,0,00:00:00,0,0.000,0.000,0.000,0.000,0.000,0.000,0.000,0.000,0.000,0.000,0.000,0.000,0.000,0.000
107.160,3,0,-2.436,0.607,6639.833,-2.528,0.761,159.024,-1.331,0.565,-12.045,70.000,0.000,0.0118711,7744.403,7123.854,0.511,3.973,431.511,-28.447,6642.852,6642.960,-12.121,-0.014,0.510,-0.019,0.017,0.007,0.000,0.000,0.000,-0.019,0.683,0.015,0.730,0.0000000,0.0000000,6639.799,0.000,0.000,0.000,0,00:00:00,0,0.000,0.000,0.000,0.000,0.000,0.000,0.000,0.000,0.000,0.000,0.000,0.000,0.000,0.000
107.261,3,0,-2.438,0.621,6656.264,-2.514,0.789,158.150,-1.142,0.605,-11.826,70.000,0.000,0.0118711,7750.297,7123.854,0.508,3.877,430.552,-28.551,6658.793,6658.901,-11.891,0.041,0.331,0.002,-0.002,-0.023,0.000,0.000,0.000,-0.020,0.682,0.014,0.731,0.0000000,0.0000000,6655.932,0.000,0.000,0.000,0,00:00:00,0,0.000,0.000,0.000,0.000,0.000,0.000,0.000,0.000,0.000,0.000,0.000,0.000,0.000,0.000
107.362,3,0,-2.439,0.637,6672.532,-2.494,0.835,157.217,-1.087,0.795,-11.870,70.000,0.000,0.0118711,7757.682,7123.854,0.505,3.889,429.603,-28.656,6674.604,6674.712,-11.940,0.238,0.305,0.009,0.028,0.014,0.000,0.000,0.000,-0.019,0.683,0.014,0.730,0.0000000,0.0000000,6671.945,0.000,0.000,0.000,0,00:00:00,0,0.000,0.000,0.000,0.000,0.000,0.000,0.000,0.000,0.000,0.000,0.000,0.000,0.000,0.000
107.463,3,0,-2.438,0.654,6688.664,-2.493,0.851,156.258,-1.278,0.500,-11.814,70.000,0.000,0.0118711,7762.413,7123.854,0.503,3.730,428.651,-28.762,6690.477,6690.586,-11.883,-0.029,0.485,0.017,-0.013,-0.034,0.000,0.000,0.000,-0.020,0.683,0.012,0.730,0.0000000,0.0000000,6687.838,0.000,0.000,0.000,0,00:00:00,0,0.000,0.000,0.000,0.000,0.000,0.000,0.000,0.000,0.000,0.000,0.000,0.000,0.000,0.000
107.564,3,0,-2.437,0.671,6704.689,-2.487,0.863,155.295,-1.219,0.477,-11.781,70.000,0.000,0.0118711,7766.036,7123.854,0.500,3.806,427.696,-28.865,6706.441,6706.550,-11.845,-0.043,0.433,0.009,0.003,0.031,0.000,0.000,0.000,-0.018,0.683,0.013,0.730,0.0000000,0.0000000,6703.613,0.000,0.000,0.000,0,00:00:00,0,0.000,0.000,0.000,0.000,0.000,0.000,0.000,0.000,0.000,0.000,0.000,0.000,0.000,0.000
107.665,3,0,-2.435,0.688,6720.582,-2.465,0.889,154.295,-1.061,0.611,-11.889,70.000,0.000,0.0118711,7769.709,7123.854,0.497,3.792,426.759,-28.968,6722.125,6722.233,-11.947,0.099,0.311,0.013,0.036,0.018,0.000,0.000,0.000,-0.017,0.684,0.013,0.729,0.0000000,0.0000000,6719.269,0.000,0.000,0.000,0,00:00:00,0,0.000,0.000,0.000,0.000,0.000,0.000,0.000,0.000,0.000,0.000,0.000,0.000,0.000,0.000
107.766,3,0,-2.431,0.706,6736.296,-2.439,0.901,153.241,-1.017,0.491,-11.851,70.000,0.000,0.0118711,7773.225,7123.854,0.494,3.587,425.851,-29.070,6737.360,6737.468,-11.901,-0.021,0.272,-0.002,0.001,-0.012,0.000,0.000,0.000,-0.018,0.684,0.013,0.729,0.0000000,0.0000000,6734.806,0.000,0.000,0.000,0,00:00:00,0,0.000,0.000,0.000,0.000,0.000,0.000,0.000,0.000,0.000,0.000,0.000,0.000,0.000,0.000
107.867,3,0,-2.425,0.722,6749.717,-2.413,0.912,150.552,-1.017,0.493,-11.851,70.000,0.000,0.0118711,7775.323,7123.854,0.490,3.580,425.851,-29.070,6737.360,6737.468,-11.901,-0.021,0.272,-0.002,0.001,-0.012,0.000,0.000,0.000,-0.018,0.684,0.013,0.729,0.0000000,0.0000000,6734.806,0.000,0.000,0.000,0,00:00:00,0,0.000,0.000,0.000,0.000,0.000,0.000,0.000,0.000,0.000,0.000,0.000,0.000,0.000,0.000
107.968,3,0,-2.417,0.739,6765.304,-2.391,0.937,149.702,-1.056,0.636,-11.679,70.000,0.000,0.0118711,7756.678,7123.854,0.482,3.573,424.035,-29.267,6767.901,6768.009,-11.738,0.104,0.342,-0.020,0.012,0.030,0.000,0.000,0.000,-0.018,0.685,0.015,0.728,0.0000000,0.0000000,6765.527,0.000,0.000,0.000,0,00:00:00,0,0.000,0.000,0.000,0.000,0.000,0.000,0.000,0.000,0.000,0.000,0.000,0.000,0.000,0.000
108.069,3,0,-2.408,0.757,6778.633,-2.367,0.964,147.229,-1.034,0.663,-11.679,70.000,0.000,0.0118711,7761.811,7123.854,0.479,3.476,424.035,-29.267,6767.901,6768.009,-11.738,0.104,0.342,-0.020,0.012,0.030,0.000,0.000,0.000,-0.017,0.686,0.016,0.727,0.0000000,0.0000000,6765.527,0.000,0.000,0.000,0,00:00:00,0,0.000,0.000,0.000,0.000,0.000,0.000,0.000,0.000,0.000,0.000,0.000,0.000,0.000,0.000
108.170,3,0,-2.397,0.775,6794.202,-2.328,0.993,146.607,-0.874,0.701,-11.777,70.000,0.000,0.0118711,7743.877,7123.854,0.471,3.382,422.207,-29.467,6798.756,6798.864,-11.829,0.115,0.166,-0.021,-0.007,-0.022,0.000,0.000,0.000,-0.019,0.685,0.016,0.728,0.0000000,0.0000000,6795.779,0.000,0.000,0.000,0,00:00:00,0,0.000,0.000,0.000,0.000,0.000,0.000,0.000,0.000,0.000,0.000,0.000,0.000,0.000,0.000
108.271,3,0,-2.383,0.795,6807.536,-2.291,1.024,144.361,-0.883,0.723,-11.775,70.000,0.000,0.0118711,7751.557,7123.854,0.469,3.421,422.207,-29.467,6798.756,6798.864,-11.829,0.115,0.166,-0.021,-0.007,-0.022,0.000,0.000,0.000,-0.020,0.685,0.016,0.728,0.0000000,0.0000000,6795.779,0.000,0.000,0.000,0,00:00:00,0,0.000,0.000,0.000,0.000,0.000,0.000,0.000,0.000,0.000,0.000,0.000,0.000,0.000,0.000
108.372,3,0,-2.368,0.814,6822.935,-2.271,1.024,143.847,-1.050,0.430,-11.586,70.000,0.000,0.0118711,7739.328,7123.854,0.462,3.460,420.467,-29.664,6828.212,6828.320,-11.635,-0.151,0.351,0.015,-0.017,0.015,0.000,0.000,0.000,-0.020,0.685,0.016,0.728,0.0000000,0.0000000,6825.564,0.000,0.000,0.000,0,00:00:00,0,0.000,0.000,0.000,0.000,0.000,0.000,0.000,0.000,0.000,0.000,0.000,0.000,0.000,0.000
108.473,3,0,-2.353,0.832,6838.268,-2.249,1.048,143.317,-1.013,0.675,-11.635,70.000,0.000,0.0118711,7748.522,7123.854,0.461,3.438,419.569,-29.761,6843.459,6843.567,-11.692,0.103,0.359,0.010,0.033,-0.005,0.000,0.000,0.000,-0.019,0.687,0.016,0.726,0.0000000,0.0000000,6840.283,0.000,0.000,0.000,0,00:00:00,0,0.000,0.000,0.000,0.000,0.000,0.000,0.000,0.000,0.000,0.000,0.000,0.000,0.000,0.000
108.574,3,0,-2.337,0.850,6853.466,-2.230,1.051,142.746,-1.041,0.475,-11.435,70.000,0.000,0.0118711,7757.888,7123.854,0.459,3.193,418.705,-29.856,6858.150,6858.258,-11.483,-0.078,0.437,0.007,0.009,0.006,0.000,0.000,0.000,-0.019,0.688,0.016,0.725,0.0000000,0.0000000,6854.885,0.000,0.000,0.000,0,00:00:00,0,0.000,0.000,0.000,0.000,0.000,0.000,0.000,0.000,0.000,0.000,0.000,0.000,0.000,0.000
108.675,3,0,-2.320,0.868,6868.451,-2.194,1.072,142.057,-0.871,0.666,-11.453,70.000,0.000,0.0118711,7766.457,7123.854,0.457,3.004,417.881,-29.950,6872.181,6872.289,-11.500,0.113,0.314,0.002,0.009,-0.009,0.000,0.000,0.000,-0.018,0.690,0.016,0.724,0.0000000,0.0000000,6869.372,0.000,0.000,0.000,0,00:00:00,0,0.000,0.000,0.000,0.000,0.000,0.000,0.000,0.000,0.000,0.000,0.000,0.000,0.000,0.000
108.776,3,0,-2.301,0.885,6883.248,-2.153,1.073,141.292,-0.802,0.476,-11.330,70.000,0.000,0.0118711,7773.388,7123.854,0.455,2.767,417.056,-30.043,6886.256,6886.364,-11.364,-0.101,0.311,-0.025,0.011,0.028,0.000,0.000,0.000,-0.019,0.691,0.017,0.722,0.0000000,0.0000000,6883.744,0.000,0.000,0.000,0,00:00:00,0,0.000,0.000,0.000,0.000,0.000,0.000,0.000,0.000,0.000,0.000,0.000,0.000,0.000,0.000
108.877,3,0,-2.279,0.901,6897.950,-2.084,1.098,140.517,-0.514,0.717,-11.278,70.000,0.000,0.0118711,7779.221,7123.854,0.453,2.470,416.203,-30.137,6900.838,6900.946,-11.311,0.153,0.123,0.010,0.009,0.017,0.000,0.000,0.000,-0.017,0.694,0.019,0.719,0.0000000,0.0000000,6898.001,0.000,0.000,0.000,0,00:00:00,0,0.000,0.000,0.000,0.000,0.000,0.000,0.000,0.000,0.000,0.000,0.000,0.000,0.000,0.000
108.978,3,0,-2.252,0.918,6910.523,-2.009,1.121,138.212,-0.440,0.706,-11.282,70.000,0.000,0.0118711,7784.988,7123.854,0.451,1.997,416.203,-30.137,6900.838,6900.946,-11.311,0.153,0.123,0.010,0.009,0.017,0.000,0.000,0.000,-0.015,0.697,0.020,0.717,0.0000000,0.0000000,6898.001,0.000,0.000,0.000,0,00:00:00,0,0.000,0.000,0.000,0.000,0.000,0.000,0.000,0.000,0.000,0.000,0.000,0.000,0.000,0.000
109.079,3,0,-2.223,0.935,6925.094,-1.966,1.127,137.550,-0.749,0.556,-11.508,70.000,0.000,0.0118711,7772.381,7123.854,0.443,1.634,414.553,-30.323,6929.098,6929.206,-11.538,-0.012,0.420,-0.001,0.005,0.023,0.000,0.000,0.000,-0.014,0.697,0.020,0.717,0.0000000,0.0000000,6926.171,0.000,0.000,0.000,0,00:00:00,0,0.000,0.000,0.000,0.000,0.000,0.000,0.000,0.000,0.000,0.000,0.000,0.000,0.000,0.000
109.180,3,0,-2.192,0.950,6939.501,-1.923,1.118,136.840,-0.718,0.412,-11.256,70.000,0.000,0.0118711,7779.024,7123.854,0.441,1.659,413.749,-30.414,6942.898,6943.006,-11.279,-0.166,0.389,-0.025,0.016,-0.056,0.000,0.000,0.000,-0.019,0.696,0.018,0.717,0.0000000,0.0000000,6940.085,0.000,0.000,0.000,0,00:00:00,0,0.000,0.000,0.000,0.000,0.000,0.000,0.000,0.000,0.000,0.000,0.000,0.000,0.000,0.000
109.281,3,0,-2.161,0.962,6951.827,-1.881,1.111,134.629,-0.722,0.436,-11.255,70.000,0.000,0.0118711,7784.920,7123.854,0.439,1.669,413.749,-30.414,6942.898,6943.006,-11.279,-0.166,0.389,-0.025,0.016,-0.056,0.000,0.000,0.000,-0.022,0.696,0.016,0.717,0.0000000,0.0000000,6940.085,0.000,0.000,0.000,0,00:00:00,0,0.000,0.000,0.000,0.000,0.000,0.000,0.000,0.000,0.000,0.000,0.000,0.000,0.000,0.000
109.382,3,0,-2.128,0.974,6966.107,-1.840,1.110,134.053,-0.716,0.503,-11.177,70.000,0.000,0.0118711,7770.474,7123.854,0.432,1.675,412.143,-30.594,6970.541,6970.649,-11.205,-0.074,0.367,0.019,-0.007,-0.010,0.000,0.000,0.000,-0.021,0.696,0.015,0.718,0.0000000,0.0000000,6967.573,0.000,0.000,0.000,0,00:00:00,0,0.000,0.000,0.000,0.000,0.000,0.000,0.000,0.000,0.000,0.000,0.000,0.000,0.000,0.000
109.483,3,0,-2.095,0.985,6980.273,-1.812,1.128,133.424,-0.829,0.696,-11.288,70.000,0.000,0.0118711,7780.298,7123.854,0.430,1.762,411.342,-30.683,6984.358,6984.466,-11.331,0.083,0.445,-0.027,-0.012,-0.023,0.000,0.000,0.000,-0.022,0.695,0.017,0.719,0.0000000,0.0000000,6981.146,0.000,0.000,0.000,0,00:00:00,0,0.000,0.000,0.000,0.000,0.000,0.000,0.000,0.000,0.000,0.000,0.000,0.000,0.000,0.000
109.584,3,0,-2.063,0.996,6994.211,-1.773,1.131,132.678,-0.690,0.554,-11.232,70.000,0.000,0.0118711,7787.018,7123.854,0.428,1.921,410.594,-30.772,6997.293,6997.401,-11.262,-0.024,0.324,0.030,-0.000,0.017,0.000,0.000,0.000,-0.020,0.695,0.017,0.718,0.0000000,0.0000000,6994.607,0.000,0.000,0.000,0,00:00:00,0,0.000,0.000,0.000,0.000,0.000,0.000,0.000,0.000,0.000,0.000,0.000,0.000,0.000,0.000
109.685,3,0,-2.029,1.007,7008.053,-1.715,1.166,131.919,-0.493,0.876,-11.199,70.000,0.000,0.0118711,7792.348,7123.854,0.426,1.853,409.801,-30.860,7011.003,7011.111,-11.239,0.284,0.199,-0.011,0.025,0.036,0.000,0.000,0.000,-0.016,0.697,0.021,0.716,0.0000000,0.0000000,7007.956,0.000,0.000,0.000,0,00:00:00,0,0.000,0.000,0.000,0.000,0.000,0.000,0.000,0.000,0.000,0.000,0.000,0.000,0.000,0.000
109.786,3,0,-1.993,1.020,7021.760,-1.667,1.171,131.124,-0.582,0.587,-11.125,70.000,0.000,0.0118711,7797.638,7123.854,0.424,1.525,409.031,-30.944,7024.351,7024.460,-11.151,-0.008,0.296,-0.006,0.010,0.012,0.000,0.000,0.000,-0.017,0.698,0.021,0.716,0.0000000,0.0000000,7021.192,0.000,0.000,0.000,0,00:00:00,0,0.000,0.000,0.000,0.000,0.000,0.000,0.000,0.000,0.000,0.000,0.000,0.000,0.000,0.000
109.887,3,0,-1.957,1.032,7035.316,-1.641,1.179,130.268,-0.767,0.613,-11.220,70.000,0.000,0.0118711,7802.103,7123.854,0.421,1.484,408.275,-31.029,7037.479,7037.587,-11.254,0.008,0.449,-0.007,0.016,-0.046,0.000,0.000,0.000,-0.019,0.697,0.019,0.717,0.0000000,0.0000000,7034.315,0.000,0.000,0.000,0,00:00:00,0,0.000,0.000,0.000,0.000,0.000,0.000,0.000,0.000,0.000,0.000,0.000,0.000,0.000,0.000
109.988,3,0,-1.922,1.042,7048.701,-1.592,1.174,129.349,-0.528,0.503,-11.199,70.000,0.000,0.0118711,7805.538,7123.854,0.418,1.625,407.535,-31.111,7050.339,7050.448,-11.220,-0.058,0.245,0.037,0.019,-0.018,0.000,0.000,0.000,-0.018,0.698,0.017,0.716,0.0000000,0.0000000,7047.328,0.000,0.000,0.000,0,00:00:00,0,0.000,0.000,0.000,0.000,0.000,0.000,0.000,0.000,0.000,0.000,0.000,0.000,0.000,0.000
110.089,3,0,-1.886,1.053,7061.929,-1.574,1.197,128.386,-0.813,0.782,-11.166,70.000,0.000,0.0118711,7808.307,7123.854,0.416,1.442,406.798,-31.199,7063.172,7063.281,-11.209,0.254,0.490,0.031,0.017,0.001,0.000,0.000,0.000,-0.015,0.697,0.018,0.717,0.0000000,0.0000000,7060.228,0.000,0.000,0.000,0,00:00:00,0,0.000,0.000,0.000,0.000,0.000,0.000,0.000,0.000,0.000,0.000,0.000,0.000,0.000,0.000
110.190,3,0,-1.853,1.065,7073.219,-1.561,1.216,126.048,-0.841,0.750,-11.166,70.000,0.000,0.0118711,7812.568,7123.854,0.413,1.671,406.798,-31.199,7063.172,7063.281,-11.209,0.254,0.490,0.031,0.017,0.001,0.000,0.000,0.000,-0.012,0.696,0.019,0.718,0.0000000,0.0000000,7060.228,0.000,0.000,0.000,0,00:00:00,0,0.000,0.000,0.000,0.000,0.000,0.000,0.000,0.000,0.000,0.000,0.000,0.000,0.000,0.000
110.291,3,0,-1.821,1.076,7086.311,-1.550,1.215,125.245,-0.852,0.554,-11.037,70.000,0.000,0.0118711,7797.147,7123.854,0.405,1.834,405.331,-31.368,7088.764,7088.872,-11.074,0.032,0.466,-0.027,0.002,0.041,0.000,0.000,0.000,-0.013,0.694,0.020,0.719,0.0000000,0.0000000,7085.695,0.000,0.000,0.000,0,00:00:00,0,0.000,0.000,0.000,0.000,0.000,0.000,0.000,0.000,0.000,0.000,0.000,0.000,0.000,0.000
110.392,3,0,-1.792,1.086,7099.275,-1.542,1.205,124.395,-0.859,0.476,-11.167,70.000,0.000,0.0118711,7800.973,7123.854,0.403,2.030,404.606,-31.447,7101.443,7101.551,-11.201,-0.028,0.446,0.019,-0.006,-0.013,0.000,0.000,0.000,-0.014,0.694,0.018,0.720,0.0000000,0.0000000,7098.262,0.000,0.000,0.000,0,00:00:00,0,0.000,0.000,0.000,0.000,0.000,0.000,0.000,0.000,0.000,0.000,0.000,0.000,0.000,0.000
110.493,3,0,-1.763,1.094,7112.042,-1.519,1.194,123.490,-0.704,0.462,-10.872,70.000,0.000,0.0118711,7804.199,7123.854,0.400,2.126,403.916,-31.532,7113.521,7113.629,-10.899,-0.019,0.331,0.005,-0.002,-0.028,0.000,0.000,0.000,-0.015,0.695,0.016,0.719,0.0000000,0.0000000,7110.719,0.000,0.000,0.000,0,00:00:00,0,0.000,0.000,0.000,0.000,0.000,0.000,0.000,0.000,0.000,0.000,0.000,0.000,0.000,0.000
110.594,3,0,-1.736,1.100,7124.694,-1.507,1.181,122.564,-0.794,0.453,-10.905,70.000,0.000,0.0118711,7806.843,7123.854,0.397,1.962,403.203,-31.611,7126.026,7126.135,-10.935,-0.040,0.419,-0.009,0.029,0.010,0.000,0.000,0.000,-0.016,0.695,0.016,0.719,0.0000000,0.0000000,7123.064,0.000,0.000,0.000,0,00:00:00,0,0.000,0.000,0.000,0.000,0.000,0.000,0.000,0.000,0.000,0.000,0.000,0.000,0.000,0.000
110.695,3,0,-1.711,1.105,7137.219,-1.496,1.185,121.584,-0.795,0.614,-11.207,70.000,0.000,0.0118711,7811.557,7123.854,0.394,1.966,402.501,-31.689,7138.361,7138.469,-11.244,0.088,0.400,-0.016,-0.010,0.020,0.000,0.000,0.000,-0.015,0.694,0.018,0.719,0.0000000,0.0000000,7135.301,0.000,0.000,0.000,0,00:00:00,0,0.000,0.000,0.000,0.000,0.000,0.000,0.000,0.000,0.000,0.000,0.000,0.000,0.000,0.000
110.796,3,0,-1.686,1.109,7149.616,-1.479,1.186,120.613,-0.717,0.595,-10.894,70.000,0.000,0.0118711,7813.300,7123.854,0.391,2.026,401.807,-31.770,7150.566,7150.674,-10.928,0.094,0.354,0.011,0.009,0.005,0.000,0.000,0.000,-0.014,0.695,0.018,0.719,0.0000000,0.0000000,7147.427,0.000,0.000,0.000,0,00:00:00,0,0.000,0.000,0.000,0.000,0.000,0.000,0.000,0.000,0.000,0.000,0.000,0.000,0.000,0.000
110.897,3,0,-1.662,1.113,7161.889,-1.452,1.173,119.617,-0.602,0.457,-10.946,70.000,0.000,0.0118711,7815.130,7123.854,0.388,1.923,401.118,-31.851,7162.682,7162.790,-10.968,-0.031,0.277,0.012,0.007,-0.005,0.000,0.000,0.000,-0.015,0.696,0.017,0.717,0.0000000,0.0000000,7159.443,0.000,0.000,0.000,0,00:00:00,0,0.000,0.000,0.000,0.000,0.000,0.000,0.000,0.000,0.000,0.000,0.000,0.000,0.000,0.000
110.998,3,0,-1.639,1.116,7173.992,-1.452,1.170,118.577,-0.867,0.564,-10.867,70.000,0.000,0.0118711,7816.636,7123.854,0.385,1.704,400.456,-31.927,7174.358,7174.466,-10.905,0.078,0.476,0.002,-0.007,0.014,0.000,0.000,0.000,-0.014,0.694,0.018,0.720,0.0000000,0.0000000,7171.350,0.000,0.000,0.000,0,00:00:00,0,0.000,0.000,0.000,0.000,0.000,0.000,0.000,0.000,0.000,0.000,0.000,0.000,0.000,0.000
111.099,3,0,-1.617,1.117,7185.949,-1.435,1.149,117.504,-0.686,0.375,-10.890,70.000,0.000,0.0118711,7817.006,7123.854,0.382,2.074,399.793,-32.004,7186.064,7186.173,-10.913,-0.092,0.314,0.017,-0.021,0.017,0.000,0.000,0.000,-0.015,0.695,0.015,0.719,0.0000000,0.0000000,7183.147,0.000,0.000,0.000,0,00:00:00,0,0.000,0.000,0.000,0.000,0.000,0.000,0.000,0.000,0.000,0.000,0.000,0.000,0.000,0.000
111.200,3,0,-1.598,1.118,7197.855,-1.455,1.156,116.479,-1.029,0.659,-10.837,70.000,0.000,0.0118711,7817.249,7123.854,0.378,1.954,399.100,-32.080,7198.317,7198.425,-10.889,0.202,0.579,0.011,0.011,-0.027,0.000,0.000,0.000,-0.012,0.692,0.017,0.722,0.0000000,0.0000000,7194.836,0.000,0.000,0.000,0,00:00:00,0,0.000,0.000,0.000,0.000,0.000,0.000,0.000,0.000,0.000,0.000,0.000,0.000,0.000,0.000
111.301,3,0,-1.580,1.119,7209.540,-1.438,1.149,115.381,-0.665,0.516,-10.698,70.000,0.000,0.0118711,7820.300,7123.854,0.375,2.401,398.481,-32.157,7209.283,7209.391,-10.727,0.027,0.293,-0.039,-0.007,-0.007,0.000,0.000,0.000,-0.014,0.694,0.018,0.719,0.0000000,0.0000000,7206.416,0.000,0.000,0.000,0,00:00:00,0,0.000,0.000,0.000,0.000,0.000,0.000,0.000,0.000,0.000,0.000,0.000,0.000,0.000,0.000
111.402,3,0,-1.563,1.117,7221.124,-1.425,1.120,114.282,-0.694,0.302,-10.767,70.000,0.000,0.0118711,7820.690,7123.854,0.371,2.005,397.824,-32.233,7220.928,7221.036,-10.786,-0.202,0.340,-0.016,0.014,-0.015,0.000,0.000,0.000,-0.019,0.695,0.014,0.718,0.0000000,0.0000000,7217.887,0.000,0.000,0.000,0,00:00:00,0,0.000,0.000,0.000,0.000,0.000,0.000,0.000,0.000,0.000,0.000,0.000,0.000,0.000,0.000
111.503,3,0,-1.546,1.114,7232.575,-1.419,1.108,113.176,-0.756,0.463,-10.669,70.000,0.000,0.0118711,7820.723,7123.854,0.368,1.866,397.187,-32.306,7232.234,7232.342,-10.699,0.009,0.391,0.044,0.012,-0.002,0.000,0.000,0.000,-0.016,0.695,0.014,0.719,0.0000000,0.0000000,7229.250,0.000,0.000,0.000,0,00:00:00,0,0.000,0.000,0.000,0.000,0.000,0.000,0.000,0.000,0.000,0.000,0.000,0.000,0.000,0.000
111.604,3,0,-1.531,1.110,7243.842,-1.406,1.090,111.994,-0.676,0.410,-10.905,70.000,0.000,0.0118711,7820.363,7123.854,0.364,1.946,396.577,-32.381,7243.071,7243.179,-10.929,-0.041,0.313,0.012,-0.026,-0.004,0.000,0.000,0.000,-0.016,0.695,0.014,0.719,0.0000000,0.0000000,7240.505,0.000,0.000,0.000,0,00:00:00,0,0.000,0.000,0.000,0.000,0.000,0.000,0.000,0.000,0.000,0.000,0.000,0.000,0.000,0.000
111.705,3,0,-1.517,1.104,7255.073,-1.429,1.047,110.890,-1.020,0.158,-10.743,70.000,0.000,0.0118711,7819.084,7123.854,0.361,1.900,395.918,-32.455,7254.806,7254.914,-10.776,-0.231,0.553,0.045,-0.019,-0.015,0.000,0.000,0.000,-0.018,0.691,0.009,0.722,0.0000000,0.0000000,7251.651,0.000,0.000,0.000,0,00:00:00,0,0.000,0.000,0.000,0.000,0.000,0.000,0.000,0.000,0.000,0.000,0.000,0.000,0.000,0.000
111.806,3,0,-1.504,1.095,7266.183,-1.411,1.024,109.786,-0.622,0.343,-10.672,70.000,0.000,0.0118711,7820.969,7123.854,0.357,2.473,395.297,-32.524,7265.863,7265.971,-10.693,-0.054,0.262,-0.004,0.010,-0.004,0.000,0.000,0.000,-0.016,0.695,0.010,0.719,0.0000000,0.0000000,7262.690,0.000,0.000,0.000,0,00:00:00,0,0.000,0.000,0.000,0.000,0.000,0.000,0.000,0.000,0.000,0.000,0.000,0.000,0.000,0.000
111.907,3,0,-1.491,1.085,7277.165,-1.396,1.009,108.652,-0.628,0.422,-10.850,70.000,0.000,0.0118711,7821.251,7123.854,0.354,1.911,394.688,-32.595,7276.738,7276.846,-10.872,0.004,0.304,-0.013,0.023,0.012,0.000,0.000,0.000,-0.015,0.696,0.012,0.717,0.0000000,0.0000000,7273.622,0.000,0.000,0.000,0,00:00:00,0,0.000,0.000,0.000,0.000,0.000,0.000,0.000,0.000,0.000,0.000,0.000,0.000,0.000,0.000
112.008,3,0,-1.479,1.075,7287.987,-1.394,0.994,107.492,-0.763,0.422,-10.770,70.000,0.000,0.0118711,7820.760,7123.854,0.350,1.700,394.097,-32.669,7287.288,7287.396,-10.798,0.007,0.409,0.000,0.019,-0.018,0.000,0.000,0.000,-0.014,0.695,0.013,0.718,0.0000000,0.0000000,7284.445,0.000,0.000,0.000,0,00:00:00,0,0.000,0.000,0.000,0.000,0.000,0.000,0.000,0.000,0.000,0.000,0.000,0.000,0.000,0.000
112.109,3,0,-1.468,1.064,7298.709,-1.404,0.968,106.351,-0.869,0.296,-10.703,70.000,0.000,0.0118711,7819.590,7123.854,0.346,1.876,393.492,-32.740,7298.111,7298.219,-10.731,-0.114,0.465,-0.000,0.010,0.010,0.000,0.000,0.000,-0.016,0.694,0.012,0.720,0.0000000,0.0000000,7295.162,0.000,0.000,0.000,0,00:00:00,0,0.000,0.000,0.000,0.000,0.000,0.000,0.000,0.000,0.000,0.000,0.000,0.000,0.000,0.000
112.210,3,0,-1.458,1.052,7309.303,-1.391,0.956,105.215,-0.641,0.441,-10.557,70.000,0.000,0.0118711,7820.903,7123.854,0.343,2.151,392.905,-32.811,7308.622,7308.730,-10.582,0.002,0.292,-0.030,-0.007,0.018,0.000,0.000,0.000,-0.015,0.695,0.014,0.719,0.0000000,0.0000000,7305.772,0.000,0.000,0.000,0,00:00:00,0,0.000,0.000,0.000,0.000,0.000,0.000,0.000,0.000,0.000,0.000,0.000,0.000,0.000,0.000
112.311,3,0,-1.449,1.041,7319.806,-1.385,0.949,104.081,-0.697,0.471,-10.714,70.000,0.000,0.0118711,7820.527,7123.854,0.339,1.885,392.311,-32.877,7319.272,7319.380,-10.742,-0.005,0.333,-0.027,-0.039,0.006,0.000,0.000,0.000,-0.016,0.695,0.016,0.719,0.0000000,0.0000000,7316.275,0.000,0.000,0.000,0,00:00:00,0,0.000,0.000,0.000,0.000,0.000,0.000,0.000,0.000,0.000,0.000,0.000,0.000,0.000,0.000
112.412,3,0,-1.439,1.029,7330.238,-1.382,0.931,102.978,-0.735,0.367,-10.726,70.000,0.000,0.0118711,7819.854,7123.854,0.336,1.942,391.715,-32.946,7329.972,7330.080,-10.751,-0.061,0.358,0.043,-0.027,-0.029,0.000,0.000,0.000,-0.016,0.694,0.013,0.719,0.0000000,0.0000000,7326.671,0.000,0.000,0.000,0,00:00:00,0,0.000,0.000,0.000,0.000,0.000,0.000,0.000,0.000,0.000,0.000,0.000,0.000,0.000,0.000
112.513,3,0,-1.431,1.017,7339.112,-1.381,0.909,100.795,-0.741,0.319,-10.727,70.000,0.000,0.0118711,7819.405,7123.854,0.332,2.002,391.715,-32.946,7329.972,7330.080,-10.751,-0.061,0.358,0.043,-0.027,-0.029,0.000,0.000,0.000,-0.015,0.694,0.011,0.719,0.0000000,0.0000000,7326.671,0.000,0.000,0.000,0,00:00:00,0,0.000,0.000,0.000,0.000,0.000,0.000,0.000,0.000,0.000,0.000,0.000,0.000,0.000,0.000
112.614,3,0,-1.422,1.003,7349.440,-1.371,0.882,99.879,-0.649,0.264,-10.564,70.000,0.000,0.0118711,7809.282,7123.854,0.325,2.033,390.570,-33.079,7350.568,7350.676,-10.582,-0.129,0.303,-0.017,-0.008,0.009,0.000,0.000,0.000,-0.016,0.695,0.010,0.718,0.0000000,0.0000000,7347.145,0.000,0.000,0.000,0,00:00:00,0,0.000,0.000,0.000,0.000,0.000,0.000,0.000,0.000,0.000,0.000,0.000,0.000,0.000,0.000
112.715,3,0,-1.415,0.989,7359.655,-1.394,0.869,98.942,-0.968,0.385,-10.618,70.000,0.000,0.0118711,7811.094,7123.854,0.322,1.860,390.010,-33.144,7360.661,7360.769,-10.655,-0.032,0.543,-0.024,0.038,-0.015,0.000,0.000,0.000,-0.016,0.693,0.012,0.721,0.0000000,0.0000000,7357.222,0.000,0.000,0.000,0,00:00:00,0,0.000,0.000,0.000,0.000,0.000,0.000,0.000,0.000,0.000,0.000,0.000,0.000,0.000,0.000
112.816,3,0,-1.411,0.976,7369.698,-1.409,0.880,97.950,-0.889,0.619,-10.587,70.000,0.000,0.0118711,7812.239,7123.854,0.319,2.278,389.479,-33.211,7370.228,7370.337,-10.632,0.161,0.458,-0.032,0.008,0.021,0.000,0.000,0.000,-0.013,0.692,0.017,0.721,0.0000000,0.0000000,7367.193,0.000,0.000,0.000,0,00:00:00,0,0.000,0.000,0.000,0.000,0.000,0.000,0.000,0.000,0.000,0.000,0.000,0.000,0.000,0.000
112.917,3,0,-1.407,0.965,7379.668,-1.410,0.886,96.974,-0.748,0.576,-10.633,70.000,0.000,0.0118711,7812.898,7123.854,0.316,2.348,388.918,-33.274,7380.360,7380.469,-10.667,0.154,0.361,0.037,0.008,0.025,0.000,0.000,0.000,-0.010,0.694,0.018,0.720,0.0000000,0.0000000,7377.059,0.000,0.000,0.000,0,00:00:00,0,0.000,0.000,0.000,0.000,0.000,0.000,0.000,0.000,0.000,0.000,0.000,0.000,0.000,0.000
113.018,3,0,-1.405,0.957,7389.522,-1.418,0.912,95.994,-0.825,0.757,-10.543,70.000,0.000,0.0118711,7813.814,7123.854,0.313,2.119,388.379,-33.340,7390.112,7390.221,-10.589,0.326,0.426,-0.004,-0.017,0.045,0.000,0.000,0.000,-0.005,0.693,0.022,0.721,0.0000000,0.0000000,7386.819,0.000,0.000,0.000,0,00:00:00,0,0.000,0.000,0.000,0.000,0.000,0.000,0.000,0.000,0.000,0.000,0.000,0.000,0.000,0.000
113.119,3,0,-1.402,0.950,7399.251,-1.399,0.887,95.005,-0.550,0.249,-10.436,70.000,0.000,0.0118711,7814.337,7123.854,0.310,2.260,387.850,-33.402,7399.674,7399.782,-10.450,-0.151,0.226,0.015,-0.012,0.003,0.000,0.000,0.000,-0.012,0.696,0.015,0.718,0.0000000,0.0000000,7396.474,0.000,0.000,0.000,0,00:00:00,0,0.000,0.000,0.000,0.000,0.000,0.000,0.000,0.000,0.000,0.000,0.000,0.000,0.000,0.000
113.220,3,0,-1.397,0.940,7407.530,-1.376,0.860,93.007,-0.508,0.231,-10.439,70.000,0.000,0.0118711,7817.751,7123.854,0.307,1.783,387.850,-33.402,7399.674,7399.782,-10.450,-0.151,0.226,0.015,-0.012,0.003,0.000,0.000,0.000,-0.015,0.697,0.011,0.716,0.0000000,0.0000000,7396.474,0.000,0.000,0.000,0,00:00:00,0,0.000,0.000,0.000,0.000,0.000,0.000,0.000,0.000,0.000,0.000,0.000,0.000,0.000,0.000
113.321,3,0,-1.392,0.931,7417.177,-1.378,0.854,92.186,-0.744,0.433,-10.396,70.000,0.000,0.0118711,7808.132,7123.854,0.300,1.545,386.787,-33.528,7418.948,7419.056,-10.424,0.026,0.406,-0.024,0.011,0.019,0.000,0.000,0.000,-0.014,0.695,0.014,0.718,0.0000000,0.0000000,7415.468,0.000,0.000,0.000,0,00:00:00,0,0.000,0.000,0.000,0.000,0.000,0.000,0.000,0.000,0.000,0.000,0.000,0.000,0.000,0.000
113.422,3,0,-1.388,0.921,7425.401,-1.382,0.852,90.363,-0.771,0.460,-10.393,70.000,0.000,0.0118711,7810.242,7123.854,0.298,1.857,386.787,-33.528,7418.948,7419.056,-10.424,0.026,0.406,-0.024,0.011,0.019,0.000,0.000,0.000,-0.014,0.694,0.016,0.719,0.0000000,0.0000000,7415.468,0.000,0.000,0.000,0,00:00:00,0,0.000,0.000,0.000,0.000,0.000,0.000,0.000,0.000,0.000,0.000,0.000,0.000,0.000,0.000
113.523,3,0,-1.383,0.912,7434.822,-1.372,0.831,89.572,-0.632,0.274,-10.403,70.000,0.000,0.0118711,7804.403,7123.854,0.292,2.014,385.802,-33.647,7436.845,7436.953,-10.421,-0.174,0.287,-0.018,-0.030,-0.033,0.000,0.000,0.000,-0.018,0.695,0.012,0.719,0.0000000,0.0000000,7434.042,0.000,0.000,0.000,0,00:00:00,0,0.000,0.000,0.000,0.000,0.000,0.000,0.000,0.000,0.000,0.000,0.000,0.000,0.000,0.000
113.624,3,0,-1.379,0.902,7444.177,-1.379,0.835,88.803,-0.794,0.509,-10.290,70.000,0.000,0.0118711,7807.111,7123.854,0.289,1.883,385.283,-33.707,7446.284,7446.392,-10.323,0.107,0.430,0.046,0.035,0.041,0.000,0.000,0.000,-0.012,0.694,0.015,0.719,0.0000000,0.0000000,7443.172,0.000,0.000,0.000,0,00:00:00,0,0.000,0.000,0.000,0.000,0.000,0.000,0.000,0.000,0.000,0.000,0.000,0.000,0.000,0.000
113.725,3,0,-1.376,0.895,7453.439,-1.383,0.843,88.007,-0.760,0.551,-10.441,70.000,0.000,0.0118711,7809.805,7123.854,0.287,2.034,384.780,-33.768,7455.455,7455.563,-10.476,0.124,0.376,-0.019,-0.026,-0.015,0.000,0.000,0.000,-0.012,0.694,0.017,0.720,0.0000000,0.0000000,7452.198,0.000,0.000,0.000,0,00:00:00,0,0.000,0.000,0.000,0.000,0.000,0.000,0.000,0.000,0.000,0.000,0.000,0.000,0.000,0.000
113.826,3,0,-1.374,0.887,7462.542,-1.379,0.835,87.163,-0.687,0.391,-10.323,70.000,0.000,0.0118711,7812.202,7123.854,0.284,2.121,384.307,-33.823,7464.069,7464.178,-10.347,-0.027,0.340,0.002,0.024,-0.009,0.000,0.000,0.000,-0.014,0.695,0.015,0.719,0.0000000,0.0000000,7461.120,0.000,0.000,0.000,0,00:00:00,0,0.000,0.000,0.000,0.000,0.000,0.000,0.000,0.000,0.000,0.000,0.000,0.000,0.000,0.000
113.927,3,0,-1.370,0.881,7471.508,-1.359,0.840,86.302,-0.522,0.506,-10.114,70.000,0.000,0.0118711,7814.159,7123.854,0.282,1.931,383.834,-33.881,7472.715,7472.823,-10.137,0.084,0.228,-0.014,-0.024,-0.027,0.000,0.000,0.000,-0.013,0.697,0.016,0.717,0.0000000,0.0000000,7469.937,0.000,0.000,0.000,0,00:00:00,0,0.000,0.000,0.000,0.000,0.000,0.000,0.000,0.000,0.000,0.000,0.000,0.000,0.000,0.000
114.028,3,0,-1.366,0.875,7480.481,-1.359,0.836,85.501,-0.718,0.429,-10.217,70.000,0.000,0.0118711,7815.834,7123.854,0.279,1.678,383.311,-33.938,7482.268,7482.376,-10.244,0.028,0.385,0.027,0.014,-0.002,0.000,0.000,0.000,-0.012,0.695,0.015,0.718,0.0000000,0.0000000,7478.650,0.000,0.000,0.000,0,00:00:00,0,0.000,0.000,0.000,0.000,0.000,0.000,0.000,0.000,0.000,0.000,0.000,0.000,0.000,0.000
114.129,3,0,-1.361,0.869,7489.250,-1.328,0.831,84.587,-0.411,0.403,-10.432,70.000,0.000,0.0118711,7817.842,7123.854,0.276,1.874,382.872,-33.994,7490.288,7490.396,-10.447,0.006,0.184,0.009,0.066,-0.024,0.000,0.000,0.000,-0.013,0.699,0.014,0.715,0.0000000,0.0000000,7487.259,0.000,0.000,0.000,0,00:00:00,0,0.000,0.000,0.000,0.000,0.000,0.000,0.000,0.000,0.000,0.000,0.000,0.000,0.000,0.000
114.230,3,0,-1.353,0.864,7497.933,-1.295,0.837,83.685,-0.380,0.515,-10.349,70.000,0.000,0.0118711,7821.670,7123.854,0.273,1.251,382.396,-34.054,7499.003,7499.111,-10.366,0.156,0.173,0.034,-0.022,-0.004,0.000,0.000,0.000,-0.009,0.700,0.015,0.714,0.0000000,0.0000000,7495.765,0.000,0.000,0.000,0,00:00:00,0,0.000,0.000,0.000,0.000,0.000,0.000,0.000,0.000,0.000,0.000,0.000,0.000,0.000,0.000
114.331,3,0,-1.344,0.858,7506.441,-1.289,0.821,82.729,-0.648,0.291,-10.269,70.000,0.000,0.0118711,7823.031,7123.854,0.271,1.167,381.960,-34.107,7506.998,7507.106,-10.286,-0.063,0.368,0.001,0.017,-0.031,0.000,0.000,0.000,-0.012,0.697,0.012,0.717,0.0000000,0.0000000,7504.167,0.000,0.000,0.000,0,00:00:00,0,0.000,0.000,0.000,0.000,0.000,0.000,0.000,0.000,0.000,0.000,0.000,0.000,0.000,0.000
114.432,3,0,-1.336,0.853,7514.907,-1.288,0.812,81.793,-0.698,0.358,-10.478,70.000,0.000,0.0118711,7823.634,7123.854,0.267,1.560,381.480,-34.161,7515.805,7515.914,-10.501,-0.007,0.374,-0.004,0.011,-0.011,0.000,0.000,0.000,-0.013,0.696,0.012,0.718,0.0000000,0.0000000,7512.465,0.000,0.000,0.000,0,00:00:00,0,0.000,0.000,0.000,0.000,0.000,0.000,0.000,0.000,0.000,0.000,0.000,0.000,0.000,0.000
114.533,3,0,-1.329,0.847,7523.253,-1.311,0.813,80.854,-0.926,0.455,-10.311,70.000,0.000,0.0118711,7824.399,7123.854,0.264,1.768,381.034,-34.215,7523.985,7524.093,-10.350,0.093,0.510,0.001,-0.008,0.031,0.000,0.000,0.000,-0.010,0.693,0.014,0.721,0.0000000,0.0000000,7520.661,0.000,0.000,0.000,0,00:00:00,0,0.000,0.000,0.000,0.000,0.000,0.000,0.000,0.000,0.000,0.000,0.000,0.000,0.000,0.000
114.634,3,0,-1.325,0.842,7531.452,-1.309,0.807,79.881,-0.673,0.382,-10.265,70.000,0.000,0.0118711,7824.855,7123.854,0.261,2.319,380.605,-34.267,7531.866,7531.974,-10.289,0.018,0.311,-0.007,-0.002,-0.010,0.000,0.000,0.000,-0.011,0.694,0.014,0.719,0.0000000,0.0000000,7528.753,0.000,0.000,0.000,0,00:00:00,0,0.000,0.000,0.000,0.000,0.000,0.000,0.000,0.000,0.000,0.000,0.000,0.000,0.000,0.000
114.735,3,0,-1.320,0.837,7539.519,-1.302,0.810,78.886,-0.625,0.476,-10.228,70.000,0.000,0.0118711,7827.725,7123.854,0.258,2.029,380.178,-34.320,7539.726,7539.834,-10.253,0.081,0.313,-0.029,0.044,0.024,0.000,0.000,0.000,-0.011,0.696,0.016,0.718,0.0000000,0.0000000,7536.742,0.000,0.000,0.000,0,00:00:00,0,0.000,0.000,0.000,0.000,0.000,0.000,0.000,0.000,0.000,0.000,0.000,0.000,0.000,0.000
114.836,3,0,-1.314,0.832,7547.544,-1.287,0.798,77.918,-0.546,0.321,-10.405,70.000,0.000,0.0118711,7828.232,7123.854,0.255,1.764,379.722,-34.371,7548.115,7548.223,-10.421,-0.053,0.264,0.024,0.020,0.003,0.000,0.000,0.000,-0.012,0.697,0.013,0.716,0.0000000,0.0000000,7544.628,0.000,0.000,0.000,0,00:00:00,0,0.000,0.000,0.000,0.000,0.000,0.000,0.000,0.000,0.000,0.000,0.000,0.000,0.000,0.000
114.937,3,0,-1.308,0.826,7555.376,-1.262,0.794,76.900,-0.432,0.389,-10.190,70.000,0.000,0.0118711,7828.864,7123.854,0.252,1.551,379.329,-34.422,7555.357,7555.465,-10.205,0.017,0.195,-0.007,-0.004,-0.017,0.000,0.000,0.000,-0.013,0.699,0.013,0.715,0.0000000,0.0000000,7552.411,0.000,0.000,0.000,0,00:00:00,0,0.000,0.000,0.000,0.000,0.000,0.000,0.000,0.000,0.000,0.000,0.000,0.000,0.000,0.000
115.038,3,0,-1.301,0.822,7563.099,-1.280,0.796,75.833,-0.862,0.454,-10.639,70.000,0.000,0.0118711,7828.900,7123.854,0.249,1.334,378.912,-34.474,7563.053,7563.161,-10.672,0.059,0.498,-0.004,0.011,0.010,0.000,0.000,0.000,-0.012,0.695,0.014,0.719,0.0000000,0.0000000,7560.092,0.000,0.000,0.000,0,00:00:00,0,0.000,0.000,0.000,0.000,0.000,0.000,0.000,0.000,0.000,0.000,0.000,0.000,0.000,0.000
115.139,3,0,-1.297,0.817,7570.762,-1.297,0.782,74.840,-0.854,0.295,-10.239,70.000,0.000,0.0118711,7828.200,7123.854,0.245,1.971,378.482,-34.524,7570.996,7571.105,-10.268,-0.102,0.448,-0.018,-0.011,0.027,0.000,0.000,0.000,-0.014,0.693,0.013,0.721,0.0000000,0.0000000,7567.670,0.000,0.000,0.000,0,00:00:00,0,0.000,0.000,0.000,0.000,0.000,0.000,0.000,0.000,0.000,0.000,0.000,0.000,0.000,0.000
115.240,3,0,-1.295,0.812,7578.280,-1.315,0.785,73.810,-0.863,0.449,-10.290,70.000,0.000,0.0118711,7828.091,7123.854,0.242,2.266,378.090,-34.570,7578.246,7578.354,-10.326,0.037,0.446,-0.010,0.015,0.018,0.000,0.000,0.000,-0.013,0.692,0.015,0.721,0.0000000,0.0000000,7575.146,0.000,0.000,0.000,0,00:00:00,0,0.000,0.000,0.000,0.000,0.000,0.000,0.000,0.000,0.000,0.000,0.000,0.000,0.000,0.000
115.341,3,0,-1.293,0.808,7585.694,-1.309,0.791,72.778,-0.615,0.488,-10.306,70.000,0.000,0.0118711,7830.552,7123.854,0.239,2.325,377.689,-34.619,7585.660,7585.768,-10.332,0.042,0.256,-0.035,-0.045,-0.010,0.000,0.000,0.000,-0.014,0.695,0.016,0.719,0.0000000,0.0000000,7582.519,0.000,0.000,0.000,0,00:00:00,0,0.000,0.000,0.000,0.000,0.000,0.000,0.000,0.000,0.000,0.000,0.000,0.000,0.000,0.000
115.442,3,0,-1.292,0.804,7593.022,-1.325,0.781,71.754,-0.838,0.327,-10.354,70.000,0.000,0.0118711,7830.598,7123.854,0.236,2.002,377.287,-34.667,7593.093,7593.201,-10.384,-0.125,0.429,-0.004,-0.024,0.023,0.000,0.000,0.000,-0.016,0.693,0.014,0.721,0.0000000,0.0000000,7589.790,0.000,0.000,0.000,0,00:00:00,0,0.000,0.000,0.000,0.000,0.000,0.000,0.000,0.000,0.000,0.000,0.000,0.000,0.000,0.000
115.543,3,0,-1.293,0.800,7600.240,-1.329,0.779,70.728,-0.722,0.398,-10.337,70.000,0.000,0.0118711,7830.408,7123.854,0.232,2.252,376.899,-34.714,7600.277,7600.385,-10.364,-0.066,0.353,-0.014,0.025,-0.027,0.000,0.000,0.000,-0.018,0.694,0.014,0.719,0.0000000,0.0000000,7596.959,0.000,0.000,0.000,0,00:00:00,0,0.000,0.000,0.000,0.000,0.000,0.000,0.000,0.000,0.000,0.000,0.000,0.000,0.000,0.000
115.644,3,0,-1.294,0.795,7607.293,-1.347,0.759,69.664,-0.857,0.217,-10.255,70.000,0.000,0.0118711,7830.249,7123.854,0.229,2.029,376.539,-34.760,7606.955,7607.063,-10.281,-0.234,0.445,0.003,-0.008,-0.033,0.000,0.000,0.000,-0.021,0.693,0.010,0.721,0.0000000,0.0000000,7604.026,0.000,0.000,0.000,0,00:00:00,0,0.000,0.000,0.000,0.000,0.000,0.000,0.000,0.000,0.000,0.000,0.000,0.000,0.000,0.000
115.745,3,0,-1.295,0.790,7614.296,-1.338,0.766,68.647,-0.594,0.483,-10.208,70.000,0.000,0.0118711,7829.486,7123.854,0.226,2.276,376.143,-34.808,7614.299,7614.408,-10.234,0.028,0.257,0.002,-0.009,0.042,0.000,0.000,0.000,-0.017,0.695,0.014,0.718,0.0000000,0.0000000,7610.991,0.000,0.000,0.000,0,00:00:00,0,0.000,0.000,0.000,0.000,0.000,0.000,0.000,0.000,0.000,0.000,0.000,0.000,0.000,0.000
115.846,3,0,-1.295,0.786,7621.193,-1.321,0.762,67.633,-0.518,0.378,-10.150,70.000,0.000,0.0118711,7832.145,7123.854,0.222,1.881,375.773,-34.851,7621.183,7621.291,-10.168,-0.044,0.221,0.031,-0.037,0.024,0.000,0.000,0.000,-0.016,0.697,0.014,0.717,0.0000000,0.0000000,7617.855,0.000,0.000,0.000,0,00:00:00,0,0.000,0.000,0.000,0.000,0.000,0.000,0.000,0.000,0.000,0.000,0.000,0.000,0.000,0.000
