State - Time (s),State - Stage,State - Stage,State - PX (m),State - PY (m),State - PZ (m),State - VX (m/s),State - VY (m/s),State - VZ (m/s),State - AX (m/s/s),State - AY (m/s/s),State - AZ (m/s/s),State - Actuation Angle (deg),State - Acutal Angle (deg),State - CdA,State - Est Apo (m),State - Target Apogee (m),State - Mach Number,State - Tilt [deg],MockBarometer - Pres (hPa),MockBarometer - Temp (C),MockBarometer - Alt ASL (m),MockBarometer - Alt AGL (m),MockIMU - AccX (m/s^2),MockIMU - AccY (m/s^2),MockIMU - AccZ (m/s^2),MockIMU - GyroX (rad/s),MockIMU - GyroY (rad/s),MockIMU - GyroZ (rad/s),MockIMU - MagX (uT),MockIMU - MagY (uT),MockIMU - MagZ (uT),MockIMU - OriX,MockIMU - OriY,MockIMU - OriZ,MockIMU - OriW,MockGPS - Lat,MockGPS - Lon,MockGPS - Alt (m),MockGPS - Disp X (m),MockGPS - Disp Y (m),MockGPS - Disp Z (m),MockGPS - Fix Quality,MockGPS - Time of Day,E5 - Rel Steps,BR - Battery Voltage (V),BR - ALT (m),BR - PRES (Pa),BR - TEMP (C),BR - VEL (m/s),BR - ANG (deg),BR - ACCX (m/s^2),BR - ACCY (m/s^2),BR - ACCZ (m/s^2),BR - GYROX (rad/s),BR - GYROY (rad/s),BR - GYROZ (rad/s),BR - ROLL (deg),BR - TILT (deg)
23.045,1,0,-1.248,-0.211,-10.843,-0.948,-0.085,-2.015,2.864,2.411,96.642,0.000,0.000,0.0103675,0.000,7500.000,0.039,2.137,1013.094,15.042,1.301,1.220,96.713,0.047,0.542,-0.024,0.020,-0.009,0.000,0.000,0.000,0.007,0.694,-0.010,0.719,0.0000000,0.0000000,1.451,0.000,0.000,0.000,0,00:00:00,0,0.000,0.000,0.000,0.000,0.000,0.000,0.000,0.000,0.000,0.000,0.000,0.000,0.000,0.000
23.146,1,0,-1.201,-0.189,-8.506,-0.578,0.146,9.391,3.039,2.189,97.828,0.000,0.000,0.0103675,0.000,7500.000,0.007,2.023,1012.757,15.026,4.105,4.024,97.899,-0.134,0.267,-0.008,0.014,-0.026,0.000,0.000,0.000,0.006,0.695,-0.011,0.719,0.0000000,0.0000000,3.883,0.000,0.000,0.000,0,00:00:00,0,0.000,0.000,0.000,0.000,0.000,0.000,0.000,0.000,0.000,0.000,0.000,0.000,0.000,0.000
23.247,1,0,-1.124,-0.146,-5.069,-0.197,0.388,20.826,3.178,2.313,98.522,0.000,0.000,0.0103675,0.000,7500.000,0.028,1.943,1012.385,15.003,7.198,7.117,98.599,0.123,0.301,-0.016,-0.016,-0.032,0.000,0.000,0.000,0.004,0.694,-0.011,0.719,0.0000000,0.0000000,7.305,0.000,0.000,0.000,0,00:00:00,0,0.000,0.000,0.000,0.000,0.000,0.000,0.000,0.000,0.000,0.000,0.000,0.000,0.000,0.000
23.348,1,0,-1.020,-0.085,-0.445,0.159,0.646,32.368,2.983,2.509,99.390,0.000,0.000,0.0103675,0.000,7500.000,0.061,2.034,1011.810,14.975,11.989,11.908,99.465,0.103,0.451,0.020,0.008,-0.003,0.000,0.000,0.000,0.005,0.695,-0.012,0.719,0.0000000,0.0000000,11.727,0.000,0.000,0.000,0,00:00:00,0,0.000,0.000,0.000,0.000,0.000,0.000,0.000,0.000,0.000,0.000,0.000,0.000,0.000,0.000
23.449,1,0,-0.894,-0.008,5.255,0.500,0.874,43.949,2.914,2.257,100.465,0.000,0.000,0.0103675,0.000,7500.000,0.095,1.992,1011.196,14.938,17.109,17.028,100.532,-0.064,0.345,-0.012,0.021,-0.018,0.000,0.000,0.000,0.004,0.695,-0.012,0.718,0.0000000,0.0000000,17.158,0.000,0.000,0.000,0,00:00:00,0,0.000,0.000,0.000,0.000,0.000,0.000,0.000,0.000,0.000,0.000,0.000,0.000,0.000,0.000
23.550,1,0,-0.749,0.084,12.108,0.827,1.127,55.603,2.844,2.548,101.355,0.000,0.000,0.0103675,0.000,7500.000,0.129,1.872,1010.390,14.894,23.825,23.744,101.426,0.105,0.301,0.009,0.013,-0.019,0.000,0.000,0.000,0.004,0.696,-0.013,0.718,0.0000000,0.0000000,23.608,0.000,0.000,0.000,0,00:00:00,0,0.000,0.000,0.000,0.000,0.000,0.000,0.000,0.000,0.000,0.000,0.000,0.000,0.000,0.000
23.651,1,0,-0.589,0.190,20.030,1.132,1.360,67.268,2.702,2.407,102.303,0.000,0.000,0.0103675,0.000,7500.000,0.164,1.796,1009.523,14.847,31.057,30.976,102.366,0.082,0.336,-0.013,0.014,0.016,0.000,0.000,0.000,0.004,0.696,-0.012,0.718,0.0000000,0.0000000,31.085,0.000,0.000,0.000,0,00:00:00,0,0.000,0.000,0.000,0.000,0.000,0.000,0.000,0.000,0.000,0.000,0.000,0.000,0.000,0.000
23.752,1,0,-0.418,0.308,29.080,1.405,1.593,78.985,2.488,2.468,103.210,0.000,0.000,0.0103675,0.000,7500.000,0.198,1.716,1008.479,14.790,39.770,39.689,103.269,0.043,0.314,0.008,0.026,0.018,0.000,0.000,0.000,0.005,0.697,-0.012,0.717,0.0000000,0.0000000,39.598,0.000,0.000,0.000,0,00:00:00,0,0.000,0.000,0.000,0.000,0.000,0.000,0.000,0.000,0.000,0.000,0.000,0.000,0.000,0.000
23.853,1,0,-0.239,0.436,39.151,1.654,1.852,90.662,2.338,2.791,104.057,0.000,0.000,0.0103675,0.000,7500.000,0.233,1.569,1007.396,14.727,48.820,48.739,104.119,0.162,0.531,0.018,-0.004,0.005,0.000,0.000,0.000,0.006,0.697,-0.012,0.717,0.0000000,0.0000000,49.157,0.000,0.000,0.000,0,00:00:00,0,0.000,0.000,0.000,0.000,0.000,0.000,0.000,0.000,0.000,0.000,0.000,0.000,0.000,0.000
23.954,1,0,-0.053,0.576,50.331,1.908,2.085,102.375,2.483,2.611,104.957,0.000,0.000,0.0103675,0.000,7500.000,0.267,1.593,1006.114,14.659,59.546,59.465,105.019,0.122,0.221,-0.016,0.018,-0.015,0.000,0.000,0.000,0.005,0.698,-0.012,0.716,0.0000000,0.0000000,59.771,0.000,0.000,0.000,0,00:00:00,0,0.000,0.000,0.000,0.000,0.000,0.000,0.000,0.000,0.000,0.000,0.000,0.000,0.000,0.000
24.055,1,0,0.138,0.721,62.600,2.167,2.278,114.103,2.643,2.288,105.852,0.000,0.000,0.0103675,0.000,7500.000,0.302,1.491,1004.722,14.584,71.200,71.119,105.909,-0.184,0.237,-0.003,-0.014,0.012,0.000,0.000,0.000,0.005,0.697,-0.012,0.717,0.0000000,0.0000000,71.447,0.000,0.000,0.000,0,00:00:00,0,0.000,0.000,0.000,0.000,0.000,0.000,0.000,0.000,0.000,0.000,0.000,0.000,0.000,0.000
24.156,1,0,0.334,0.871,75.962,2.405,2.473,125.868,2.531,2.389,106.915,0.000,0.000,0.0103675,0.000,7500.000,0.336,1.570,1003.199,14.498,83.974,83.893,106.971,-0.059,0.276,-0.005,0.009,-0.021,0.000,0.000,0.000,0.004,0.698,-0.012,0.716,0.0000000,0.0000000,84.197,0.000,0.000,0.000,0,00:00:00,0,0.000,0.000,0.000,0.000,0.000,0.000,0.000,0.000,0.000,0.000,0.000,0.000,0.000,0.000
24.257,1,0,0.535,1.023,90.442,2.658,2.649,137.652,2.787,2.287,107.668,0.000,0.000,0.0103675,0.000,7500.000,0.371,1.518,1001.528,14.409,97.996,97.915,107.728,0.185,0.310,-0.034,-0.026,-0.017,0.000,0.000,0.000,0.002,0.697,-0.012,0.717,0.0000000,0.0000000,98.027,0.000,0.000,0.000,0,00:00:00,0,0.000,0.000,0.000,0.000,0.000,0.000,0.000,0.000,0.000,0.000,0.000,0.000,0.000,0.000
24.358,1,0,0.740,1.176,103.916,2.928,2.781,147.796,3.061,1.925,107.668,0.000,0.000,0.0103675,0.000,7500.000,0.406,1.664,1001.528,14.409,97.996,97.915,107.728,0.185,0.310,-0.034,-0.026,-0.017,0.000,0.000,0.000,0.000,0.696,-0.011,0.718,0.0000000,0.0000000,98.027,0.000,0.000,0.000,0,00:00:00,0,0.000,0.000,0.000,0.000,0.000,0.000,0.000,0.000,0.000,0.000,0.000,0.000,0.000,0.000
24.459,1,0,0.951,1.325,120.755,3.195,2.883,159.869,3.147,1.706,109.528,0.000,0.000,0.0103675,0.000,7500.000,0.436,1.809,997.826,14.204,129.139,129.058,109.586,-0.097,0.256,0.003,0.003,-0.000,0.000,0.000,0.000,0.000,0.696,-0.011,0.718,0.0000000,0.0000000,128.965,0.000,0.000,0.000,0,00:00:00,0,0.000,0.000,0.000,0.000,0.000,0.000,0.000,0.000,0.000,0.000,0.000,0.000,0.000,0.000
24.560,1,0,1.165,1.467,138.643,3.433,2.952,171.893,2.962,1.456,110.329,0.000,0.000,0.0103675,0.000,7500.000,0.471,1.793,995.832,14.092,145.952,145.871,110.377,-0.190,0.313,-0.016,0.014,-0.027,0.000,0.000,0.000,-0.001,0.696,-0.012,0.718,0.0000000,0.0000000,146.090,0.000,0.000,0.000,0,00:00:00,0,0.000,0.000,0.000,0.000,0.000,0.000,0.000,0.000,0.000,0.000,0.000,0.000,0.000,0.000
24.661,1,0,1.380,1.605,157.631,3.647,3.067,183.904,2.845,1.977,111.084,0.000,0.000,0.0103675,0.000,7500.000,0.507,1.713,993.669,13.973,164.216,164.135,111.137,0.043,0.337,0.025,0.010,-0.007,0.000,0.000,0.000,-0.001,0.697,-0.013,0.717,0.0000000,0.0000000,164.330,0.000,0.000,0.000,0,00:00:00,0,0.000,0.000,0.000,0.000,0.000,0.000,0.000,0.000,0.000,0.000,0.000,0.000,0.000,0.000
24.762,1,0,1.593,1.741,177.753,3.852,3.186,195.937,2.872,2.100,111.907,0.000,0.000,0.0103675,0.000,7500.000,0.543,1.659,991.352,13.845,183.828,183.747,111.964,-0.062,0.184,0.019,0.013,-0.007,0.000,0.000,0.000,-0.000,0.697,-0.014,0.717,0.0000000,0.0000000,183.693,0.000,0.000,0.000,0,00:00:00,0,0.000,0.000,0.000,0.000,0.000,0.000,0.000,0.000,0.000,0.000,0.000,0.000,0.000,0.000
24.863,1,0,1.805,1.874,198.962,4.042,3.291,207.956,2.827,2.026,112.762,0.000,0.000,0.0103675,0.000,7500.000,0.578,1.584,988.946,13.712,204.223,204.142,112.814,-0.134,0.516,-0.002,-0.024,-0.030,0.000,0.000,0.000,-0.001,0.696,-0.015,0.717,0.0000000,0.0000000,204.187,0.000,0.000,0.000,0,00:00:00,0,0.000,0.000,0.000,0.000,0.000,0.000,0.000,0.000,0.000,0.000,0.000,0.000,0.000,0.000
24.964,1,0,2.013,2.002,221.265,4.203,3.360,219.956,2.654,1.731,113.478,0.000,0.000,0.0103675,0.000,7500.000,0.614,1.720,986.410,13.570,225.768,225.687,113.520,-0.292,0.490,-0.014,0.019,-0.034,0.000,0.000,0.000,-0.003,0.697,-0.015,0.717,0.0000000,0.0000000,225.821,0.000,0.000,0.000,0,00:00:00,0,0.000,0.000,0.000,0.000,0.000,0.000,0.000,0.000,0.000,0.000,0.000,0.000,0.000,0.000
25.065,1,0,2.215,2.125,244.736,4.339,3.437,232.026,2.514,1.887,114.543,0.000,0.000,0.0103675,0.000,7500.000,0.649,1.609,983.689,13.418,248.932,248.851,114.586,-0.081,0.403,-0.007,0.022,0.002,0.000,0.000,0.000,-0.003,0.698,-0.015,0.716,0.0000000,0.0000000,248.602,0.000,0.000,0.000,0,00:00:00,0,0.000,0.000,0.000,0.000,0.000,0.000,0.000,0.000,0.000,0.000,0.000,0.000,0.000,0.000
25.166,1,0,2.409,2.245,269.256,4.440,3.541,244.012,2.263,2.202,114.979,0.000,0.000,0.0103675,0.000,7500.000,0.685,1.482,980.938,13.263,272.397,272.316,115.021,-0.007,0.439,0.021,0.020,0.027,0.000,0.000,0.000,-0.001,0.699,-0.015,0.715,0.0000000,0.0000000,272.537,0.000,0.000,0.000,0,00:00:00,0,0.000,0.000,0.000,0.000,0.000,0.000,0.000,0.000,0.000,0.000,0.000,0.000,0.000,0.000
25.267,1,0,2.590,2.363,294.940,4.475,3.639,256.048,1.714,2.218,115.854,0.000,0.000,0.0103675,0.000,7500.000,0.721,1.371,977.971,13.099,297.775,297.694,115.887,0.056,0.441,-0.006,0.048,-0.030,0.000,0.000,0.000,-0.003,0.700,-0.016,0.714,0.0000000,0.0000000,297.634,0.000,0.000,0.000,0,00:00:00,0,0.000,0.000,0.000,0.000,0.000,0.000,0.000,0.000,0.000,0.000,0.000,0.000,0.000,0.000
25.368,1,0,2.756,2.478,321.735,4.464,3.729,268.090,1.336,2.193,116.719,0.000,0.000,0.0103675,0.000,7500.000,0.757,1.093,974.925,12.927,323.891,323.810,116.746,0.021,0.453,-0.000,0.033,0.006,0.000,0.000,0.000,-0.002,0.701,-0.015,0.713,0.0000000,0.0000000,323.901,0.000,0.000,0.000,0,00:00:00,0,0.000,0.000,0.000,0.000,0.000,0.000,0.000,0.000,0.000,0.000,0.000,0.000,0.000,0.000
25.469,1,0,2.905,2.592,349.718,4.447,3.836,280.170,1.360,2.418,117.336,0.000,0.000,0.0103675,0.000,7500.000,0.792,0.905,971.692,12.748,351.684,351.603,117.368,0.117,0.413,0.010,0.002,0.015,0.000,0.000,0.000,-0.001,0.702,-0.015,0.712,0.0000000,0.0000000,351.345,0.000,0.000,0.000,0,00:00:00,0,0.000,0.000,0.000,0.000,0.000,0.000,0.000,0.000,0.000,0.000,0.000,0.000,0.000,0.000
25.570,1,0,3.041,2.703,378.847,4.482,3.903,292.274,1.948,2.086,118.143,0.000,0.000,0.0103675,0.000,7500.000,0.828,0.893,968.368,12.559,380.337,380.256,118.177,-0.070,0.184,-0.014,-0.029,0.006,0.000,0.000,0.000,-0.002,0.701,-0.015,0.713,0.0000000,0.0000000,379.973,0.000,0.000,0.000,0,00:00:00,0,0.000,0.000,0.000,0.000,0.000,0.000,0.000,0.000,0.000,0.000,0.000,0.000,0.000,0.000
25.671,1,0,3.166,2.809,409.089,4.492,3.962,304.364,1.766,2.068,118.847,0.000,0.000,0.0103675,0.000,7500.000,0.864,1.057,964.950,12.366,409.881,409.800,118.877,0.125,0.491,-0.019,-0.010,-0.023,0.000,0.000,0.000,-0.003,0.700,-0.015,0.714,0.0000000,0.0000000,409.791,0.000,0.000,0.000,0,00:00:00,0,0.000,0.000,0.000,0.000,0.000,0.000,0.000,0.000,0.000,0.000,0.000,0.000,0.000,0.000
25.772,1,0,3.283,2.912,440.520,4.560,4.044,316.480,2.395,2.339,119.350,0.000,0.000,0.0103675,0.000,7500.000,0.900,1.113,961.349,12.161,441.100,441.019,119.396,0.012,0.300,0.031,-0.036,-0.029,0.000,0.000,0.000,-0.003,0.699,-0.017,0.715,0.0000000,0.0000000,440.806,0.000,0.000,0.000,0,00:00:00,0,0.000,0.000,0.000,0.000,0.000,0.000,0.000,0.000,0.000,0.000,0.000,0.000,0.000,0.000
25.873,1,0,3.395,3.012,473.142,4.619,4.112,328.617,2.376,2.258,119.826,0.000,0.000,0.0103675,0.000,7500.000,0.937,1.325,957.622,11.949,473.508,473.427,119.871,0.001,0.286,-0.007,0.004,0.002,0.000,0.000,0.000,-0.003,0.699,-0.016,0.715,0.0000000,0.0000000,473.026,0.000,0.000,0.000,0,00:00:00,0,0.000,0.000,0.000,0.000,0.000,0.000,0.000,0.000,0.000,0.000,0.000,0.000,0.000,0.000
25.974,1,0,3.503,3.109,506.886,4.694,4.188,340.752,2.578,2.384,120.603,0.000,0.000,0.0103675,0.000,7500.000,0.973,1.302,953.831,11.730,506.588,506.507,120.653,-0.002,0.536,0.009,-0.037,-0.043,0.000,0.000,0.000,-0.005,0.698,-0.018,0.716,0.0000000,0.0000000,506.455,0.000,0.000,0.000,0,00:00:00,0,0.000,0.000,0.000,0.000,0.000,0.000,0.000,0.000,0.000,0.000,0.000,0.000,0.000,0.000
26.075,1,0,3.610,3.204,541.823,4.842,4.265,352.933,3.364,2.451,121.334,0.000,0.000,0.0103675,0.000,7500.000,1.009,1.515,949.864,11.504,541.304,541.223,121.405,0.094,0.218,-0.005,-0.037,-0.007,0.000,0.000,0.000,-0.005,0.696,-0.018,0.717,0.0000000,0.0000000,541.101,0.000,0.000,0.000,0,00:00:00,0,0.000,0.000,0.000,0.000,0.000,0.000,0.000,0.000,0.000,0.000,0.000,0.000,0.000,0.000
26.176,1,0,3.719,3.297,577.930,4.945,4.346,365.121,2.982,2.531,121.859,0.000,0.000,0.0103675,0.000,7500.000,1.046,1.728,945.797,11.266,577.028,576.946,121.921,0.185,0.383,-0.001,0.019,-0.009,0.000,0.000,0.000,-0.005,0.697,-0.019,0.717,0.0000000,0.0000000,576.968,0.000,0.000,0.000,0,00:00:00,0,0.000,0.000,0.000,0.000,0.000,0.000,0.000,0.000,0.000,0.000,0.000,0.000,0.000,0.000
26.277,1,0,3.827,3.388,615.234,5.028,4.406,377.351,2.828,2.380,122.559,0.000,0.000,0.0103675,0.000,7500.000,1.082,1.621,941.591,11.027,614.094,614.013,122.614,0.085,0.324,-0.006,0.019,-0.015,0.000,0.000,0.000,-0.006,0.698,-0.019,0.716,0.0000000,0.0000000,614.064,0.000,0.000,0.000,0,00:00:00,0,0.000,0.000,0.000,0.000,0.000,0.000,0.000,0.000,0.000,0.000,0.000,0.000,0.000,0.000
26.378,1,0,3.931,3.474,653.773,5.103,4.432,389.648,2.815,2.089,123.242,0.000,0.000,0.0103675,0.000,7500.000,1.119,1.512,937.237,10.775,652.614,652.533,123.292,0.046,0.413,-0.021,-0.004,0.029,0.000,0.000,0.000,-0.006,0.698,-0.017,0.716,0.0000000,0.0000000,652.393,0.000,0.000,0.000,0,00:00:00,0,0.000,0.000,0.000,0.000,0.000,0.000,0.000,0.000,0.000,0.000,0.000,0.000,0.000,0.000
26.479,1,0,4.034,3.554,693.538,5.209,4.433,401.973,3.170,1.872,123.656,0.000,0.000,0.0103675,0.000,7500.000,1.156,1.531,932.771,10.516,692.274,692.193,123.710,-0.104,0.218,-0.007,-0.012,-0.011,0.000,0.000,0.000,-0.006,0.697,-0.017,0.717,0.0000000,0.0000000,691.960,0.000,0.000,0.000,0,00:00:00,0,0.000,0.000,0.000,0.000,0.000,0.000,0.000,0.000,0.000,0.000,0.000,0.000,0.000,0.000
26.580,1,0,4.137,3.626,734.529,5.324,4.422,414.318,3.316,1.797,124.019,0.000,0.000,0.0103675,0.000,7500.000,1.193,1.598,928.189,10.249,733.128,733.047,124.075,-0.009,0.389,-0.014,-0.025,-0.004,0.000,0.000,0.000,-0.007,0.696,-0.017,0.718,0.0000000,0.0000000,732.772,0.000,0.000,0.000,0,00:00:00,0,0.000,0.000,0.000,0.000,0.000,0.000,0.000,0.000,0.000,0.000,0.000,0.000,0.000,0.000
26.681,1,0,4.243,3.689,776.737,5.464,4.408,426.705,3.616,1.802,124.669,0.000,0.000,0.0103675,0.000,7500.000,1.230,1.738,923.496,9.973,775.137,775.056,124.734,0.047,0.319,-0.005,-0.017,0.010,0.000,0.000,0.000,-0.007,0.696,-0.017,0.718,0.0000000,0.0000000,774.832,0.000,0.000,0.000,0,00:00:00,0,0.000,0.000,0.000,0.000,0.000,0.000,0.000,0.000,0.000,0.000,0.000,0.000,0.000,0.000
26.782,1,0,4.351,3.745,820.215,5.609,4.368,439.148,3.727,1.579,125.096,0.000,0.000,0.0103675,0.000,7500.000,1.268,1.834,918.647,9.690,818.717,818.636,125.161,-0.287,0.234,0.009,0.000,0.013,0.000,0.000,0.000,-0.006,0.696,-0.016,0.718,0.0000000,0.0000000,818.145,0.000,0.000,0.000,0,00:00:00,0,0.000,0.000,0.000,0.000,0.000,0.000,0.000,0.000,0.000,0.000,0.000,0.000,0.000,0.000
26.883,1,0,4.461,3.793,864.853,5.716,4.361,451.571,3.401,1.919,125.639,0.000,0.000,0.0103675,0.000,7500.000,1.305,1.836,913.770,9.396,862.747,862.666,125.699,-0.213,0.336,0.021,0.019,-0.001,0.000,0.000,0.000,-0.005,0.696,-0.017,0.718,0.0000000,0.0000000,862.717,0.000,0.000,0.000,0,00:00:00,0,0.000,0.000,0.000,0.000,0.000,0.000,0.000,0.000,0.000,0.000,0.000,0.000,0.000,0.000
26.984,1,0,4.570,3.838,910.843,5.814,4.406,464.107,3.370,2.463,126.059,0.000,0.000,0.0103675,0.000,7500.000,1.343,1.731,908.634,9.096,909.317,909.236,126.128,-0.038,0.261,0.028,0.009,-0.018,0.000,0.000,0.000,-0.005,0.697,-0.019,0.717,0.0000000,0.0000000,908.550,0.000,0.000,0.000,0,00:00:00,0,0.000,0.000,0.000,0.000,0.000,0.000,0.000,0.000,0.000,0.000,0.000,0.000,0.000,0.000
27.085,1,0,4.676,3.883,957.982,5.884,4.450,476.598,3.157,2.481,126.483,0.000,0.000,0.0103675,0.000,7500.000,1.381,1.687,903.539,8.786,955.729,955.648,126.547,-0.094,0.226,0.005,0.021,-0.001,0.000,0.000,0.000,-0.005,0.697,-0.019,0.716,0.0000000,0.0000000,955.650,0.000,0.000,0.000,0,00:00:00,0,0.000,0.000,0.000,0.000,0.000,0.000,0.000,0.000,0.000,0.000,0.000,0.000,0.000,0.000
27.186,1,0,4.778,3.928,999.600,5.923,4.498,484.021,2.895,2.545,126.488,0.000,0.000,0.0103675,0.000,7500.000,1.419,1.569,903.539,8.786,955.729,955.648,126.547,-0.094,0.226,0.005,0.021,-0.001,0.000,0.000,0.000,-0.005,0.698,-0.019,0.716,0.0000000,0.0000000,955.650,0.000,0.000,0.000,0,00:00:00,0,0.000,0.000,0.000,0.000,0.000,0.000,0.000,0.000,0.000,0.000,0.000,0.000,0.000,0.000
27.287,1,0,4.871,3.972,1049.795,5.926,4.515,497.360,2.600,2.252,127.184,0.000,0.000,0.0103675,0.000,7500.000,1.441,1.451,892.835,8.145,1053.930,1053.849,127.230,-0.014,0.232,-0.030,0.024,0.026,0.000,0.000,0.000,-0.005,0.699,-0.017,0.715,0.0000000,0.0000000,1053.664,0.000,0.000,0.000,0,00:00:00,0,0.000,0.000,0.000,0.000,0.000,0.000,0.000,0.000,0.000,0.000,0.000,0.000,0.000,0.000
27.388,1,0,4.953,4.013,1101.340,5.855,4.544,510.732,1.896,2.398,127.514,0.000,0.000,0.0103675,0.000,7500.000,1.482,1.306,887.258,7.811,1105.474,1105.393,127.550,0.102,0.508,0.002,0.033,-0.031,0.000,0.000,0.000,-0.006,0.700,-0.018,0.714,0.0000000,0.0000000,1104.585,0.000,0.000,0.000,0,00:00:00,0,0.000,0.000,0.000,0.000,0.000,0.000,0.000,0.000,0.000,0.000,0.000,0.000,0.000,0.000
27.489,1,0,5.021,4.054,1154.032,5.787,4.580,523.990,1.970,2.493,127.884,0.000,0.000,0.0103675,0.000,7500.000,1.523,1.116,881.720,7.471,1156.911,1156.830,127.923,0.012,0.430,0.014,0.002,0.027,0.000,0.000,0.000,-0.004,0.700,-0.018,0.714,0.0000000,0.0000000,1156.787,0.000,0.000,0.000,0,00:00:00,0,0.000,0.000,0.000,0.000,0.000,0.000,0.000,0.000,0.000,0.000,0.000,0.000,0.000,0.000
27.590,1,0,5.075,4.094,1208.021,5.700,4.600,537.257,1.804,2.347,128.315,0.000,0.000,0.0103675,0.000,7500.000,1.563,1.110,875.967,7.120,1210.625,1210.544,128.348,-0.015,0.474,-0.010,0.010,-0.018,0.000,0.000,0.000,-0.005,0.701,-0.018,0.713,0.0000000,0.0000000,1210.272,0.000,0.000,0.000,0,00:00:00,0,0.000,0.000,0.000,0.000,0.000,0.000,0.000,0.000,0.000,0.000,0.000,0.000,0.000,0.000
27.691,1,0,5.118,4.129,1263.268,5.633,4.572,550.488,2.034,1.896,128.568,0.000,0.000,0.0103675,0.000,7500.000,1.604,1.051,870.136,6.759,1265.368,1265.287,128.597,-0.078,0.380,-0.030,-0.009,0.059,0.000,0.000,0.000,-0.004,0.700,-0.015,0.714,0.0000000,0.0000000,1265.043,0.000,0.000,0.000,0,00:00:00,0,0.000,0.000,0.000,0.000,0.000,0.000,0.000,0.000,0.000,0.000,0.000,0.000,0.000,0.000
27.792,1,0,5.150,4.157,1311.922,5.578,4.503,557.794,2.162,1.500,128.571,0.000,0.000,0.0103675,0.000,7500.000,1.644,1.099,870.136,6.759,1265.368,1265.287,128.597,-0.078,0.380,-0.030,-0.009,0.059,0.000,0.000,0.000,-0.003,0.700,-0.012,0.714,0.0000000,0.0000000,1265.043,0.000,0.000,0.000,0,00:00:00,0,0.000,0.000,0.000,0.000,0.000,0.000,0.000,0.000,0.000,0.000,0.000,0.000,0.000,0.000
27.893,2,0,5.159,4.166,1369.134,5.172,4.217,553.142,-1.313,-0.642,-54.591,0.000,0.000,0.0103675,0.000,7500.000,1.666,1.147,858.416,6.035,1376.291,1376.210,-54.610,-0.075,0.347,-0.021,0.020,0.003,0.000,0.000,0.000,-0.004,0.701,-0.011,0.713,0.0000000,0.0000000,1375.701,0.000,0.000,0.000,0,00:00:00,0,0.000,0.000,0.000,0.000,0.000,0.000,0.000,0.000,0.000,0.000,0.000,0.000,0.000,0.000
27.994,2,0,5.131,4.148,1425.503,4.792,3.952,548.310,-1.060,-0.438,-53.576,0.000,0.000,0.0127217,0.000,7500.000,1.655,1.028,852.752,5.680,1430.336,1430.254,-53.588,0.046,0.237,-0.013,0.024,-0.012,0.000,0.000,0.000,-0.005,0.702,-0.011,0.712,0.0000000,0.0000000,1429.767,0.000,0.000,0.000,0,00:00:00,0,0.000,0.000,0.000,0.000,0.000,0.000,0.000,0.000,0.000,0.000,0.000,0.000,0.000,0.000
28.095,2,0,5.071,4.109,1481.090,4.421,3.693,543.373,-1.002,-0.398,-52.384,0.000,0.000,0.0127488,0.000,7500.000,1.641,0.890,847.149,5.332,1484.083,1484.002,-52.394,-0.076,0.292,-0.029,0.018,0.009,0.000,0.000,0.000,-0.006,0.702,-0.010,0.712,0.0000000,0.0000000,1483.313,0.000,0.000,0.000,0,00:00:00,0,0.000,0.000,0.000,0.000,0.000,0.000,0.000,0.000,0.000,0.000,0.000,0.000,0.000,0.000
28.196,2,0,4.982,4.049,1535.909,4.040,3.434,538.333,-1.161,-0.436,-51.391,0.000,0.000,0.0127625,0.000,7500.000,1.627,0.786,841.640,4.984,1537.218,1537.137,-51.405,0.038,0.335,0.030,-0.025,-0.008,0.000,0.000,0.000,-0.005,0.701,-0.011,0.713,0.0000000,0.0000000,1536.350,0.000,0.000,0.000,0,00:00:00,0,0.000,0.000,0.000,0.000,0.000,0.000,0.000,0.000,0.000,0.000,0.000,0.000,0.000,0.000
28.297,2,0,4.866,3.972,1589.979,3.650,3.178,533.192,-1.300,-0.447,-50.576,0.000,0.000,0.0127855,0.000,7500.000,1.613,0.931,836.217,4.636,1589.794,1589.713,-50.593,0.071,0.394,0.009,-0.019,-0.017,0.000,0.000,0.000,-0.005,0.701,-0.012,0.713,0.0000000,0.0000000,1588.887,0.000,0.000,0.000,0,00:00:00,0,0.000,0.000,0.000,0.000,0.000,0.000,0.000,0.000,0.000,0.000,0.000,0.000,0.000,0.000
28.398,2,0,4.725,3.878,1636.025,3.258,2.922,522.445,-1.393,-0.496,-50.573,0.000,0.000,0.0128217,0.000,7500.000,1.599,1.038,836.217,4.636,1589.794,1589.713,-50.593,0.071,0.394,0.009,-0.019,-0.017,0.000,0.000,0.000,-0.005,0.700,-0.013,0.714,0.0000000,0.0000000,1588.887,0.000,0.000,0.000,0,00:00:00,0,0.000,0.000,0.000,0.000,0.000,0.000,0.000,0.000,0.000,0.000,0.000,0.000,0.000,0.000
28.499,2,0,4.564,3.769,1689.220,2.909,2.652,518.046,-1.051,-0.692,-48.548,0.000,0.000,0.0129460,0.000,7500.000,1.567,1.146,825.609,3.959,1693.445,1693.364,-48.564,-0.057,0.200,0.020,0.022,0.027,0.000,0.000,0.000,-0.004,0.701,-0.013,0.713,0.0000000,0.0000000,1692.500,0.000,0.000,0.000,0,00:00:00,0,0.000,0.000,0.000,0.000,0.000,0.000,0.000,0.000,0.000,0.000,0.000,0.000,0.000,0.000
28.600,2,0,4.386,3.647,1741.732,2.561,2.408,513.556,-1.138,-0.495,-47.662,0.000,0.000,0.0129988,0.000,7500.000,1.555,1.023,820.427,3.625,1744.469,1744.388,-47.675,0.153,0.448,0.004,0.032,-0.005,0.000,0.000,0.000,-0.004,0.702,-0.013,0.712,0.0000000,0.0000000,1743.595,0.000,0.000,0.000,0,00:00:00,0,0.000,0.000,0.000,0.000,0.000,0.000,0.000,0.000,0.000,0.000,0.000,0.000,0.000,0.000
28.701,2,0,4.194,3.515,1793.622,2.232,2.186,509.031,-1.055,-0.350,-46.709,0.000,0.000,0.0130455,0.000,7500.000,1.543,0.843,815.292,3.293,1795.289,1795.208,-46.720,0.067,0.412,-0.047,0.006,-0.020,0.000,0.000,0.000,-0.006,0.702,-0.012,0.712,0.0000000,0.0000000,1794.226,0.000,0.000,0.000,0,00:00:00,0,0.000,0.000,0.000,0.000,0.000,0.000,0.000,0.000,0.000,0.000,0.000,0.000,0.000,0.000
28.802,2,0,3.989,3.376,1844.837,1.898,1.979,504.402,-1.207,-0.282,-46.115,0.000,0.000,0.0130858,0.000,7500.000,1.530,0.799,810.279,2.964,1845.151,1845.070,-46.130,0.067,0.377,-0.014,-0.043,-0.021,0.000,0.000,0.000,-0.007,0.701,-0.012,0.713,0.0000000,0.0000000,1844.403,0.000,0.000,0.000,0,00:00:00,0,0.000,0.000,0.000,0.000,0.000,0.000,0.000,0.000,0.000,0.000,0.000,0.000,0.000,0.000
28.903,2,0,3.774,3.230,1895.500,1.587,1.755,499.812,-1.098,-0.520,-45.066,0.000,0.000,0.0131324,0.000,7500.000,1.517,1.041,805.266,2.636,1895.262,1895.181,-45.080,-0.053,0.430,0.028,0.031,0.010,0.000,0.000,0.000,-0.006,0.702,-0.013,0.712,0.0000000,0.0000000,1894.133,0.000,0.000,0.000,0,00:00:00,0,0.000,0.000,0.000,0.000,0.000,0.000,0.000,0.000,0.000,0.000,0.000,0.000,0.000,0.000
29.004,2,0,3.552,3.078,1945.538,1.289,1.544,495.168,-1.083,-0.465,-44.374,0.000,0.000,0.0131709,0.000,7500.000,1.504,0.867,800.386,2.317,1944.289,1944.208,-44.388,0.107,0.408,0.025,-0.003,0.006,0.000,0.000,0.000,-0.005,0.702,-0.014,0.712,0.0000000,0.0000000,1943.424,0.000,0.000,0.000,0,00:00:00,0,0.000,0.000,0.000,0.000,0.000,0.000,0.000,0.000,0.000,0.000,0.000,0.000,0.000,0.000
29.105,2,0,3.323,2.920,1995.067,1.008,1.316,490.583,-1.034,-0.722,-43.464,0.000,0.000,0.0132124,0.000,7500.000,1.491,0.886,795.508,1.994,1993.549,1993.468,-43.481,-0.193,0.335,-0.007,-0.011,-0.013,0.000,0.000,0.000,-0.006,0.701,-0.014,0.713,0.0000000,0.0000000,1992.284,0.000,0.000,0.000,0,00:00:00,0,0.000,0.000,0.000,0.000,0.000,0.000,0.000,0.000,0.000,0.000,0.000,0.000,0.000,0.000
29.206,2,0,3.091,2.757,2043.980,0.736,1.117,485.967,-1.070,-0.522,-42.607,0.000,0.000,0.0132506,0.000,7500.000,1.478,0.946,790.782,1.677,2041.490,2041.409,-42.622,-0.058,0.456,-0.014,0.017,-0.009,0.000,0.000,0.000,-0.006,0.702,-0.014,0.712,0.0000000,0.0000000,2040.721,0.000,0.000,0.000,0,00:00:00,0,0.000,0.000,0.000,0.000,0.000,0.000,0.000,0.000,0.000,0.000,0.000,0.000,0.000,0.000
29.307,2,0,2.857,2.592,2085.637,0.484,0.932,476.277,-0.995,-0.464,-42.610,0.000,0.000,0.0132871,0.000,7500.000,1.465,0.845,790.782,1.677,2041.490,2041.409,-42.622,-0.058,0.456,-0.014,0.017,-0.009,0.000,0.000,0.000,-0.007,0.702,-0.014,0.712,0.0000000,0.0000000,2040.721,0.000,0.000,0.000,0,00:00:00,0,0.000,0.000,0.000,0.000,0.000,0.000,0.000,0.000,0.000,0.000,0.000,0.000,0.000,0.000
29.408,2,0,2.623,2.426,2134.061,0.261,0.760,472.504,-0.823,-0.427,-41.286,0.000,0.000,0.0133605,0.000,7500.000,1.436,0.743,781.398,1.051,2137.397,2137.316,-41.295,-0.109,0.226,-0.017,-0.019,-0.032,0.000,0.000,0.000,-0.009,0.702,-0.014,0.712,0.0000000,0.0000000,2136.351,0.000,0.000,0.000,0,00:00:00,0,0.000,0.000,0.000,0.000,0.000,0.000,0.000,0.000,0.000,0.000,0.000,0.000,0.000,0.000
29.509,2,0,2.391,2.261,2182.025,0.043,0.619,468.748,-0.900,-0.214,-40.504,0.000,0.000,0.0134150,0.000,7500.000,1.426,0.847,776.788,0.741,2184.853,2184.772,-40.513,0.011,0.377,-0.023,0.016,-0.018,0.000,0.000,0.000,-0.010,0.702,-0.014,0.712,0.0000000,0.0000000,2183.558,0.000,0.000,0.000,0,00:00:00,0,0.000,0.000,0.000,0.000,0.000,0.000,0.000,0.000,0.000,0.000,0.000,0.000,0.000,0.000
29.610,2,0,2.162,2.100,2229.453,-0.144,0.498,464.930,-0.716,-0.088,-39.932,0.000,0.000,0.0134645,0.000,7500.000,1.415,0.750,772.297,0.436,2231.302,2231.221,-39.938,0.099,0.252,-0.007,0.014,0.020,0.000,0.000,0.000,-0.010,0.703,-0.013,0.711,0.0000000,0.0000000,2230.369,0.000,0.000,0.000,0,00:00:00,0,0.000,0.000,0.000,0.000,0.000,0.000,0.000,0.000,0.000,0.000,0.000,0.000,0.000,0.000
29.711,2,0,1.937,1.943,2276.392,-0.337,0.372,461.092,-0.898,-0.224,-39.345,0.000,0.000,0.0103675,0.000,7500.000,1.405,0.669,767.842,0.130,2277.587,2277.506,-39.354,-0.099,0.367,-0.016,-0.020,0.010,0.000,0.000,0.000,-0.010,0.702,-0.012,0.712,0.0000000,0.0000000,2276.790,0.000,0.000,0.000,0,00:00:00,0,0.000,0.000,0.000,0.000,0.000,0.000,0.000,0.000,0.000,0.000,0.000,0.000,0.000,0.000
29.812,2,0,1.715,1.788,2322.914,-0.533,0.229,457.291,-1.034,-0.476,-38.739,0.000,0.000,0.0105824,0.000,7500.000,1.394,0.783,763.405,-0.170,2323.911,2323.830,-38.753,-0.069,0.425,0.072,-0.022,-0.017,0.000,0.000,0.000,-0.008,0.701,-0.015,0.713,0.0000000,0.0000000,2322.827,0.000,0.000,0.000,0,00:00:00,0,0.000,0.000,0.000,0.000,0.000,0.000,0.000,0.000,0.000,0.000,0.000,0.000,0.000,0.000
29.913,2,0,1.497,1.635,2368.977,-0.710,0.092,453.497,-0.963,-0.503,-38.084,0.000,0.000,0.0107800,0.000,7500.000,1.383,0.924,759.060,-0.471,2369.494,2369.413,-38.097,-0.030,0.342,0.019,-0.006,-0.034,0.000,0.000,0.000,-0.009,0.701,-0.017,0.713,0.0000000,0.0000000,2368.487,0.000,0.000,0.000,0,00:00:00,0,0.000,0.000,0.000,0.000,0.000,0.000,0.000,0.000,0.000,0.000,0.000,0.000,0.000,0.000
30.014,2,0,1.285,1.484,2414.621,-0.868,-0.040,449.725,-0.891,-0.521,-37.589,0.000,0.000,0.0109617,0.000,7500.000,1.372,0.961,754.750,-0.764,2414.901,2414.820,-37.602,-0.022,0.258,0.009,-0.005,-0.012,0.000,0.000,0.000,-0.009,0.701,-0.018,0.713,0.0000000,0.0000000,2413.774,0.000,0.000,0.000,0,00:00:00,0,0.000,0.000,0.000,0.000,0.000,0.000,0.000,0.000,0.000,0.000,0.000,0.000,0.000,0.000
30.115,2,0,1.077,1.335,2459.816,-1.026,-0.182,445.964,-0.998,-0.709,-36.954,0.000,0.000,0.0111324,0.000,7500.000,1.362,0.993,750.523,-1.061,2459.658,2459.577,-36.974,-0.100,0.244,0.032,-0.036,0.010,0.000,0.000,0.000,-0.007,0.700,-0.019,0.714,0.0000000,0.0000000,2458.696,0.000,0.000,0.000,0,00:00:00,0,0.000,0.000,0.000,0.000,0.000,0.000,0.000,0.000,0.000,0.000,0.000,0.000,0.000,0.000
30.216,2,0,0.875,1.186,2504.596,-1.183,-0.322,442.229,-1.094,-0.757,-36.412,0.000,0.000,0.0112912,0.000,7500.000,1.351,1.208,746.333,-1.351,2504.207,2504.126,-36.433,-0.140,0.484,0.002,0.036,0.003,0.000,0.000,0.000,-0.007,0.701,-0.018,0.713,0.0000000,0.0000000,2503.256,0.000,0.000,0.000,0,00:00:00,0,0.000,0.000,0.000,0.000,0.000,0.000,0.000,0.000,0.000,0.000,0.000,0.000,0.000,0.000
30.317,2,0,0.678,1.040,2548.999,-1.325,-0.442,438.549,-1.046,-0.642,-35.851,0.000,0.000,0.0114409,0.000,7500.000,1.341,1.001,742.178,-1.643,2548.593,2548.512,-35.871,-0.030,0.331,0.003,-0.031,0.002,0.000,0.000,0.000,-0.007,0.700,-0.018,0.714,0.0000000,0.0000000,2547.461,0.000,0.000,0.000,0,00:00:00,0,0.000,0.000,0.000,0.000,0.000,0.000,0.000,0.000,0.000,0.000,0.000,0.000,0.000,0.000
30.418,2,0,0.487,0.897,2586.859,-1.467,-0.555,430.258,-1.157,-0.652,-35.848,0.000,0.000,0.0115819,0.000,7500.000,1.330,1.178,742.178,-1.643,2548.593,2548.512,-35.871,-0.030,0.331,0.003,-0.031,0.002,0.000,0.000,0.000,-0.007,0.699,-0.018,0.715,0.0000000,0.0000000,2547.461,0.000,0.000,0.000,0,00:00:00,0,0.000,0.000,0.000,0.000,0.000,0.000,0.000,0.000,0.000,0.000,0.000,0.000,0.000,0.000
30.519,2,0,0.300,0.757,2630.931,-1.607,-0.663,427.348,-1.222,-0.671,-34.674,0.000,0.000,0.0117369,0.000,7500.000,1.305,1.356,734.062,-2.216,2635.873,2635.792,-34.700,-0.073,0.385,-0.001,-0.011,0.020,0.000,0.000,0.000,-0.006,0.698,-0.018,0.716,0.0000000,0.0000000,2634.826,0.000,0.000,0.000,0,00:00:00,0,0.000,0.000,0.000,0.000,0.000,0.000,0.000,0.000,0.000,0.000,0.000,0.000,0.000,0.000
30.620,2,0,0.121,0.621,2674.616,-1.707,-0.748,424.429,-0.932,-0.516,-34.062,0.000,0.000,0.0118716,0.000,7500.000,1.297,1.418,730.081,-2.498,2678.976,2678.895,-34.078,-0.004,0.200,-0.020,0.027,0.014,0.000,0.000,0.000,-0.006,0.699,-0.017,0.715,0.0000000,0.0000000,2677.996,0.000,0.000,0.000,0,00:00:00,0,0.000,0.000,0.000,0.000,0.000,0.000,0.000,0.000,0.000,0.000,0.000,0.000,0.000,0.000
30.721,2,0,-0.051,0.491,2717.966,-1.798,-0.822,421.511,-0.923,-0.473,-33.733,0.000,0.000,0.0119968,0.000,7500.000,1.289,1.258,726.118,-2.781,2722.063,2721.982,-33.748,-0.081,0.285,-0.035,0.025,-0.002,0.000,0.000,0.000,-0.008,0.700,-0.015,0.714,0.0000000,0.0000000,2720.830,0.000,0.000,0.000,0,00:00:00,0,0.000,0.000,0.000,0.000,0.000,0.000,0.000,0.000,0.000,0.000,0.000,0.000,0.000,0.000
30.822,2,0,-0.215,0.366,2760.969,-1.899,-0.892,418.596,-1.113,-0.494,-33.297,0.000,0.000,0.0121179,0.000,7500.000,1.281,1.109,722.212,-3.057,2764.729,2764.648,-33.317,-0.140,0.365,-0.010,-0.036,0.015,0.000,0.000,0.000,-0.007,0.699,-0.015,0.715,0.0000000,0.0000000,2763.334,0.000,0.000,0.000,0,00:00:00,0,0.000,0.000,0.000,0.000,0.000,0.000,0.000,0.000,0.000,0.000,0.000,0.000,0.000,0.000
30.923,2,0,-0.373,0.248,2803.598,-1.990,-0.956,415.675,-1.104,-0.506,-32.751,0.000,0.000,0.0122337,0.000,7500.000,1.273,1.312,718.371,-3.334,2806.858,2806.777,-32.772,-0.008,0.329,0.046,-0.011,-0.003,0.000,0.000,0.000,-0.006,0.698,-0.016,0.715,0.0000000,0.0000000,2805.512,0.000,0.000,0.000,0,00:00:00,0,0.000,0.000,0.000,0.000,0.000,0.000,0.000,0.000,0.000,0.000,0.000,0.000,0.000,0.000
31.024,2,0,-0.524,0.133,2839.999,-2.078,-1.029,408.322,-1.140,-0.656,-32.747,0.000,0.000,0.0123430,0.000,7500.000,1.265,1.383,718.371,-3.334,2806.858,2806.777,-32.772,-0.008,0.329,0.046,-0.011,-0.003,0.000,0.000,0.000,-0.004,0.698,-0.018,0.716,0.0000000,0.0000000,2805.512,0.000,0.000,0.000,0,00:00:00,0,0.000,0.000,0.000,0.000,0.000,0.000,0.000,0.000,0.000,0.000,0.000,0.000,0.000,0.000
31.125,2,0,-0.670,0.024,2882.325,-2.171,-1.085,406.024,-1.277,-0.543,-31.987,0.000,0.000,0.0124651,0.000,7500.000,1.242,1.453,710.834,-3.878,2890.064,2889.983,-32.014,0.014,0.441,-0.027,-0.014,-0.039,0.000,0.000,0.000,-0.007,0.698,-0.018,0.716,0.0000000,0.0000000,2888.907,0.000,0.000,0.000,0,00:00:00,0,0.000,0.000,0.000,0.000,0.000,0.000,0.000,0.000,0.000,0.000,0.000,0.000,0.000,0.000
31.226,2,0,-0.809,-0.079,2924.304,-2.246,-1.115,403.688,-1.163,-0.336,-31.503,0.000,0.000,0.0125759,0.000,7500.000,1.237,1.529,707.120,-4.150,2931.326,2931.245,-31.525,0.151,0.300,-0.017,-0.011,0.023,0.000,0.000,0.000,-0.007,0.697,-0.017,0.717,0.0000000,0.0000000,2930.133,0.000,0.000,0.000,0,00:00:00,0,0.000,0.000,0.000,0.000,0.000,0.000,0.000,0.000,0.000,0.000,0.000,0.000,0.000,0.000
31.327,2,0,-0.942,-0.174,2960.197,-2.317,-1.134,396.980,-1.198,-0.280,-31.502,0.000,0.000,0.0126805,0.000,7500.000,1.230,1.588,707.120,-4.150,2931.326,2931.245,-31.525,0.151,0.300,-0.017,-0.011,0.023,0.000,0.000,0.000,-0.006,0.697,-0.016,0.717,0.0000000,0.0000000,2930.133,0.000,0.000,0.000,0,00:00:00,0,0.000,0.000,0.000,0.000,0.000,0.000,0.000,0.000,0.000,0.000,0.000,0.000,0.000,0.000
31.428,2,0,-1.068,-0.264,3001.980,-2.372,-1.185,395.256,-1.115,-0.645,-30.722,0.000,0.000,0.0127966,0.000,7500.000,1.210,1.647,699.782,-4.682,3013.381,3013.300,-30.747,-0.246,0.271,-0.006,0.007,0.015,0.000,0.000,0.000,-0.006,0.697,-0.015,0.717,0.0000000,0.0000000,3011.661,0.000,0.000,0.000,0,00:00:00,0,0.000,0.000,0.000,0.000,0.000,0.000,0.000,0.000,0.000,0.000,0.000,0.000,0.000,0.000
31.529,2,0,-1.187,-0.349,3043.333,-2.414,-1.204,393.372,-1.037,-0.368,-30.389,0.000,0.000,0.0129006,0.000,7500.000,1.206,1.607,696.247,-4.945,3053.152,3053.071,-30.408,0.005,0.248,-0.008,0.017,-0.017,0.000,0.000,0.000,-0.007,0.698,-0.015,0.716,0.0000000,0.0000000,3051.972,0.000,0.000,0.000,0,00:00:00,0,0.000,0.000,0.000,0.000,0.000,0.000,0.000,0.000,0.000,0.000,0.000,0.000,0.000,0.000
31.630,2,0,-1.298,-0.427,3084.356,-2.461,-1.217,391.436,-1.151,-0.349,-29.859,0.000,0.000,0.0130003,0.000,7500.000,1.200,1.507,692.694,-5.209,3093.300,3093.219,-29.881,0.039,0.381,0.005,0.002,-0.027,0.000,0.000,0.000,-0.008,0.698,-0.016,0.716,0.0000000,0.0000000,3091.986,0.000,0.000,0.000,0,00:00:00,0,0.000,0.000,0.000,0.000,0.000,0.000,0.000,0.000,0.000,0.000,0.000,0.000,0.000,0.000
31.731,2,0,-1.404,-0.498,3125.038,-2.521,-1.206,389.427,-1.331,-0.156,-29.489,0.000,0.000,0.0130932,0.000,7500.000,1.195,1.499,689.187,-5.471,3133.079,3132.998,-29.515,0.187,0.477,-0.016,-0.030,-0.021,0.000,0.000,0.000,-0.009,0.697,-0.016,0.717,0.0000000,0.0000000,3131.706,0.000,0.000,0.000,0,00:00:00,0,0.000,0.000,0.000,0.000,0.000,0.000,0.000,0.000,0.000,0.000,0.000,0.000,0.000,0.000
31.832,2,0,-1.505,-0.561,3165.417,-2.545,-1.195,387.369,-1.028,-0.188,-29.221,0.000,0.000,0.0131824,0.000,7500.000,1.190,1.667,685.698,-5.730,3172.834,3172.753,-29.239,0.102,0.166,-0.012,-0.006,0.038,0.000,0.000,0.000,-0.008,0.696,-0.015,0.717,0.0000000,0.0000000,3171.136,0.000,0.000,0.000,0,00:00:00,0,0.000,0.000,0.000,0.000,0.000,0.000,0.000,0.000,0.000,0.000,0.000,0.000,0.000,0.000
31.933,2,0,-1.598,-0.618,3205.384,-2.589,-1.204,385.198,-1.274,-0.416,-28.813,0.000,0.000,0.0132692,0.000,7500.000,1.184,1.700,682.314,-5.986,3211.536,3211.455,-28.841,-0.134,0.403,-0.004,-0.010,-0.005,0.000,0.000,0.000,-0.008,0.696,-0.015,0.718,0.0000000,0.0000000,3210.280,0.000,0.000,0.000,0,00:00:00,0,0.000,0.000,0.000,0.000,0.000,0.000,0.000,0.000,0.000,0.000,0.000,0.000,0.000,0.000
32.034,2,0,-1.687,-0.670,3244.986,-2.635,-1.210,382.961,-1.344,-0.407,-28.371,0.000,0.000,0.0133525,0.000,7500.000,1.178,1.757,678.944,-6.240,3250.232,3250.151,-28.401,-0.069,0.526,0.020,0.015,0.007,0.000,0.000,0.000,-0.008,0.697,-0.015,0.717,0.0000000,0.0000000,3249.141,0.000,0.000,0.000,0,00:00:00,0,0.000,0.000,0.000,0.000,0.000,0.000,0.000,0.000,0.000,0.000,0.000,0.000,0.000,0.000
32.135,2,0,-1.771,-0.718,3284.302,-2.658,-1.216,380.705,-1.156,-0.441,-28.120,0.000,0.000,0.0134321,0.000,7500.000,1.171,1.675,675.567,-6.493,3289.174,3289.093,-28.145,-0.138,0.333,-0.010,-0.005,-0.022,0.000,0.000,0.000,-0.009,0.696,-0.016,0.717,0.0000000,0.0000000,3287.723,0.000,0.000,0.000,0,00:00:00,0,0.000,0.000,0.000,0.000,0.000,0.000,0.000,0.000,0.000,0.000,0.000,0.000,0.000,0.000
32.236,2,0,-1.848,-0.762,3323.343,-2.659,-1.200,378.456,-0.983,-0.238,-27.665,0.000,0.000,0.0103675,0.000,7500.000,1.165,1.704,672.221,-6.742,3327.906,3327.825,-27.683,-0.014,0.266,-0.026,0.035,0.003,0.000,0.000,0.000,-0.009,0.698,-0.015,0.716,0.0000000,0.0000000,3326.029,0.000,0.000,0.000,0,00:00:00,0,0.000,0.000,0.000,0.000,0.000,0.000,0.000,0.000,0.000,0.000,0.000,0.000,0.000,0.000
32.337,2,0,-1.918,-0.799,3362.003,-2.666,-1.191,376.130,-1.081,-0.334,-27.281,0.000,0.000,0.0105136,0.000,7500.000,1.159,1.500,668.977,-6.994,3365.610,3365.529,-27.302,-0.165,0.351,-0.021,-0.010,-0.021,0.000,0.000,0.000,-0.011,0.697,-0.015,0.716,0.0000000,0.0000000,3364.062,0.000,0.000,0.000,0,00:00:00,0,0.000,0.000,0.000,0.000,0.000,0.000,0.000,0.000,0.000,0.000,0.000,0.000,0.000,0.000
32.438,2,0,-1.983,-0.833,3400.296,-2.672,-1.177,373.721,-1.098,-0.304,-27.131,0.000,0.000,0.0106541,0.000,7500.000,1.152,1.555,665.765,-7.241,3403.089,3403.008,-27.152,-0.107,0.387,0.010,0.006,0.016,0.000,0.000,0.000,-0.010,0.698,-0.014,0.716,0.0000000,0.0000000,3401.825,0.000,0.000,0.000,0,00:00:00,0,0.000,0.000,0.000,0.000,0.000,0.000,0.000,0.000,0.000,0.000,0.000,0.000,0.000,0.000
32.539,2,0,-2.041,-0.861,3438.242,-2.675,-1.144,371.263,-1.104,-0.124,-26.828,0.000,0.000,0.0107926,0.000,7500.000,1.145,1.521,662.581,-7.488,3440.392,3440.311,-26.849,0.137,0.297,0.027,-0.036,0.040,0.000,0.000,0.000,-0.008,0.696,-0.014,0.718,0.0000000,0.0000000,3439.321,0.000,0.000,0.000,0,00:00:00,0,0.000,0.000,0.000,0.000,0.000,0.000,0.000,0.000,0.000,0.000,0.000,0.000,0.000,0.000
32.640,2,0,-2.094,-0.884,3475.903,-2.675,-1.131,368.801,-1.106,-0.333,-26.593,0.000,0.000,0.0109275,0.000,7500.000,1.138,1.730,659.398,-7.728,3477.819,3477.738,-26.615,-0.091,0.408,-0.006,0.036,0.027,0.000,0.000,0.000,-0.007,0.698,-0.013,0.716,0.0000000,0.0000000,3476.554,0.000,0.000,0.000,0,00:00:00,0,0.000,0.000,0.000,0.000,0.000,0.000,0.000,0.000,0.000,0.000,0.000,0.000,0.000,0.000
32.741,2,0,-2.141,-0.903,3513.312,-2.633,-1.098,366.359,-0.703,-0.147,-26.356,0.000,0.000,0.0110597,0.000,7500.000,1.131,1.523,656.231,-7.972,3515.204,3515.123,-26.365,0.131,0.072,0.019,0.026,0.024,0.000,0.000,0.000,-0.005,0.699,-0.013,0.715,0.0000000,0.0000000,3513.526,0.000,0.000,0.000,0,00:00:00,0,0.000,0.000,0.000,0.000,0.000,0.000,0.000,0.000,0.000,0.000,0.000,0.000,0.000,0.000
32.842,2,0,-2.179,-0.919,3550.391,-2.603,-1.097,363.889,-0.852,-0.476,-25.996,0.000,0.000,0.0111893,0.000,7500.000,1.124,1.380,653.147,-8.211,3551.752,3551.671,-26.011,-0.255,0.280,-0.023,0.016,-0.007,0.000,0.000,0.000,-0.006,0.699,-0.012,0.715,0.0000000,0.0000000,3550.240,0.000,0.000,0.000,0,00:00:00,0,0.000,0.000,0.000,0.000,0.000,0.000,0.000,0.000,0.000,0.000,0.000,0.000,0.000,0.000
32.943,2,0,-2.212,-0.931,3587.182,-2.578,-1.055,361.417,-0.915,-0.073,-25.735,0.000,0.000,0.0113150,0.000,7500.000,1.117,1.286,650.075,-8.451,3588.305,3588.224,-25.749,0.130,0.339,-0.006,0.000,0.030,0.000,0.000,0.000,-0.006,0.699,-0.011,0.715,0.0000000,0.0000000,3586.700,0.000,0.000,0.000,0,00:00:00,0,0.000,0.000,0.000,0.000,0.000,0.000,0.000,0.000,0.000,0.000,0.000,0.000,0.000,0.000
33.044,2,0,-2.239,-0.938,3618.603,-2.551,-1.011,355.118,-0.915,-0.056,-25.735,0.000,0.000,0.0114384,0.000,7500.000,1.110,1.285,650.075,-8.451,3588.305,3588.224,-25.749,0.130,0.339,-0.006,0.000,0.030,0.000,0.000,0.000,-0.005,0.699,-0.009,0.715,0.0000000,0.0000000,3586.700,0.000,0.000,0.000,0,00:00:00,0,0.000,0.000,0.000,0.000,0.000,0.000,0.000,0.000,0.000,0.000,0.000,0.000,0.000,0.000
33.145,2,0,-2.261,-0.941,3655.191,-2.517,-0.980,353.236,-0.848,-0.193,-24.911,0.000,0.000,0.0115702,0.000,7500.000,1.091,1.284,644.042,-8.925,3660.476,3660.395,-24.924,-0.002,0.319,0.004,0.011,-0.011,0.000,0.000,0.000,-0.005,0.699,-0.010,0.715,0.0000000,0.0000000,3658.865,0.000,0.000,0.000,0,00:00:00,0,0.000,0.000,0.000,0.000,0.000,0.000,0.000,0.000,0.000,0.000,0.000,0.000,0.000,0.000
33.246,2,0,-2.277,-0.941,3686.488,-2.479,-0.951,347.543,-0.822,-0.205,-24.912,0.000,0.000,0.0116909,0.000,7500.000,1.086,1.224,644.042,-8.925,3660.476,3660.395,-24.924,-0.002,0.319,0.004,0.011,-0.011,0.000,0.000,0.000,-0.005,0.700,-0.011,0.714,0.0000000,0.0000000,3658.865,0.000,0.000,0.000,0,00:00:00,0,0.000,0.000,0.000,0.000,0.000,0.000,0.000,0.000,0.000,0.000,0.000,0.000,0.000,0.000
33.347,2,0,-2.288,-0.939,3722.924,-2.431,-0.922,346.159,-0.728,-0.205,-24.487,0.000,0.000,0.0118193,0.000,7500.000,1.069,1.165,638.112,-9.391,3731.955,3731.874,-24.498,-0.071,0.168,-0.027,-0.028,-0.054,0.000,0.000,0.000,-0.008,0.699,-0.012,0.715,0.0000000,0.0000000,3730.042,0.000,0.000,0.000,0,00:00:00,0,0.000,0.000,0.000,0.000,0.000,0.000,0.000,0.000,0.000,0.000,0.000,0.000,0.000,0.000
33.448,2,0,-2.294,-0.934,3759.071,-2.398,-0.901,344.683,-0.876,-0.280,-24.297,0.000,0.000,0.0119411,0.000,7500.000,1.065,1.322,635.206,-9.620,3767.182,3767.101,-24.311,-0.166,0.377,-0.011,0.022,-0.007,0.000,0.000,0.000,-0.009,0.700,-0.011,0.714,0.0000000,0.0000000,3765.267,0.000,0.000,0.000,0,00:00:00,0,0.000,0.000,0.000,0.000,0.000,0.000,0.000,0.000,0.000,0.000,0.000,0.000,0.000,0.000
33.549,2,0,-2.297,-0.927,3794.909,-2.369,-0.859,343.113,-0.925,-0.075,-24.038,0.000,0.000,0.0120602,0.000,7500.000,1.061,1.194,632.342,-9.851,3802.032,3801.951,-24.052,0.038,0.445,-0.001,0.008,-0.000,0.000,0.000,0.000,-0.009,0.700,-0.011,0.714,0.0000000,0.0000000,3800.252,0.000,0.000,0.000,0,00:00:00,0,0.000,0.000,0.000,0.000,0.000,0.000,0.000,0.000,0.000,0.000,0.000,0.000,0.000,0.000
33.650,2,0,-2.296,-0.916,3830.432,-2.321,-0.805,341.449,-0.729,0.047,-23.796,0.000,0.000,0.0121758,0.000,7500.000,1.057,1.148,629.512,-10.080,3836.585,3836.504,-23.805,0.112,0.276,-0.018,0.011,-0.001,0.000,0.000,0.000,-0.009,0.700,-0.011,0.714,0.0000000,0.0000000,3835.000,0.000,0.000,0.000,0,00:00:00,0,0.000,0.000,0.000,0.000,0.000,0.000,0.000,0.000,0.000,0.000,0.000,0.000,0.000,0.000
33.751,2,0,-2.291,-0.901,3860.831,-2.270,-0.749,336.083,-0.704,0.089,-23.797,0.000,0.000,0.0122884,0.000,7500.000,1.052,1.085,629.512,-10.080,3836.585,3836.504,-23.805,0.112,0.276,-0.018,0.011,-0.001,0.000,0.000,0.000,-0.010,0.701,-0.010,0.713,0.0000000,0.0000000,3835.000,0.000,0.000,0.000,0,00:00:00,0,0.000,0.000,0.000,0.000,0.000,0.000,0.000,0.000,0.000,0.000,0.000,0.000,0.000,0.000
33.852,2,0,-2.281,-0.882,3886.505,-2.217,-0.688,327.591,-0.679,0.132,-23.797,0.000,0.000,0.0124084,0.000,7500.000,1.036,1.022,629.512,-10.080,3836.585,3836.504,-23.805,0.112,0.276,-0.018,0.011,-0.001,0.000,0.000,0.000,-0.011,0.701,-0.010,0.713,0.0000000,0.0000000,3835.000,0.000,0.000,0.000,0,00:00:00,0,0.000,0.000,0.000,0.000,0.000,0.000,0.000,0.000,0.000,0.000,0.000,0.000,0.000,0.000
33.953,2,0,-2.267,-0.860,3922.318,-2.162,-0.629,327.378,-0.645,0.139,-23.153,0.000,0.000,0.0125423,0.000,7500.000,1.009,0.959,621.117,-10.752,3939.853,3939.772,-23.160,0.125,0.267,0.002,0.006,0.007,0.000,0.000,0.000,-0.010,0.701,-0.009,0.713,0.0000000,0.0000000,3937.848,0.000,0.000,0.000,0,00:00:00,0,0.000,0.000,0.000,0.000,0.000,0.000,0.000,0.000,0.000,0.000,0.000,0.000,0.000,0.000
34.054,2,0,-2.250,-0.834,3957.762,-2.120,-0.579,326.935,-0.764,0.054,-22.838,0.000,0.000,0.0126644,0.000,7500.000,1.010,0.925,618.429,-10.972,3973.150,3973.069,-22.849,0.047,0.349,0.002,-0.020,0.017,0.000,0.000,0.000,-0.010,0.701,-0.009,0.713,0.0000000,0.0000000,3971.672,0.000,0.000,0.000,0,00:00:00,0,0.000,0.000,0.000,0.000,0.000,0.000,0.000,0.000,0.000,0.000,0.000,0.000,0.000,0.000
34.155,2,0,-2.231,-0.808,3992.953,-2.071,-0.549,326.360,-0.687,-0.126,-22.606,0.000,0.000,0.0127803,0.000,7500.000,1.009,1.037,615.702,-11.191,4007.058,4006.977,-22.614,-0.115,0.281,0.009,0.001,-0.006,0.000,0.000,0.000,-0.009,0.701,-0.009,0.713,0.0000000,0.0000000,4005.271,0.000,0.000,0.000,0,00:00:00,0,0.000,0.000,0.000,0.000,0.000,0.000,0.000,0.000,0.000,0.000,0.000,0.000,0.000,0.000
34.256,2,0,-2.210,-0.780,4027.841,-2.040,-0.510,325.615,-0.862,-0.030,-22.471,0.000,0.000,0.0128915,0.000,7500.000,1.008,1.035,613.026,-11.412,4040.439,4040.358,-22.482,-0.054,0.458,-0.019,0.000,-0.023,0.000,0.000,0.000,-0.011,0.701,-0.010,0.713,0.0000000,0.0000000,4038.646,0.000,0.000,0.000,0,00:00:00,0,0.000,0.000,0.000,0.000,0.000,0.000,0.000,0.000,0.000,0.000,0.000,0.000,0.000,0.000
34.357,2,0,-2.188,-0.752,4062.451,-2.015,-0.462,324.744,-0.898,0.087,-22.200,0.000,0.000,0.0130000,0.000,7500.000,1.006,1.030,610.362,-11.628,4073.799,4073.718,-22.213,0.106,0.496,0.018,0.001,-0.018,0.000,0.000,0.000,-0.011,0.701,-0.011,0.713,0.0000000,0.0000000,4071.800,0.000,0.000,0.000,0,00:00:00,0,0.000,0.000,0.000,0.000,0.000,0.000,0.000,0.000,0.000,0.000,0.000,0.000,0.000,0.000
34.458,2,0,-2.165,-0.721,4096.743,-1.969,-0.414,323.720,-0.688,0.093,-22.016,0.000,0.000,0.0131043,0.000,7500.000,1.004,1.029,607.745,-11.842,4106.676,4106.595,-22.025,0.093,0.273,-0.005,-0.007,0.015,0.000,0.000,0.000,-0.011,0.700,-0.010,0.714,0.0000000,0.0000000,4104.735,0.000,0.000,0.000,0,00:00:00,0,0.000,0.000,0.000,0.000,0.000,0.000,0.000,0.000,0.000,0.000,0.000,0.000,0.000,0.000
34.559,2,0,-2.140,-0.691,4130.699,-1.923,-0.400,322.551,-0.670,-0.230,-21.719,0.000,0.000,0.0132058,0.000,7500.000,1.001,1.071,605.167,-12.060,4139.190,4139.109,-21.728,-0.204,0.241,0.012,-0.013,-0.005,0.000,0.000,0.000,-0.010,0.700,-0.011,0.714,0.0000000,0.0000000,4137.452,0.000,0.000,0.000,0,00:00:00,0,0.000,0.000,0.000,0.000,0.000,0.000,0.000,0.000,0.000,0.000,0.000,0.000,0.000,0.000
34.660,2,0,-2.113,-0.661,4164.345,-1.879,-0.376,321.261,-0.670,-0.105,-21.486,0.000,0.000,0.0133035,0.000,7500.000,0.998,1.148,602.601,-12.272,4171.653,4171.572,-21.495,-0.055,0.257,0.010,0.007,-0.030,0.000,0.000,0.000,-0.011,0.700,-0.012,0.714,0.0000000,0.0000000,4169.955,0.000,0.000,0.000,0,00:00:00,0,0.000,0.000,0.000,0.000,0.000,0.000,0.000,0.000,0.000,0.000,0.000,0.000,0.000,0.000
34.761,2,0,-2.086,-0.632,4197.746,-1.865,-0.350,319.880,-0.957,-0.078,-21.545,0.000,0.000,0.0133985,0.000,7500.000,0.994,1.111,600.025,-12.479,4204.355,4204.274,-21.558,0.005,0.574,0.010,0.015,-0.002,0.000,0.000,0.000,-0.011,0.701,-0.013,0.713,0.0000000,0.0000000,4202.244,0.000,0.000,0.000,0,00:00:00,0,0.000,0.000,0.000,0.000,0.000,0.000,0.000,0.000,0.000,0.000,0.000,0.000,0.000,0.000
34.862,2,0,-2.059,-0.605,4230.748,-1.836,-0.336,318.332,-0.796,-0.178,-21.258,0.000,0.000,0.0103675,0.000,7500.000,0.990,1.024,597.560,-12.691,4235.750,4235.669,-21.268,-0.068,0.453,0.014,0.015,-0.015,0.000,0.000,0.000,-0.011,0.701,-0.014,0.713,0.0000000,0.0000000,4234.321,0.000,0.000,0.000,0,00:00:00,0,0.000,0.000,0.000,0.000,0.000,0.000,0.000,0.000,0.000,0.000,0.000,0.000,0.000,0.000
34.963,2,0,-2.032,-0.578,4263.534,-1.794,-0.319,316.758,-0.653,-0.131,-21.075,0.000,0.000,0.0105060,0.000,7500.000,0.986,0.941,595.024,-12.901,4268.168,4268.087,-21.084,0.010,0.291,0.018,-0.009,0.023,0.000,0.000,0.000,-0.009,0.701,-0.014,0.713,0.0000000,0.0000000,4266.189,0.000,0.000,0.000,0,00:00:00,0,0.000,0.000,0.000,0.000,0.000,0.000,0.000,0.000,0.000,0.000,0.000,0.000,0.000,0.000
35.064,2,0,-2.004,-0.552,4291.589,-1.755,-0.306,311.768,-0.671,-0.168,-21.074,0.000,0.000,0.0106419,0.000,7500.000,0.981,0.994,595.024,-12.901,4268.168,4268.087,-21.084,0.010,0.291,0.018,-0.009,0.023,0.000,0.000,0.000,-0.008,0.701,-0.013,0.713,0.0000000,0.0000000,4266.189,0.000,0.000,0.000,0,00:00:00,0,0.000,0.000,0.000,0.000,0.000,0.000,0.000,0.000,0.000,0.000,0.000,0.000,0.000,0.000
35.165,2,0,-1.975,-0.528,4324.113,-1.716,-0.288,310.527,-0.647,-0.101,-20.732,0.000,0.000,0.0107838,0.000,7500.000,0.966,1.046,590.118,-13.315,4331.200,4331.119,-20.740,-0.035,0.297,-0.052,0.011,0.025,0.000,0.000,0.000,-0.009,0.701,-0.011,0.713,0.0000000,0.0000000,4329.303,0.000,0.000,0.000,0,00:00:00,0,0.000,0.000,0.000,0.000,0.000,0.000,0.000,0.000,0.000,0.000,0.000,0.000,0.000,0.000
35.266,2,0,-1.945,-0.504,4356.378,-1.678,-0.271,309.208,-0.651,-0.089,-20.497,0.000,0.000,0.0109205,0.000,7500.000,0.963,0.973,587.684,-13.520,4362.629,4362.548,-20.506,-0.041,0.306,-0.009,0.000,-0.022,0.000,0.000,0.000,-0.010,0.701,-0.011,0.713,0.0000000,0.0000000,4360.553,0.000,0.000,0.000,0,00:00:00,0,0.000,0.000,0.000,0.000,0.000,0.000,0.000,0.000,0.000,0.000,0.000,0.000,0.000,0.000
35.367,2,0,-1.914,-0.481,4388.339,-1.646,-0.259,307.772,-0.688,-0.138,-20.394,0.000,0.000,0.0110537,0.000,7500.000,0.959,0.971,585.298,-13.724,4393.542,4393.461,-20.404,-0.113,0.296,-0.011,-0.025,0.004,0.000,0.000,0.000,-0.010,0.700,-0.011,0.714,0.0000000,0.0000000,4391.601,0.000,0.000,0.000,0,00:00:00,0,0.000,0.000,0.000,0.000,0.000,0.000,0.000,0.000,0.000,0.000,0.000,0.000,0.000,0.000
35.468,2,0,-1.885,-0.458,4420.047,-1.631,-0.243,306.276,-0.848,-0.077,-20.179,0.000,0.000,0.0111854,0.000,7500.000,0.955,1.113,582.910,-13.925,4424.582,4424.501,-20.190,-0.017,0.521,0.016,0.032,0.039,0.000,0.000,0.000,-0.008,0.701,-0.010,0.713,0.0000000,0.0000000,4422.447,0.000,0.000,0.000,0,00:00:00,0,0.000,0.000,0.000,0.000,0.000,0.000,0.000,0.000,0.000,0.000,0.000,0.000,0.000,0.000
35.569,2,0,-1.855,-0.437,4451.470,-1.586,-0.227,304.707,-0.522,-0.077,-19.908,0.000,0.000,0.0113145,0.000,7500.000,0.951,0.933,580.563,-14.125,4455.181,4455.100,-19.914,0.001,0.218,0.013,0.010,-0.008,0.000,0.000,0.000,-0.008,0.702,-0.010,0.712,0.0000000,0.0000000,4453.095,0.000,0.000,0.000,0,00:00:00,0,0.000,0.000,0.000,0.000,0.000,0.000,0.000,0.000,0.000,0.000,0.000,0.000,0.000,0.000
35.670,2,0,-1.824,-0.416,4482.586,-1.546,-0.218,303.024,-0.570,-0.130,-19.941,0.000,0.000,0.0114400,0.000,7500.000,0.946,0.880,578.255,-14.327,4485.381,4485.300,-19.947,-0.005,0.334,0.023,0.035,0.029,0.000,0.000,0.000,-0.006,0.703,-0.010,0.711,0.0000000,0.0000000,4483.545,0.000,0.000,0.000,0,00:00:00,0,0.000,0.000,0.000,0.000,0.000,0.000,0.000,0.000,0.000,0.000,0.000,0.000,0.000,0.000
35.771,2,0,-1.793,-0.396,4513.418,-1.521,-0.202,301.296,-0.697,-0.053,-19.516,0.000,0.000,0.0115668,0.000,7500.000,0.941,0.684,575.960,-14.524,4515.499,4515.418,-19.521,0.072,0.537,-0.001,0.037,0.005,0.000,0.000,0.000,-0.006,0.704,-0.010,0.710,0.0000000,0.0000000,4513.799,0.000,0.000,0.000,0,00:00:00,0,0.000,0.000,0.000,0.000,0.000,0.000,0.000,0.000,0.000,0.000,0.000,0.000,0.000,0.000
35.872,2,0,-1.762,-0.378,4544.058,-1.475,-0.198,299.547,-0.467,-0.151,-19.606,0.000,0.000,0.0116885,0.000,7500.000,0.936,0.473,573.641,-14.719,4546.033,4545.952,-19.610,-0.030,0.318,0.000,0.005,-0.024,0.000,0.000,0.000,-0.007,0.704,-0.011,0.710,0.0000000,0.0000000,4543.859,0.000,0.000,0.000,0,00:00:00,0,0.000,0.000,0.000,0.000,0.000,0.000,0.000,0.000,0.000,0.000,0.000,0.000,0.000,0.000
35.973,2,0,-1.729,-0.360,4574.399,-1.428,-0.199,297.730,-0.442,-0.207,-19.363,0.000,0.000,0.0118124,0.000,7500.000,0.931,0.446,571.402,-14.915,4575.622,4575.541,-19.367,-0.073,0.254,0.007,-0.022,-0.026,0.000,0.000,0.000,-0.008,0.704,-0.012,0.711,0.0000000,0.0000000,4573.726,0.000,0.000,0.000,0,00:00:00,0,0.000,0.000,0.000,0.000,0.000,0.000,0.000,0.000,0.000,0.000,0.000,0.000,0.000,0.000
36.074,2,0,-1.696,-0.345,4604.532,-1.389,-0.207,295.910,-0.507,-0.253,-19.197,0.000,0.000,0.0119340,0.000,7500.000,0.926,0.570,569.140,-15.110,4605.592,4605.511,-19.201,-0.057,0.375,0.031,0.028,0.000,0.000,0.000,0.000,-0.006,0.705,-0.013,0.710,0.0000000,0.0000000,4603.401,0.000,0.000,0.000,0,00:00:00,0,0.000,0.000,0.000,0.000,0.000,0.000,0.000,0.000,0.000,0.000,0.000,0.000,0.000,0.000
36.175,2,0,-1.662,-0.330,4634.381,-1.338,-0.178,294.010,-0.368,0.107,-19.259,0.000,0.000,0.0120544,0.000,7500.000,0.921,0.414,566.941,-15.301,4634.830,4634.749,-19.260,0.244,0.204,-0.028,-0.012,0.030,0.000,0.000,0.000,-0.006,0.704,-0.011,0.710,0.0000000,0.0000000,4632.887,0.000,0.000,0.000,0,00:00:00,0,0.000,0.000,0.000,0.000,0.000,0.000,0.000,0.000,0.000,0.000,0.000,0.000,0.000,0.000
36.276,2,0,-1.627,-0.315,4663.937,-1.305,-0.174,292.066,-0.526,-0.121,-18.937,0.000,0.000,0.0121770,0.000,7500.000,0.915,0.479,564.772,-15.499,4663.758,4663.677,-18.942,-0.020,0.332,-0.018,-0.021,0.041,0.000,0.000,0.000,-0.006,0.703,-0.009,0.711,0.0000000,0.0000000,4662.185,0.000,0.000,0.000,0,00:00:00,0,0.000,0.000,0.000,0.000,0.000,0.000,0.000,0.000,0.000,0.000,0.000,0.000,0.000,0.000
36.377,2,0,-1.592,-0.301,4693.297,-1.266,-0.163,290.127,-0.456,-0.057,-18.887,0.000,0.000,0.0122967,0.000,7500.000,0.909,0.595,562.577,-15.686,4693.122,4693.041,-18.891,0.028,0.224,-0.006,-0.020,0.028,0.000,0.000,0.000,-0.005,0.703,-0.008,0.711,0.0000000,0.0000000,4691.295,0.000,0.000,0.000,0,00:00:00,0,0.000,0.000,0.000,0.000,0.000,0.000,0.000,0.000,0.000,0.000,0.000,0.000,0.000,0.000
36.478,2,0,-1.556,-0.288,4722.479,-1.230,-0.160,288.231,-0.462,-0.118,-18.577,0.000,0.000,0.0124171,0.000,7500.000,0.904,0.706,560.395,-15.877,4722.397,4722.316,-18.581,-0.069,0.254,-0.019,0.010,0.013,0.000,0.000,0.000,-0.005,0.703,-0.007,0.711,0.0000000,0.0000000,4720.220,0.000,0.000,0.000,0,00:00:00,0,0.000,0.000,0.000,0.000,0.000,0.000,0.000,0.000,0.000,0.000,0.000,0.000,0.000,0.000
36.579,2,0,-1.522,-0.275,4751.441,-1.208,-0.155,286.332,-0.582,-0.093,-18.393,0.000,0.000,0.0125347,0.000,7500.000,0.898,0.648,558.257,-16.068,4751.184,4751.103,-18.399,-0.068,0.380,-0.014,0.002,0.008,0.000,0.000,0.000,-0.005,0.703,-0.006,0.711,0.0000000,0.0000000,4748.960,0.000,0.000,0.000,0,00:00:00,0,0.000,0.000,0.000,0.000,0.000,0.000,0.000,0.000,0.000,0.000,0.000,0.000,0.000,0.000
36.680,2,0,-1.488,-0.262,4780.133,-1.182,-0.123,284.373,-0.524,0.175,-18.414,0.000,0.000,0.0126512,0.000,7500.000,0.892,0.636,556.168,-16.252,4779.396,4779.315,-18.420,0.206,0.233,0.004,-0.045,-0.011,0.000,0.000,0.000,-0.005,0.702,-0.006,0.713,0.0000000,0.0000000,4777.518,0.000,0.000,0.000,0,00:00:00,0,0.000,0.000,0.000,0.000,0.000,0.000,0.000,0.000,0.000,0.000,0.000,0.000,0.000,0.000
36.781,2,0,-1.457,-0.248,4808.609,-1.175,-0.111,282.430,-0.699,-0.008,-18.095,0.000,0.000,0.0127698,0.000,7500.000,0.887,0.896,554.075,-16.436,4807.746,4807.665,-18.103,0.043,0.413,0.008,-0.002,-0.015,0.000,0.000,0.000,-0.006,0.701,-0.007,0.713,0.0000000,0.0000000,4805.895,0.000,0.000,0.000,0,00:00:00,0,0.000,0.000,0.000,0.000,0.000,0.000,0.000,0.000,0.000,0.000,0.000,0.000,0.000,0.000
36.882,2,0,-1.427,-0.235,4836.946,-1.173,-0.114,280.533,-0.733,-0.156,-18.069,0.000,0.000,0.0128856,0.000,7500.000,0.881,0.907,551.963,-16.622,4836.437,4836.356,-18.077,-0.040,0.493,0.035,0.025,0.005,0.000,0.000,0.000,-0.004,0.702,-0.008,0.712,0.0000000,0.0000000,4834.091,0.000,0.000,0.000,0,00:00:00,0,0.000,0.000,0.000,0.000,0.000,0.000,0.000,0.000,0.000,0.000,0.000,0.000,0.000,0.000
36.983,2,0,-1.400,-0.223,4865.026,-1.165,-0.113,278.588,-0.657,-0.111,-18.062,0.000,0.000,0.0130028,0.000,7500.000,0.875,0.768,549.932,-16.805,4864.116,4864.035,-18.070,0.011,0.405,0.005,-0.006,0.019,0.000,0.000,0.000,-0.003,0.702,-0.008,0.712,0.0000000,0.0000000,4862.108,0.000,0.000,0.000,0,00:00:00,0,0.000,0.000,0.000,0.000,0.000,0.000,0.000,0.000,0.000,0.000,0.000,0.000,0.000,0.000
37.084,2,0,-1.375,-0.213,4892.923,-1.163,-0.119,276.668,-0.701,-0.172,-17.909,0.000,0.000,0.0131216,0.000,7500.000,0.870,0.804,547.886,-16.988,4892.086,4892.005,-17.918,-0.068,0.449,-0.010,-0.002,-0.024,0.000,0.000,0.000,-0.005,0.702,-0.008,0.712,0.0000000,0.0000000,4889.948,0.000,0.000,0.000,0,00:00:00,0,0.000,0.000,0.000,0.000,0.000,0.000,0.000,0.000,0.000,0.000,0.000,0.000,0.000,0.000
37.185,2,0,-1.353,-0.204,4920.619,-1.164,-0.111,274.767,-0.725,-0.023,-17.656,0.000,0.000,0.0132400,0.000,7500.000,0.864,0.816,545.869,-17.168,4919.736,4919.655,-17.663,0.082,0.511,0.002,0.021,0.018,0.000,0.000,0.000,-0.004,0.703,-0.008,0.711,0.0000000,0.0000000,4917.611,0.000,0.000,0.000,0,00:00:00,0,0.000,0.000,0.000,0.000,0.000,0.000,0.000,0.000,0.000,0.000,0.000,0.000,0.000,0.000
37.286,2,0,-1.331,-0.194,4948.124,-1.133,-0.102,272.889,-0.388,-0.010,-17.435,0.000,0.000,0.0133566,0.000,7500.000,0.858,0.697,543.869,-17.350,4947.239,4947.158,-17.438,0.127,0.153,0.023,-0.013,0.034,0.000,0.000,0.000,-0.002,0.702,-0.007,0.712,0.0000000,0.0000000,4945.099,0.000,0.000,0.000,0,00:00:00,0,0.000,0.000,0.000,0.000,0.000,0.000,0.000,0.000,0.000,0.000,0.000,0.000,0.000,0.000
37.387,2,0,-1.309,-0.186,4975.416,-1.106,-0.108,270.987,-0.426,-0.164,-17.498,0.000,0.000,0.0134716,0.000,7500.000,0.853,0.772,541.900,-17.525,4974.391,4974.310,-17.503,0.028,0.186,0.031,-0.003,-0.008,0.000,0.000,0.000,-0.001,0.702,-0.009,0.712,0.0000000,0.0000000,4972.413,0.000,0.000,0.000,0,00:00:00,0,0.000,0.000,0.000,0.000,0.000,0.000,0.000,0.000,0.000,0.000,0.000,0.000,0.000,0.000
37.488,2,0,-1.285,-0.178,5002.537,-1.071,-0.114,269.125,-0.324,-0.148,-17.235,0.000,0.000,0.0103675,0.000,7500.000,0.847,0.793,539.931,-17.706,5001.627,5001.546,-17.237,0.063,0.182,0.013,0.056,-0.005,0.000,0.000,0.000,-0.001,0.704,-0.009,0.710,0.0000000,0.0000000,4999.554,0.000,0.000,0.000,0,00:00:00,0,0.000,0.000,0.000,0.000,0.000,0.000,0.000,0.000,0.000,0.000,0.000,0.000,0.000,0.000
37.589,2,0,-1.262,-0.173,5029.532,-1.065,-0.128,267.309,-0.601,-0.228,-17.261,0.000,0.000,0.0105168,0.000,7500.000,0.842,0.476,537.957,-17.883,5029.013,5028.932,-17.268,-0.044,0.425,-0.018,-0.021,0.008,0.000,0.000,0.000,-0.001,0.703,-0.008,0.711,0.0000000,0.0000000,5026.524,0.000,0.000,0.000,0,00:00:00,0,0.000,0.000,0.000,0.000,0.000,0.000,0.000,0.000,0.000,0.000,0.000,0.000,0.000,0.000
37.690,2,0,-1.240,-0.169,5056.260,-1.044,-0.145,265.436,-0.447,-0.263,-17.191,0.000,0.000,0.0106679,0.000,7500.000,0.836,0.594,536.073,-18.059,5055.220,5055.139,-17.196,-0.067,0.278,0.008,0.003,-0.014,0.000,0.000,0.000,-0.001,0.704,-0.009,0.711,0.0000000,0.0000000,5053.323,0.000,0.000,0.000,0,00:00:00,0,0.000,0.000,0.000,0.000,0.000,0.000,0.000,0.000,0.000,0.000,0.000,0.000,0.000,0.000
37.791,2,0,-1.219,-0.167,5079.079,-1.023,-0.164,260.784,-0.440,-0.278,-17.190,0.000,0.000,0.0108190,0.000,7500.000,0.831,0.576,536.073,-18.059,5055.220,5055.139,-17.196,-0.067,0.278,0.008,0.003,-0.014,0.000,0.000,0.000,-0.002,0.704,-0.010,0.710,0.0000000,0.0000000,5053.323,0.000,0.000,0.000,0,00:00:00,0,0.000,0.000,0.000,0.000,0.000,0.000,0.000,0.000,0.000,0.000,0.000,0.000,0.000,0.000
37.892,2,0,-1.198,-0.168,5105.746,-1.021,-0.186,259.415,-0.608,-0.305,-16.607,0.000,0.000,0.0109771,0.000,7500.000,0.816,0.557,532.271,-18.405,5108.353,5108.272,-16.613,-0.083,0.479,0.010,0.017,0.014,0.000,0.000,0.000,-0.001,0.704,-0.010,0.710,0.0000000,0.0000000,5106.414,0.000,0.000,0.000,0,00:00:00,0,0.000,0.000,0.000,0.000,0.000,0.000,0.000,0.000,0.000,0.000,0.000,0.000,0.000,0.000
37.993,2,0,-1.177,-0.170,5132.299,-0.992,-0.205,258.039,-0.333,-0.276,-16.866,0.000,0.000,0.0111266,0.000,7500.000,0.812,0.460,530.367,-18.578,5135.070,5134.989,-16.871,-0.029,0.187,0.015,-0.008,0.030,0.000,0.000,0.000,0.001,0.704,-0.009,0.710,0.0000000,0.0000000,5132.708,0.000,0.000,0.000,0,00:00:00,0,0.000,0.000,0.000,0.000,0.000,0.000,0.000,0.000,0.000,0.000,0.000,0.000,0.000,0.000
38.094,2,0,-1.156,-0.174,5158.639,-0.960,-0.232,256.636,-0.291,-0.358,-16.571,0.000,0.000,0.0112805,0.000,7500.000,0.808,0.507,528.528,-18.748,5160.946,5160.865,-16.576,-0.074,0.147,0.026,-0.001,0.007,0.000,0.000,0.000,0.002,0.704,-0.010,0.710,0.0000000,0.0000000,5158.836,0.000,0.000,0.000,0,00:00:00,0,0.000,0.000,0.000,0.000,0.000,0.000,0.000,0.000,0.000,0.000,0.000,0.000,0.000,0.000
38.195,2,0,-1.134,-0.180,5184.859,-0.934,-0.269,255.247,-0.338,-0.459,-16.592,0.000,0.000,0.0114304,0.000,7500.000,0.804,0.513,526.661,-18.919,5187.296,5187.215,-16.600,-0.133,0.182,0.025,-0.007,0.017,0.000,0.000,0.000,0.003,0.704,-0.010,0.710,0.0000000,0.0000000,5184.799,0.000,0.000,0.000,0,00:00:00,0,0.000,0.000,0.000,0.000,0.000,0.000,0.000,0.000,0.000,0.000,0.000,0.000,0.000,0.000
38.296,2,0,-1.112,-0.190,5207.283,-0.911,-0.309,251.128,-0.351,-0.501,-16.591,0.000,0.000,0.0115814,0.000,7500.000,0.800,0.555,526.661,-18.919,5187.296,5187.215,-16.600,-0.133,0.182,0.025,-0.007,0.017,0.000,0.000,0.000,0.005,0.703,-0.011,0.711,0.0000000,0.0000000,5184.799,0.000,0.000,0.000,0,00:00:00,0,0.000,0.000,0.000,0.000,0.000,0.000,0.000,0.000,0.000,0.000,0.000,0.000,0.000,0.000
38.397,3,0,-1.092,-0.203,5233.401,-0.917,-0.359,250.091,-0.635,-0.596,-16.464,0.000,0.000,0.0117386,0.000,7500.000,0.787,0.597,523.040,-19.255,5238.625,5238.544,-16.478,-0.220,0.507,0.005,0.024,-0.000,0.000,0.000,0.000,0.005,0.704,-0.011,0.710,0.0000000,0.0000000,5236.234,0.000,0.000,0.000,0,00:00:00,0,0.000,0.000,0.000,0.000,0.000,0.000,0.000,0.000,0.000,0.000,0.000,0.000,0.000,0.000
38.498,3,0,-1.072,-0.218,5259.275,-0.900,-0.393,248.889,-0.398,-0.455,-17.095,70.000,2.000,0.0117386,7628.839,7500.000,0.784,0.462,521.281,-19.423,5263.663,5263.582,-17.103,-0.122,0.302,-0.033,0.021,-0.033,0.000,0.000,0.000,0.003,0.705,-0.011,0.709,0.0000000,0.0000000,5261.697,0.000,0.000,0.000,0,00:00:00,0,0.000,0.000,0.000,0.000,0.000,0.000,0.000,0.000,0.000,0.000,0.000,0.000,0.000,0.000
38.599,3,0,-1.054,-0.234,5285.022,-0.894,-0.400,247.641,-0.496,-0.188,-17.522,70.000,4.000,0.0117386,7639.694,7500.000,0.781,0.339,519.479,-19.587,5289.384,5289.303,-17.525,0.159,0.404,0.001,0.005,-0.047,0.000,0.000,0.000,0.001,0.705,-0.013,0.709,0.0000000,0.0000000,5286.982,0.000,0.000,0.000,0,00:00:00,0,0.000,0.000,0.000,0.000,0.000,0.000,0.000,0.000,0.000,0.000,0.000,0.000,0.000,0.000
38.700,3,0,-1.036,-0.249,5310.541,-0.880,-0.414,246.259,-0.404,-0.270,-18.125,70.000,6.000,0.0117386,7647.313,7500.000,0.777,0.310,517.737,-19.754,5314.305,5314.224,-18.129,0.071,0.287,-0.008,-0.013,0.010,0.000,0.000,0.000,0.001,0.705,-0.012,0.709,0.0000000,0.0000000,5312.084,0.000,0.000,0.000,0,00:00:00,0,0.000,0.000,0.000,0.000,0.000,0.000,0.000,0.000,0.000,0.000,0.000,0.000,0.000,0.000
38.801,3,0,-1.019,-0.264,5332.364,-0.869,-0.425,242.219,-0.427,-0.255,-18.125,70.000,8.000,0.0117386,7652.465,7500.000,0.773,0.382,517.737,-19.754,5314.305,5314.224,-18.129,0.071,0.287,-0.008,-0.013,0.010,0.000,0.000,0.000,0.001,0.704,-0.011,0.710,0.0000000,0.0000000,5312.084,0.000,0.000,0.000,0,00:00:00,0,0.000,0.000,0.000,0.000,0.000,0.000,0.000,0.000,0.000,0.000,0.000,0.000,0.000,0.000
38.902,3,0,-1.002,-0.279,5350.778,-0.861,-0.435,235.937,-0.450,-0.240,-18.125,70.000,10.000,0.0117386,7611.464,7500.000,0.760,0.454,517.737,-19.754,5314.305,5314.224,-18.129,0.071,0.287,-0.008,-0.013,0.010,0.000,0.000,0.000,0.001,0.704,-0.011,0.710,0.0000000,0.0000000,5312.084,0.000,0.000,0.000,0,00:00:00,0,0.000,0.000,0.000,0.000,0.000,0.000,0.000,0.000,0.000,0.000,0.000,0.000,0.000,0.000
39.003,3,0,-0.987,-0.293,5376.448,-0.855,-0.445,235.409,-0.461,-0.251,-19.579,70.000,12.000,0.0117386,7534.726,7500.000,0.741,0.526,512.586,-20.236,5388.434,5388.353,-19.584,0.079,0.278,-0.003,-0.004,-0.005,0.000,0.000,0.000,0.001,0.704,-0.011,0.710,0.0000000,0.0000000,5386.242,0.000,0.000,0.000,0,00:00:00,0,0.000,0.000,0.000,0.000,0.000,0.000,0.000,0.000,0.000,0.000,0.000,0.000,0.000,0.000
39.104,3,0,-0.973,-0.307,5401.868,-0.861,-0.461,234.694,-0.573,-0.321,-19.998,70.000,14.000,0.0117386,7553.394,7500.000,0.740,0.547,510.911,-20.399,5412.661,5412.580,-20.005,0.020,0.368,0.003,-0.008,0.049,0.000,0.000,0.000,0.003,0.703,-0.009,0.711,0.0000000,0.0000000,5410.563,0.000,0.000,0.000,0,00:00:00,0,0.000,0.000,0.000,0.000,0.000,0.000,0.000,0.000,0.000,0.000,0.000,0.000,0.000,0.000
39.205,3,0,-0.960,-0.320,5427.065,-0.858,-0.463,233.828,-0.469,-0.188,-20.386,70.000,16.000,0.0117386,7568.804,7500.000,0.738,0.593,509.237,-20.556,5436.945,5436.864,-20.389,0.188,0.319,0.013,0.029,-0.034,0.000,0.000,0.000,0.002,0.704,-0.011,0.710,0.0000000,0.0000000,5434.679,0.000,0.000,0.000,0,00:00:00,0,0.000,0.000,0.000,0.000,0.000,0.000,0.000,0.000,0.000,0.000,0.000,0.000,0.000,0.000
39.306,3,0,-0.949,-0.333,5452.025,-0.864,-0.462,232.836,-0.562,-0.164,-20.533,70.000,18.000,0.0117386,7581.732,7500.000,0.735,0.426,507.584,-20.711,5460.989,5460.908,-20.537,0.167,0.402,-0.024,-0.005,0.005,0.000,0.000,0.000,0.001,0.704,-0.010,0.710,0.0000000,0.0000000,5458.586,0.000,0.000,0.000,0,00:00:00,0,0.000,0.000,0.000,0.000,0.000,0.000,0.000,0.000,0.000,0.000,0.000,0.000,0.000,0.000
39.407,3,0,-0.939,-0.345,5476.676,-0.872,-0.495,231.632,-0.572,-0.512,-21.110,70.000,20.000,0.0117386,7594.868,7500.000,0.732,0.451,505.980,-20.867,5484.376,5484.295,-21.119,-0.222,0.378,-0.023,-0.016,0.020,0.000,0.000,0.000,0.001,0.704,-0.008,0.710,0.0000000,0.0000000,5482.280,0.000,0.000,0.000,0,00:00:00,0,0.000,0.000,0.000,0.000,0.000,0.000,0.000,0.000,0.000,0.000,0.000,0.000,0.000,0.000
39.508,3,0,-0.931,-0.359,5501.093,-0.883,-0.509,230.313,-0.600,-0.326,-21.432,70.000,22.000,0.0117386,7601.974,7500.000,0.729,0.540,504.356,-21.020,5508.118,5508.037,-21.439,-0.035,0.408,-0.001,0.003,0.003,0.000,0.000,0.000,0.001,0.704,-0.008,0.710,0.0000000,0.0000000,5505.759,0.000,0.000,0.000,0,00:00:00,0,0.000,0.000,0.000,0.000,0.000,0.000,0.000,0.000,0.000,0.000,0.000,0.000,0.000,0.000
39.609,3,0,-0.926,-0.372,5525.229,-0.903,-0.508,228.842,-0.687,-0.187,-21.854,70.000,24.000,0.0117386,7607.066,7500.000,0.725,0.521,502.770,-21.176,5531.356,5531.275,-21.859,0.099,0.513,-0.006,0.010,-0.003,0.000,0.000,0.000,0.001,0.704,-0.008,0.710,0.0000000,0.0000000,5529.020,0.000,0.000,0.000,0,00:00:00,0,0.000,0.000,0.000,0.000,0.000,0.000,0.000,0.000,0.000,0.000,0.000,0.000,0.000,0.000
39.710,3,0,-0.921,-0.383,5549.050,-0.902,-0.503,227.238,-0.473,-0.155,-21.948,70.000,26.000,0.0117386,7609.454,7500.000,0.720,0.462,501.218,-21.324,5554.160,5554.079,-21.951,0.067,0.325,-0.029,0.012,0.015,0.000,0.000,0.000,0.001,0.705,-0.006,0.709,0.0000000,0.0000000,5552.060,0.000,0.000,0.000,0,00:00:00,0,0.000,0.000,0.000,0.000,0.000,0.000,0.000,0.000,0.000,0.000,0.000,0.000,0.000,0.000
39.811,3,0,-0.918,-0.394,5572.597,-0.908,-0.519,225.515,-0.536,-0.364,-22.303,70.000,28.000,0.0117386,7609.354,7500.000,0.716,0.390,499.666,-21.473,5577.034,5576.953,-22.310,-0.054,0.302,0.038,-0.037,0.020,0.000,0.000,0.000,0.003,0.703,-0.007,0.711,0.0000000,0.0000000,5574.877,0.000,0.000,0.000,0,00:00:00,0,0.000,0.000,0.000,0.000,0.000,0.000,0.000,0.000,0.000,0.000,0.000,0.000,0.000,0.000
39.912,3,0,-0.916,-0.405,5595.916,-0.927,-0.529,223.762,-0.676,-0.313,-22.207,70.000,30.000,0.0117386,7609.332,7500.000,0.710,0.606,498.109,-21.624,5600.016,5599.935,-22.216,-0.014,0.415,-0.005,-0.012,0.007,0.000,0.000,0.000,0.003,0.703,-0.007,0.711,0.0000000,0.0000000,5597.470,0.000,0.000,0.000,0,00:00:00,0,0.000,0.000,0.000,0.000,0.000,0.000,0.000,0.000,0.000,0.000,0.000,0.000,0.000,0.000
40.013,3,0,-0.915,-0.416,5618.868,-0.939,-0.541,221.828,-0.597,-0.333,-22.607,70.000,32.000,0.0117386,7606.658,7500.000,0.705,0.677,496.637,-21.767,5621.815,5621.734,-22.614,-0.119,0.361,-0.040,0.013,0.008,0.000,0.000,0.000,0.002,0.703,-0.005,0.711,0.0000000,0.0000000,5619.836,0.000,0.000,0.000,0,00:00:00,0,0.000,0.000,0.000,0.000,0.000,0.000,0.000,0.000,0.000,0.000,0.000,0.000,0.000,0.000
40.114,3,0,-0.915,-0.426,5638.435,-0.948,-0.543,217.511,-0.568,-0.243,-22.609,70.000,34.000,0.0117386,7600.834,7500.000,0.699,0.601,496.637,-21.767,5621.815,5621.734,-22.614,-0.119,0.361,-0.040,0.013,0.008,0.000,0.000,0.000,0.000,0.704,-0.003,0.710,0.0000000,0.0000000,5619.836,0.000,0.000,0.000,0,00:00:00,0,0.000,0.000,0.000,0.000,0.000,0.000,0.000,0.000,0.000,0.000,0.000,0.000,0.000,0.000
40.215,3,0,-0.916,-0.436,5661.095,-0.946,-0.542,215.801,-0.469,-0.223,-22.908,70.000,36.000,0.0117386,7557.115,7500.000,0.686,0.526,493.654,-22.055,5666.136,5666.055,-22.912,-0.130,0.260,-0.014,0.000,0.003,0.000,0.000,0.000,0.000,0.704,-0.003,0.710,0.0000000,0.0000000,5663.886,0.000,0.000,0.000,0,00:00:00,0,0.000,0.000,0.000,0.000,0.000,0.000,0.000,0.000,0.000,0.000,0.000,0.000,0.000,0.000
40.316,3,0,-0.917,-0.445,5683.533,-0.949,-0.539,214.060,-0.504,-0.196,-22.846,70.000,38.000,0.0117386,7554.656,7500.000,0.681,0.525,492.170,-22.199,5688.267,5688.186,-22.850,-0.103,0.304,-0.000,0.003,0.005,0.000,0.000,0.000,0.000,0.704,-0.003,0.710,0.0000000,0.0000000,5685.567,0.000,0.000,0.000,0,00:00:00,0,0.000,0.000,0.000,0.000,0.000,0.000,0.000,0.000,0.000,0.000,0.000,0.000,0.000,0.000
40.417,3,0,-0.918,-0.452,5705.607,-0.953,-0.538,212.164,-0.525,-0.232,-22.996,70.000,40.000,0.0117386,7551.416,7500.000,0.675,0.505,490.770,-22.338,5709.194,5709.113,-23.000,-0.083,0.360,0.024,0.016,-0.019,0.000,0.000,0.000,0.000,0.705,-0.004,0.710,0.0000000,0.0000000,5707.019,0.000,0.000,0.000,0,00:00:00,0,0.000,0.000,0.000,0.000,0.000,0.000,0.000,0.000,0.000,0.000,0.000,0.000,0.000,0.000
40.518,3,0,-0.918,-0.458,5727.468,-0.942,-0.520,210.270,-0.375,-0.066,-22.815,70.000,42.000,0.0117386,7545.378,7500.000,0.670,0.412,489.320,-22.478,5730.919,5730.838,-22.817,0.085,0.228,0.003,0.007,0.025,0.000,0.000,0.000,0.001,0.705,-0.003,0.709,0.0000000,0.0000000,5728.240,0.000,0.000,0.000,0,00:00:00,0,0.000,0.000,0.000,0.000,0.000,0.000,0.000,0.000,0.000,0.000,0.000,0.000,0.000,0.000
40.619,3,0,-0.919,-0.463,5749.045,-0.953,-0.525,208.281,-0.594,-0.291,-23.075,70.000,44.000,0.0117386,7541.694,7500.000,0.664,0.371,487.921,-22.615,5751.931,5751.850,-23.081,-0.146,0.362,-0.005,-0.036,-0.027,0.000,0.000,0.000,0.000,0.704,-0.004,0.711,0.0000000,0.0000000,5749.231,0.000,0.000,0.000,0,00:00:00,0,0.000,0.000,0.000,0.000,0.000,0.000,0.000,0.000,0.000,0.000,0.000,0.000,0.000,0.000
40.720,3,0,-0.921,-0.467,5770.289,-0.977,-0.502,206.206,-0.719,-0.015,-22.948,70.000,46.000,0.0117386,7534.016,7500.000,0.658,0.579,486.564,-22.750,5772.361,5772.280,-22.955,0.053,0.437,-0.032,-0.022,0.041,0.000,0.000,0.000,0.001,0.703,-0.001,0.711,0.0000000,0.0000000,5769.992,0.000,0.000,0.000,0,00:00:00,0,0.000,0.000,0.000,0.000,0.000,0.000,0.000,0.000,0.000,0.000,0.000,0.000,0.000,0.000
40.821,3,0,-0.925,-0.468,5791.290,-0.997,-0.485,204.096,-0.689,-0.081,-23.057,70.000,48.000,0.0117386,7524.608,7500.000,0.651,0.704,485.185,-22.887,5793.163,5793.082,-23.063,-0.055,0.454,-0.018,0.021,0.014,0.000,0.000,0.000,0.000,0.703,-0.000,0.711,0.0000000,0.0000000,5790.523,0.000,0.000,0.000,0,00:00:00,0,0.000,0.000,0.000,0.000,0.000,0.000,0.000,0.000,0.000,0.000,0.000,0.000,0.000,0.000
40.922,3,0,-0.931,-0.468,5812.025,-1.024,-0.477,201.965,-0.758,-0.160,-22.849,70.000,50.000,0.0117386,7514.475,7500.000,0.645,0.584,483.836,-23.018,5813.565,5813.484,-22.858,-0.126,0.449,0.004,-0.033,0.002,0.000,0.000,0.000,0.001,0.702,-0.000,0.712,0.0000000,0.0000000,5810.825,0.000,0.000,0.000,0,00:00:00,0,0.000,0.000,0.000,0.000,0.000,0.000,0.000,0.000,0.000,0.000,0.000,0.000,0.000,0.000
41.023,3,0,-0.937,-0.466,5832.460,-1.022,-0.447,199.838,-0.465,0.052,-22.164,35.000,48.000,0.0117386,7506.563,7500.000,0.638,0.775,482.524,-23.151,5833.455,5833.374,-22.168,0.084,0.250,-0.000,0.038,0.017,0.000,0.000,0.000,0.001,0.704,0.000,0.711,0.0000000,0.0000000,5830.906,0.000,0.000,0.000,0,00:00:00,0,0.000,0.000,0.000,0.000,0.000,0.000,0.000,0.000,0.000,0.000,0.000,0.000,0.000,0.000
41.124,3,0,-0.943,-0.462,5852.619,-1.042,-0.416,197.707,-0.702,0.056,-21.742,35.000,46.000,0.0117386,7496.173,7500.000,0.632,0.556,481.222,-23.280,5853.231,5853.150,-21.749,0.092,0.435,0.002,-0.026,0.001,0.000,0.000,0.000,0.001,0.703,0.000,0.711,0.0000000,0.0000000,5850.771,0.000,0.000,0.000,0,00:00:00,0,0.000,0.000,0.000,0.000,0.000,0.000,0.000,0.000,0.000,0.000,0.000,0.000,0.000,0.000
41.225,3,0,-0.951,-0.456,5872.558,-1.058,-0.390,195.627,-0.652,0.024,-21.173,0.000,44.000,0.0117386,7485.074,7500.000,0.625,0.703,479.915,-23.408,5873.125,5873.044,-21.179,0.058,0.382,-0.001,-0.005,0.014,0.000,0.000,0.000,0.002,0.703,0.001,0.712,0.0000000,0.0000000,5870.428,0.000,0.000,0.000,0,00:00:00,0,0.000,0.000,0.000,0.000,0.000,0.000,0.000,0.000,0.000,0.000,0.000,0.000,0.000,0.000
41.326,3,0,-0.959,-0.448,5892.202,-1.058,-0.376,193.509,-0.510,-0.102,-20.919,0.000,42.000,0.0117386,7477.437,7500.000,0.619,0.732,478.662,-23.536,5892.234,5892.153,-20.924,-0.006,0.193,0.030,-0.024,-0.006,0.000,0.000,0.000,0.003,0.702,-0.001,0.712,0.0000000,0.0000000,5889.880,0.000,0.000,0.000,0,00:00:00,0,0.000,0.000,0.000,0.000,0.000,0.000,0.000,0.000,0.000,0.000,0.000,0.000,0.000,0.000
41.427,3,0,-0.966,-0.440,5911.589,-1.066,-0.371,191.436,-0.583,-0.178,-20.117,0.000,40.000,0.0117386,7466.522,7500.000,0.612,0.869,477.413,-23.663,5911.337,5911.256,-20.124,0.000,0.284,0.043,0.003,0.023,0.000,0.000,0.000,0.005,0.702,-0.001,0.712,0.0000000,0.0000000,5909.133,0.000,0.000,0.000,0,00:00:00,0,0.000,0.000,0.000,0.000,0.000,0.000,0.000,0.000,0.000,0.000,0.000,0.000,0.000,0.000
41.528,3,0,-0.975,-0.432,5930.748,-1.107,-0.357,189.394,-0.919,-0.089,-19.653,0.000,38.000,0.0117386,7456.044,7500.000,0.606,0.848,476.171,-23.789,5930.359,5930.278,-19.666,0.064,0.554,-0.008,-0.037,0.028,0.000,0.000,0.000,0.006,0.701,0.000,0.714,0.0000000,0.0000000,5928.193,0.000,0.000,0.000,0,00:00:00,0,0.000,0.000,0.000,0.000,0.000,0.000,0.000,0.000,0.000,0.000,0.000,0.000,0.000,0.000
41.629,3,0,-0.986,-0.424,5949.766,-1.135,-0.350,187.454,-0.796,-0.154,-19.108,0.000,36.000,0.0117386,7448.231,7500.000,0.599,1.061,474.907,-23.909,5949.766,5949.685,-19.121,-0.038,0.380,-0.019,-0.032,-0.029,0.000,0.000,0.000,0.004,0.699,-0.000,0.715,0.0000000,0.0000000,5947.063,0.000,0.000,0.000,0,00:00:00,0,0.000,0.000,0.000,0.000,0.000,0.000,0.000,0.000,0.000,0.000,0.000,0.000,0.000,0.000
41.730,3,0,-0.997,-0.415,5968.572,-1.131,-0.335,185.556,-0.485,-0.074,-18.559,0.000,34.000,0.0117386,7439.627,7500.000,0.593,1.244,473.692,-24.032,5968.457,5968.376,-18.565,0.097,0.128,0.030,0.025,-0.034,0.000,0.000,0.000,0.004,0.700,-0.003,0.714,0.0000000,0.0000000,5965.750,0.000,0.000,0.000,0,00:00:00,0,0.000,0.000,0.000,0.000,0.000,0.000,0.000,0.000,0.000,0.000,0.000,0.000,0.000,0.000
41.831,3,0,-1.008,-0.407,5987.177,-1.159,-0.337,183.697,-0.806,-0.228,-18.077,0.000,32.000,0.0117386,7431.669,7500.000,0.588,1.103,472.490,-24.154,5986.986,5986.905,-18.091,-0.011,0.458,0.029,0.001,0.010,0.000,0.000,0.000,0.005,0.700,-0.003,0.714,0.0000000,0.0000000,5984.257,0.000,0.000,0.000,0,00:00:00,0,0.000,0.000,0.000,0.000,0.000,0.000,0.000,0.000,0.000,0.000,0.000,0.000,0.000,0.000
41.932,3,0,-1.020,-0.399,6005.568,-1.171,-0.332,181.866,-0.660,-0.160,-17.595,0.000,30.000,0.0117386,7423.841,7500.000,0.582,1.099,471.311,-24.275,6005.202,6005.121,-17.606,0.021,0.299,-0.017,-0.013,0.014,0.000,0.000,0.000,0.005,0.700,-0.002,0.714,0.0000000,0.0000000,6002.589,0.000,0.000,0.000,0,00:00:00,0,0.000,0.000,0.000,0.000,0.000,0.000,0.000,0.000,0.000,0.000,0.000,0.000,0.000,0.000
42.033,3,0,-1.033,-0.392,6023.768,-1.196,-0.327,180.048,-0.791,-0.162,-17.410,0.000,28.000,0.0117386,7419.143,7500.000,0.576,1.171,470.138,-24.392,6023.363,6023.282,-17.422,0.014,0.483,-0.002,0.028,-0.009,0.000,0.000,0.000,0.005,0.701,-0.002,0.713,0.0000000,0.0000000,6020.751,0.000,0.000,0.000,0,00:00:00,0,0.000,0.000,0.000,0.000,0.000,0.000,0.000,0.000,0.000,0.000,0.000,0.000,0.000,0.000
42.134,3,0,-1.044,-0.386,6041.770,-1.171,-0.337,178.258,-0.302,-0.303,-17.008,0.000,26.000,0.0117386,7412.168,7500.000,0.571,1.013,468.984,-24.510,6041.261,6041.180,-17.013,-0.137,-0.006,-0.004,-0.003,0.023,0.000,0.000,0.000,0.006,0.701,-0.001,0.713,0.0000000,0.0000000,6038.748,0.000,0.000,0.000,0,00:00:00,0,0.000,0.000,0.000,0.000,0.000,0.000,0.000,0.000,0.000,0.000,0.000,0.000,0.000,0.000
42.235,3,0,-1.054,-0.379,6059.581,-1.180,-0.310,176.522,-0.643,0.069,-16.389,0.000,24.000,0.0117386,7405.141,7500.000,0.565,1.030,467.843,-24.630,6058.994,6058.913,-16.396,0.244,0.327,0.011,-0.013,0.001,0.000,0.000,0.000,0.006,0.700,-0.002,0.714,0.0000000,0.0000000,6056.582,0.000,0.000,0.000,0,00:00:00,0,0.000,0.000,0.000,0.000,0.000,0.000,0.000,0.000,0.000,0.000,0.000,0.000,0.000,0.000
42.336,3,0,-1.063,-0.372,6077.274,-1.184,-0.303,174.873,-0.598,-0.126,-15.913,0.000,22.000,0.0117386,7401.227,7500.000,0.560,1.106,466.686,-24.747,6077.015,6076.934,-15.921,0.078,0.334,0.021,0.028,-0.009,0.000,0.000,0.000,0.006,0.701,-0.003,0.713,0.0000000,0.0000000,6074.259,0.000,0.000,0.000,0,00:00:00,0,0.000,0.000,0.000,0.000,0.000,0.000,0.000,0.000,0.000,0.000,0.000,0.000,0.000,0.000
42.437,3,0,-1.072,-0.364,6092.343,-1.183,-0.300,171.389,-0.553,-0.160,-15.914,0.000,20.000,0.0117386,7396.534,7500.000,0.555,0.946,466.686,-24.747,6077.015,6076.934,-15.921,0.078,0.334,0.021,0.028,-0.009,0.000,0.000,0.000,0.007,0.702,-0.004,0.712,0.0000000,0.0000000,6074.259,0.000,0.000,0.000,0,00:00:00,0,0.000,0.000,0.000,0.000,0.000,0.000,0.000,0.000,0.000,0.000,0.000,0.000,0.000,0.000
42.538,3,0,-1.078,-0.358,6109.860,-1.158,-0.316,170.066,-0.317,-0.352,-15.199,0.000,18.000,0.0117386,7363.513,7500.000,0.543,0.787,464.466,-24.971,6111.683,6111.602,-15.204,-0.174,0.151,-0.033,0.029,0.007,0.000,0.000,0.000,0.006,0.703,-0.002,0.711,0.0000000,0.0000000,6109.155,0.000,0.000,0.000,0,00:00:00,0,0.000,0.000,0.000,0.000,0.000,0.000,0.000,0.000,0.000,0.000,0.000,0.000,0.000,0.000
42.639,3,0,-1.082,-0.354,6127.236,-1.142,-0.322,168.791,-0.406,-0.241,-14.656,0.000,16.000,0.0117386,7365.679,7500.000,0.540,0.620,463.360,-25.087,6129.002,6128.921,-14.662,-0.095,0.191,-0.017,-0.038,0.003,0.000,0.000,0.000,0.005,0.702,-0.002,0.712,0.0000000,0.0000000,6126.382,0.000,0.000,0.000,0,00:00:00,0,0.000,0.000,0.000,0.000,0.000,0.000,0.000,0.000,0.000,0.000,0.000,0.000,0.000,0.000
42.740,3,0,-1.085,-0.351,6144.466,-1.144,-0.333,167.545,-0.599,-0.296,-14.219,0.000,14.000,0.0117386,7365.892,7500.000,0.536,0.837,462.270,-25.196,6146.105,6146.024,-14.229,-0.101,0.390,0.038,-0.000,0.005,0.000,0.000,0.000,0.007,0.702,-0.003,0.712,0.0000000,0.0000000,6143.467,0.000,0.000,0.000,0,00:00:00,0,0.000,0.000,0.000,0.000,0.000,0.000,0.000,0.000,0.000,0.000,0.000,0.000,0.000,0.000
42.841,3,0,-1.088,-0.348,6161.558,-1.148,-0.334,166.296,-0.610,-0.191,-14.158,0.000,12.000,0.0117386,7366.437,7500.000,0.532,0.836,461.188,-25.309,6163.127,6163.046,-14.168,-0.000,0.385,-0.003,-0.012,-0.012,0.000,0.000,0.000,0.006,0.701,-0.003,0.713,0.0000000,0.0000000,6160.413,0.000,0.000,0.000,0,00:00:00,0,0.000,0.000,0.000,0.000,0.000,0.000,0.000,0.000,0.000,0.000,0.000,0.000,0.000,0.000
42.942,3,0,-1.091,-0.347,6178.491,-1.137,-0.354,165.057,-0.466,-0.384,-13.803,0.000,10.000,0.0117386,7366.725,7500.000,0.528,0.907,460.126,-25.419,6179.847,6179.766,-13.811,-0.214,0.315,-0.012,0.050,-0.015,0.000,0.000,0.000,0.005,0.703,-0.003,0.711,0.0000000,0.0000000,6177.223,0.000,0.000,0.000,0,00:00:00,0,0.000,0.000,0.000,0.000,0.000,0.000,0.000,0.000,0.000,0.000,0.000,0.000,0.000,0.000
43.043,3,0,-1.092,-0.347,6195.236,-1.128,-0.360,163.793,-0.480,-0.238,-13.571,0.000,8.000,0.0117386,7367.168,7500.000,0.524,0.622,459.091,-25.525,6196.194,6196.113,-13.578,-0.060,0.337,0.008,0.004,0.016,0.000,0.000,0.000,0.006,0.703,-0.003,0.711,0.0000000,0.0000000,6193.901,0.000,0.000,0.000,0,00:00:00,0,0.000,0.000,0.000,0.000,0.000,0.000,0.000,0.000,0.000,0.000,0.000,0.000,0.000,0.000
43.144,3,0,-1.093,-0.347,6211.822,-1.125,-0.345,162.562,-0.550,-0.039,-12.998,0.000,6.000,0.0117386,7369.579,7500.000,0.520,0.601,458.054,-25.635,6212.576,6212.495,-13.002,0.166,0.415,0.027,0.001,-0.006,0.000,0.000,0.000,0.007,0.703,-0.004,0.711,0.0000000,0.0000000,6210.450,0.000,0.000,0.000,0,00:00:00,0,0.000,0.000,0.000,0.000,0.000,0.000,0.000,0.000,0.000,0.000,0.000,0.000,0.000,0.000
43.245,3,0,-1.093,-0.347,6228.379,-1.114,-0.358,161.431,-0.461,-0.304,-12.708,0.000,4.000,0.0117386,7370.027,7500.000,0.516,0.594,456.973,-25.742,6229.707,6229.626,-12.715,-0.082,0.338,0.015,0.007,-0.031,0.000,0.000,0.000,0.006,0.704,-0.006,0.710,0.0000000,0.0000000,6226.873,0.000,0.000,0.000,0,00:00:00,0,0.000,0.000,0.000,0.000,0.000,0.000,0.000,0.000,0.000,0.000,0.000,0.000,0.000,0.000
43.346,3,0,-1.092,-0.347,6244.750,-1.106,-0.369,160.281,-0.492,-0.298,-12.344,0.000,2.000,0.0117386,7371.751,7500.000,0.513,0.554,455.970,-25.850,6245.625,6245.544,-12.352,-0.084,0.355,-0.000,-0.014,0.027,0.000,0.000,0.000,0.007,0.703,-0.005,0.711,0.0000000,0.0000000,6243.173,0.000,0.000,0.000,0,00:00:00,0,0.000,0.000,0.000,0.000,0.000,0.000,0.000,0.000,0.000,0.000,0.000,0.000,0.000,0.000
43.447,3,0,-1.090,-0.348,6261.013,-1.102,-0.368,159.158,-0.537,-0.173,-12.122,0.000,-0.000,0.0117386,7372.960,7500.000,0.509,0.633,454.945,-25.957,6261.927,6261.846,-12.127,0.056,0.420,0.015,0.014,-0.012,0.000,0.000,0.000,0.008,0.704,-0.006,0.710,0.0000000,0.0000000,6259.354,0.000,0.000,0.000,0,00:00:00,0,0.000,0.000,0.000,0.000,0.000,0.000,0.000,0.000,0.000,0.000,0.000,0.000,0.000,0.000
43.548,3,0,-1.089,-0.350,6277.205,-1.115,-0.371,158.038,-0.703,-0.205,-12.430,0.000,2.000,0.0117386,7374.465,7500.000,0.506,0.551,453.910,-26.060,6278.397,6278.316,-12.440,0.012,0.549,-0.014,-0.027,-0.006,0.000,0.000,0.000,0.007,0.703,-0.006,0.711,0.0000000,0.0000000,6275.409,0.000,0.000,0.000,0,00:00:00,0,0.000,0.000,0.000,0.000,0.000,0.000,0.000,0.000,0.000,0.000,0.000,0.000,0.000,0.000
43.649,3,0,-1.089,-0.351,6293.269,-1.108,-0.383,156.941,-0.501,-0.304,-12.059,0.000,-0.000,0.0117386,7378.324,7500.000,0.502,0.708,452.911,-26.167,6294.349,6294.268,-12.067,-0.104,0.360,-0.011,0.007,-0.037,0.000,0.000,0.000,0.005,0.703,-0.007,0.711,0.0000000,0.0000000,6291.346,0.000,0.000,0.000,0,00:00:00,0,0.000,0.000,0.000,0.000,0.000,0.000,0.000,0.000,0.000,0.000,0.000,0.000,0.000,0.000
43.750,3,0,-1.088,-0.354,6309.152,-1.100,-0.398,155.764,-0.498,-0.343,-12.364,0.000,2.000,0.0117386,7380.351,7500.000,0.499,0.669,451.943,-26.271,6309.822,6309.741,-12.373,-0.100,0.352,0.032,-0.001,0.019,0.000,0.000,0.000,0.007,0.703,-0.007,0.711,0.0000000,0.0000000,6307.158,0.000,0.000,0.000,0,00:00:00,0,0.000,0.000,0.000,0.000,0.000,0.000,0.000,0.000,0.000,0.000,0.000,0.000,0.000,0.000
43.851,3,0,-1.086,-0.357,6324.943,-1.099,-0.392,154.657,-0.557,-0.128,-11.839,0.000,-0.000,0.0117386,7381.094,7500.000,0.495,0.677,450.948,-26.373,6325.753,6325.672,-11.843,0.103,0.452,0.000,0.030,0.022,0.000,0.000,0.000,0.008,0.704,-0.006,0.710,0.0000000,0.0000000,6322.852,0.000,0.000,0.000,0,00:00:00,0,0.000,0.000,0.000,0.000,0.000,0.000,0.000,0.000,0.000,0.000,0.000,0.000,0.000,0.000
43.952,3,0,-1.084,-0.359,6340.562,-1.090,-0.394,153.461,-0.480,-0.204,-12.300,0.000,2.000,0.0117386,7382.703,7500.000,0.492,0.504,449.996,-26.471,6341.016,6340.935,-12.305,0.060,0.376,0.019,0.004,-0.004,0.000,0.000,0.000,0.008,0.704,-0.007,0.710,0.0000000,0.0000000,6338.423,0.000,0.000,0.000,0,00:00:00,0,0.000,0.000,0.000,0.000,0.000,0.000,0.000,0.000,0.000,0.000,0.000,0.000,0.000,0.000
44.053,3,0,-1.082,-0.362,6356.086,-1.077,-0.393,152.324,-0.444,-0.182,-11.882,0.000,-0.000,0.0117386,7382.874,7500.000,0.488,0.483,449.021,-26.574,6356.688,6356.607,-11.886,0.106,0.342,0.027,-0.001,0.002,0.000,0.000,0.000,0.009,0.704,-0.008,0.710,0.0000000,0.0000000,6353.877,0.000,0.000,0.000,0,00:00:00,0,0.000,0.000,0.000,0.000,0.000,0.000,0.000,0.000,0.000,0.000,0.000,0.000,0.000,0.000
44.154,3,0,-1.078,-0.364,6371.475,-1.059,-0.404,151.156,-0.389,-0.297,-12.055,0.000,2.000,0.0117386,7383.699,7500.000,0.485,0.490,448.072,-26.675,6371.959,6371.878,-12.063,0.002,0.241,0.004,-0.037,-0.035,0.000,0.000,0.000,0.008,0.703,-0.009,0.711,0.0000000,0.0000000,6369.208,0.000,0.000,0.000,0,00:00:00,0,0.000,0.000,0.000,0.000,0.000,0.000,0.000,0.000,0.000,0.000,0.000,0.000,0.000,0.000
44.255,3,0,-1.073,-0.368,6386.727,-1.042,-0.434,150.004,-0.395,-0.496,-11.738,0.000,-0.000,0.0117386,7386.703,7500.000,0.481,0.702,447.134,-26.775,6387.090,6387.009,-11.751,-0.234,0.229,-0.024,-0.019,-0.011,0.000,0.000,0.000,0.007,0.702,-0.009,0.712,0.0000000,0.0000000,6384.422,0.000,0.000,0.000,0,00:00:00,0,0.000,0.000,0.000,0.000,0.000,0.000,0.000,0.000,0.000,0.000,0.000,0.000,0.000,0.000
44.356,3,0,-1.067,-0.374,6401.902,-1.028,-0.444,148.855,-0.422,-0.296,-12.015,0.000,2.000,0.0117386,7387.427,7500.000,0.478,0.812,446.179,-26.875,6402.510,6402.429,-12.023,-0.046,0.247,-0.016,-0.004,-0.012,0.000,0.000,0.000,0.006,0.702,-0.009,0.712,0.0000000,0.0000000,6399.516,0.000,0.000,0.000,0,00:00:00,0,0.000,0.000,0.000,0.000,0.000,0.000,0.000,0.000,0.000,0.000,0.000,0.000,0.000,0.000
44.457,3,0,-1.061,-0.381,6416.933,-1.028,-0.467,147.714,-0.560,-0.424,-11.715,0.000,-0.000,0.0117386,7388.112,7500.000,0.474,0.837,445.261,-26.970,6417.359,6417.278,-11.727,-0.189,0.410,-0.008,0.021,0.005,0.000,0.000,0.000,0.006,0.703,-0.008,0.712,0.0000000,0.0000000,6414.492,0.000,0.000,0.000,0,00:00:00,0,0.000,0.000,0.000,0.000,0.000,0.000,0.000,0.000,0.000,0.000,0.000,0.000,0.000,0.000
44.558,3,0,-1.054,-0.389,6431.810,-1.006,-0.496,146.515,-0.337,-0.489,-12.004,0.000,2.000,0.0117386,7388.794,7500.000,0.471,0.738,444.358,-27.071,6432.006,6431.925,-12.015,-0.248,0.205,0.001,0.016,-0.018,0.000,0.000,0.000,0.005,0.703,-0.009,0.711,0.0000000,0.0000000,6429.348,0.000,0.000,0.000,0,00:00:00,0,0.000,0.000,0.000,0.000,0.000,0.000,0.000,0.000,0.000,0.000,0.000,0.000,0.000,0.000
44.659,3,0,-1.047,-0.398,6446.569,-0.989,-0.501,145.338,-0.381,-0.264,-11.817,0.000,-0.000,0.0117386,7388.553,7500.000,0.467,0.645,443.447,-27.166,6446.781,6446.700,-11.824,-0.028,0.220,-0.002,-0.024,0.001,0.000,0.000,0.000,0.005,0.702,-0.009,0.712,0.0000000,0.0000000,6444.088,0.000,0.000,0.000,0,00:00:00,0,0.000,0.000,0.000,0.000,0.000,0.000,0.000,0.000,0.000,0.000,0.000,0.000,0.000,0.000
44.760,3,0,-1.039,-0.406,6461.196,-0.993,-0.501,144.159,-0.587,-0.213,-11.737,0.000,2.000,0.0117386,7391.108,7500.000,0.463,0.783,442.553,-27.260,6461.329,6461.248,-11.744,0.055,0.451,0.028,0.022,0.000,0.000,0.000,0.000,0.006,0.703,-0.010,0.711,0.0000000,0.0000000,6458.709,0.000,0.000,0.000,0,00:00:00,0,0.000,0.000,0.000,0.000,0.000,0.000,0.000,0.000,0.000,0.000,0.000,0.000,0.000,0.000
44.861,3,0,-1.033,-0.414,6475.675,-1.002,-0.498,142.976,-0.630,-0.190,-11.538,0.000,-0.000,0.0117386,7391.306,7500.000,0.459,0.671,441.676,-27.357,6475.614,6475.533,-11.548,0.074,0.449,0.001,-0.012,0.024,0.000,0.000,0.000,0.007,0.701,-0.009,0.713,0.0000000,0.0000000,6473.214,0.000,0.000,0.000,0,00:00:00,0,0.000,0.000,0.000,0.000,0.000,0.000,0.000,0.000,0.000,0.000,0.000,0.000,0.000,0.000
44.962,3,0,-1.027,-0.421,6490.118,-0.985,-0.510,141.819,-0.368,-0.337,-11.929,0.000,2.000,0.0117386,7391.132,7500.000,0.456,0.900,440.757,-27.450,6490.591,6490.510,-11.939,-0.044,0.160,0.019,-0.016,0.043,0.000,0.000,0.000,0.010,0.701,-0.008,0.713,0.0000000,0.0000000,6487.601,0.000,0.000,0.000,0,00:00:00,0,0.000,0.000,0.000,0.000,0.000,0.000,0.000,0.000,0.000,0.000,0.000,0.000,0.000,0.000
45.063,3,0,-1.022,-0.429,6504.397,-1.013,-0.523,140.656,-0.819,-0.360,-11.615,0.000,-0.000,0.0117386,7391.269,7500.000,0.452,0.994,439.902,-27.542,6504.564,6504.483,-11.635,-0.070,0.566,0.005,-0.025,0.003,0.000,0.000,0.000,0.010,0.699,-0.008,0.715,0.0000000,0.0000000,6501.872,0.000,0.000,0.000,0,00:00:00,0,0.000,0.000,0.000,0.000,0.000,0.000,0.000,0.000,0.000,0.000,0.000,0.000,0.000,0.000
45.164,3,0,-1.019,-0.437,6518.566,-1.024,-0.531,139.483,-0.644,-0.306,-11.794,0.000,2.000,0.0117386,7391.042,7500.000,0.449,1.242,439.033,-27.636,6518.789,6518.708,-11.809,-0.004,0.379,0.005,-0.007,-0.002,0.000,0.000,0.000,0.010,0.699,-0.008,0.715,0.0000000,0.0000000,6516.025,0.000,0.000,0.000,0,00:00:00,0,0.000,0.000,0.000,0.000,0.000,0.000,0.000,0.000,0.000,0.000,0.000,0.000,0.000,0.000
45.265,3,0,-1.017,-0.446,6532.645,-1.024,-0.552,138.370,-0.534,-0.439,-11.378,0.000,-0.000,0.0117386,7393.446,7500.000,0.445,1.285,438.164,-27.728,6533.031,6532.950,-11.395,-0.143,0.261,0.003,-0.019,-0.015,0.000,0.000,0.000,0.008,0.698,-0.010,0.715,0.0000000,0.0000000,6530.065,0.000,0.000,0.000,0,00:00:00,0,0.000,0.000,0.000,0.000,0.000,0.000,0.000,0.000,0.000,0.000,0.000,0.000,0.000,0.000
45.366,3,0,-1.016,-0.455,6546.527,-1.038,-0.558,137.159,-0.673,-0.302,-11.746,0.000,2.000,0.0117386,7394.159,7500.000,0.441,1.380,437.350,-27.821,6546.402,6546.321,-11.763,-0.001,0.375,-0.002,-0.013,0.028,0.000,0.000,0.000,0.009,0.698,-0.009,0.716,0.0000000,0.0000000,6543.987,0.000,0.000,0.000,0,00:00:00,0,0.000,0.000,0.000,0.000,0.000,0.000,0.000,0.000,0.000,0.000,0.000,0.000,0.000,0.000
45.467,3,0,-1.016,-0.463,6558.359,-1.053,-0.564,134.507,-0.689,-0.298,-11.745,0.000,-0.000,0.0117386,7393.466,7500.000,0.438,1.453,437.350,-27.821,6546.402,6546.321,-11.763,-0.001,0.375,-0.002,-0.013,0.028,0.000,0.000,0.000,0.010,0.698,-0.008,0.716,0.0000000,0.0000000,6543.987,0.000,0.000,0.000,0,00:00:00,0,0.000,0.000,0.000,0.000,0.000,0.000,0.000,0.000,0.000,0.000,0.000,0.000,0.000,0.000
45.568,3,0,-1.018,-0.472,6568.301,-1.071,-0.568,130.644,-0.705,-0.294,-11.744,0.000,2.000,0.0117386,7373.227,7500.000,0.429,1.526,437.350,-27.821,6546.402,6546.321,-11.763,-0.001,0.375,-0.002,-0.013,0.028,0.000,0.000,0.000,0.011,0.697,-0.007,0.717,0.0000000,0.0000000,6543.987,0.000,0.000,0.000,0,00:00:00,0,0.000,0.000,0.000,0.000,0.000,0.000,0.000,0.000,0.000,0.000,0.000,0.000,0.000,0.000
45.669,3,0,-1.022,-0.479,6576.515,-1.089,-0.572,125.781,-0.721,-0.289,-11.743,0.000,-0.000,0.0117386,7340.354,7500.000,0.417,1.599,437.350,-27.821,6546.402,6546.321,-11.763,-0.001,0.375,-0.002,-0.013,0.028,0.000,0.000,0.000,0.012,0.697,-0.006,0.717,0.0000000,0.0000000,6543.987,0.000,0.000,0.000,0,00:00:00,0,0.000,0.000,0.000,0.000,0.000,0.000,0.000,0.000,0.000,0.000,0.000,0.000,0.000,0.000
45.770,3,0,-1.026,-0.487,6583.155,-1.109,-0.575,120.109,-0.736,-0.285,-11.743,0.000,2.000,0.0117386,7295.071,7500.000,0.401,1.673,437.350,-27.821,6546.402,6546.321,-11.763,-0.001,0.375,-0.002,-0.013,0.028,0.000,0.000,0.000,0.013,0.696,-0.005,0.718,0.0000000,0.0000000,6543.987,0.000,0.000,0.000,0,00:00:00,0,0.000,0.000,0.000,0.000,0.000,0.000,0.000,0.000,0.000,0.000,0.000,0.000,0.000,0.000
45.871,3,0,-1.032,-0.494,6588.373,-1.130,-0.577,113.803,-0.752,-0.280,-11.742,0.000,-0.000,0.0117386,7240.830,7500.000,0.383,1.746,437.350,-27.821,6546.402,6546.321,-11.763,-0.001,0.375,-0.002,-0.013,0.028,0.000,0.000,0.000,0.014,0.696,-0.004,0.718,0.0000000,0.0000000,6543.987,0.000,0.000,0.000,0,00:00:00,0,0.000,0.000,0.000,0.000,0.000,0.000,0.000,0.000,0.000,0.000,0.000,0.000,0.000,0.000
45.972,3,0,-1.040,-0.500,6603.714,-1.162,-0.575,115.560,-0.867,-0.245,-11.496,0.000,2.000,0.0117386,7180.611,7500.000,0.363,1.818,432.421,-28.351,6627.756,6627.675,-11.521,0.025,0.482,-0.002,-0.002,0.010,0.000,0.000,0.000,0.013,0.695,-0.004,0.719,0.0000000,0.0000000,6625.113,0.000,0.000,0.000,0,00:00:00,0,0.000,0.000,0.000,0.000,0.000,0.000,0.000,0.000,0.000,0.000,0.000,0.000,0.000,0.000
46.073,3,0,-1.051,-0.505,6618.921,-1.194,-0.564,117.093,-0.866,-0.152,-11.407,0.000,-0.000,0.0117386,7214.600,7500.000,0.369,1.899,431.619,-28.437,6641.056,6640.975,-11.430,0.124,0.494,0.008,0.030,0.007,0.000,0.000,0.000,0.014,0.695,-0.004,0.718,0.0000000,0.0000000,6638.235,0.000,0.000,0.000,0,00:00:00,0,0.000,0.000,0.000,0.000,0.000,0.000,0.000,0.000,0.000,0.000,0.000,0.000,0.000,0.000
46.174,3,0,-1.062,-0.509,6634.007,-1.214,-0.544,118.424,-0.761,-0.076,-11.362,0.000,2.000,0.0117386,7246.155,7500.000,0.374,1.853,430.814,-28.521,6654.439,6654.358,-11.380,0.173,0.368,-0.025,-0.025,-0.002,0.000,0.000,0.000,0.013,0.695,-0.003,0.719,0.0000000,0.0000000,6651.243,0.000,0.000,0.000,0,00:00:00,0,0.000,0.000,0.000,0.000,0.000,0.000,0.000,0.000,0.000,0.000,0.000,0.000,0.000,0.000
46.275,3,0,-1.074,-0.510,6648.814,-1.221,-0.523,119.470,-0.627,-0.059,-11.116,0.000,-0.000,0.0117386,7273.214,7500.000,0.378,1.972,430.077,-28.605,6666.706,6666.625,-11.129,0.170,0.277,-0.014,0.000,0.013,0.000,0.000,0.000,0.013,0.696,-0.002,0.718,0.0000000,0.0000000,6664.140,0.000,0.000,0.000,0,00:00:00,0,0.000,0.000,0.000,0.000,0.000,0.000,0.000,0.000,0.000,0.000,0.000,0.000,0.000,0.000
46.376,3,0,-1.086,-0.509,6663.447,-1.243,-0.509,120.287,-0.793,-0.128,-11.332,0.000,2.000,0.0117386,7299.756,7500.000,0.382,1.794,429.301,-28.689,6679.632,6679.551,-11.353,0.103,0.406,-0.001,-0.022,0.002,0.000,0.000,0.000,0.012,0.695,-0.003,0.719,0.0000000,0.0000000,6676.922,0.000,0.000,0.000,0,00:00:00,0,0.000,0.000,0.000,0.000,0.000,0.000,0.000,0.000,0.000,0.000,0.000,0.000,0.000,0.000
46.477,3,0,-1.098,-0.508,6677.861,-1.257,-0.509,120.891,-0.712,-0.270,-11.190,0.000,-0.000,0.0117386,7323.327,7500.000,0.384,1.945,428.549,-28.774,6692.185,6692.104,-11.211,-0.046,0.329,-0.004,-0.018,0.021,0.000,0.000,0.000,0.011,0.695,-0.004,0.719,0.0000000,0.0000000,6689.594,0.000,0.000,0.000,0,00:00:00,0,0.000,0.000,0.000,0.000,0.000,0.000,0.000,0.000,0.000,0.000,0.000,0.000,0.000,0.000
46.578,3,0,-1.111,-0.507,6690.307,-1.270,-0.509,119.980,-0.712,-0.266,-11.190,0.000,2.000,0.0117386,7344.460,7500.000,0.386,1.946,428.549,-28.774,6692.185,6692.104,-11.211,-0.046,0.329,-0.004,-0.018,0.021,0.000,0.000,0.000,0.010,0.695,-0.004,0.719,0.0000000,0.0000000,6689.594,0.000,0.000,0.000,0,00:00:00,0,0.000,0.000,0.000,0.000,0.000,0.000,0.000,0.000,0.000,0.000,0.000,0.000,0.000,0.000
46.679,3,0,-1.123,-0.506,6704.498,-1.274,-0.513,120.460,-0.631,-0.306,-10.996,0.000,-0.000,0.0117386,7346.946,7500.000,0.384,1.947,427.027,-28.936,6717.641,6717.560,-11.015,-0.081,0.280,0.006,-0.018,0.009,0.000,0.000,0.000,0.008,0.696,-0.006,0.718,0.0000000,0.0000000,6714.599,0.000,0.000,0.000,0,00:00:00,0,0.000,0.000,0.000,0.000,0.000,0.000,0.000,0.000,0.000,0.000,0.000,0.000,0.000,0.000
46.780,3,0,-1.134,-0.505,6718.446,-1.280,-0.505,120.698,-0.655,-0.182,-11.247,0.000,2.000,0.0117386,7366.593,7500.000,0.385,1.822,426.301,-29.020,6729.814,6729.733,-11.263,0.052,0.326,0.002,0.025,-0.022,0.000,0.000,0.000,0.008,0.697,-0.007,0.717,0.0000000,0.0000000,6726.933,0.000,0.000,0.000,0,00:00:00,0,0.000,0.000,0.000,0.000,0.000,0.000,0.000,0.000,0.000,0.000,0.000,0.000,0.000,0.000
46.881,3,0,-1.146,-0.504,6732.204,-1.298,-0.494,120.807,-0.786,-0.156,-10.924,0.000,-0.000,0.0117386,7383.348,7500.000,0.386,1.674,425.560,-29.097,6742.240,6742.159,-10.944,0.049,0.443,-0.018,0.044,0.021,0.000,0.000,0.000,0.008,0.696,-0.005,0.718,0.0000000,0.0000000,6739.157,0.000,0.000,0.000,0,00:00:00,0,0.000,0.000,0.000,0.000,0.000,0.000,0.000,0.000,0.000,0.000,0.000,0.000,0.000,0.000
46.982,3,0,-1.158,-0.501,6745.706,-1.319,-0.482,120.687,-0.820,-0.147,-11.235,0.000,2.000,0.0117386,7398.285,7500.000,0.386,1.795,424.854,-29.173,6754.122,6754.041,-11.257,0.062,0.438,-0.004,-0.009,-0.021,0.000,0.000,0.000,0.007,0.695,-0.006,0.719,0.0000000,0.0000000,6751.270,0.000,0.000,0.000,0,00:00:00,0,0.000,0.000,0.000,0.000,0.000,0.000,0.000,0.000,0.000,0.000,0.000,0.000,0.000,0.000
47.083,3,0,-1.172,-0.498,6758.996,-1.352,-0.481,120.442,-0.935,-0.249,-10.986,0.000,-0.000,0.0117386,7410.419,7500.000,0.386,1.946,424.137,-29.258,6766.174,6766.093,-11.017,-0.039,0.506,0.004,-0.009,-0.008,0.000,0.000,0.000,0.007,0.693,-0.007,0.721,0.0000000,0.0000000,6763.271,0.000,0.000,0.000,0,00:00:00,0,0.000,0.000,0.000,0.000,0.000,0.000,0.000,0.000,0.000,0.000,0.000,0.000,0.000,0.000
47.184,3,0,-1.185,-0.495,6772.101,-1.347,-0.466,120.067,-0.575,-0.116,-11.082,0.000,2.000,0.0117386,7420.818,7500.000,0.385,2.236,423.418,-29.334,6778.296,6778.215,-11.095,0.103,0.223,0.007,0.012,-0.004,0.000,0.000,0.000,0.008,0.696,-0.006,0.718,0.0000000,0.0000000,6775.162,0.000,0.000,0.000,0,00:00:00,0,0.000,0.000,0.000,0.000,0.000,0.000,0.000,0.000,0.000,0.000,0.000,0.000,0.000,0.000
47.285,3,0,-1.198,-0.491,6784.955,-1.362,-0.464,119.545,-0.781,-0.230,-10.965,0.000,-0.000,0.0117386,7430.226,7500.000,0.384,1.818,422.734,-29.411,6789.838,6789.757,-10.988,0.008,0.405,0.017,-0.007,-0.017,0.000,0.000,0.000,0.008,0.695,-0.007,0.719,0.0000000,0.0000000,6786.944,0.000,0.000,0.000,0,00:00:00,0,0.000,0.000,0.000,0.000,0.000,0.000,0.000,0.000,0.000,0.000,0.000,0.000,0.000,0.000
47.386,3,0,-1.212,-0.487,6797.639,-1.394,-0.457,118.919,-0.950,-0.188,-11.130,0.000,2.000,0.0117386,7437.272,7500.000,0.383,1.960,422.026,-29.485,6801.814,6801.733,-11.160,0.027,0.515,-0.022,-0.016,0.022,0.000,0.000,0.000,0.008,0.693,-0.006,0.721,0.0000000,0.0000000,6798.614,0.000,0.000,0.000,0,00:00:00,0,0.000,0.000,0.000,0.000,0.000,0.000,0.000,0.000,0.000,0.000,0.000,0.000,0.000,0.000
47.487,3,0,-1.225,-0.483,6810.108,-1.393,-0.459,118.194,-0.641,-0.281,-10.979,0.000,-0.000,0.0117386,7442.883,7500.000,0.381,2.233,421.344,-29.565,6813.344,6813.263,-10.998,-0.072,0.283,-0.003,0.020,0.007,0.000,0.000,0.000,0.006,0.695,-0.007,0.719,0.0000000,0.0000000,6810.175,0.000,0.000,0.000,0,00:00:00,0,0.000,0.000,0.000,0.000,0.000,0.000,0.000,0.000,0.000,0.000,0.000,0.000,0.000,0.000
47.588,3,0,-1.238,-0.479,6822.312,-1.399,-0.450,117.316,-0.708,-0.162,-11.086,0.000,2.000,0.0117386,7447.736,7500.000,0.378,1.867,420.693,-29.636,6824.377,6824.296,-11.104,0.050,0.361,0.001,0.020,-0.004,0.000,0.000,0.000,0.007,0.696,-0.007,0.718,0.0000000,0.0000000,6821.626,0.000,0.000,0.000,0,00:00:00,0,0.000,0.000,0.000,0.000,0.000,0.000,0.000,0.000,0.000,0.000,0.000,0.000,0.000,0.000
47.689,3,0,-1.249,-0.476,6834.293,-1.387,-0.452,116.353,-0.536,-0.269,-10.920,0.000,-0.000,0.0117386,7452.883,7500.000,0.376,1.790,420.036,-29.713,6835.521,6835.440,-10.934,-0.053,0.242,0.007,0.009,0.017,0.000,0.000,0.000,0.007,0.698,-0.007,0.717,0.0000000,0.0000000,6832.968,0.000,0.000,0.000,0,00:00:00,0,0.000,0.000,0.000,0.000,0.000,0.000,0.000,0.000,0.000,0.000,0.000,0.000,0.000,0.000
47.790,3,0,-1.259,-0.473,6846.137,-1.390,-0.456,115.376,-0.698,-0.285,-10.757,0.000,2.000,0.0117386,7454.863,7500.000,0.373,1.539,419.353,-29.786,6847.120,6847.039,-10.776,-0.066,0.379,0.004,0.027,0.006,0.000,0.000,0.000,0.006,0.697,-0.008,0.717,0.0000000,0.0000000,6844.200,0.000,0.000,0.000,0,00:00:00,0,0.000,0.000,0.000,0.000,0.000,0.000,0.000,0.000,0.000,0.000,0.000,0.000,0.000,0.000
47.891,3,0,-1.269,-0.470,6857.770,-1.414,-0.453,114.298,-0.904,-0.218,-10.939,0.000,-0.000,0.0117386,7456.285,7500.000,0.370,1.700,418.710,-29.859,6858.072,6857.991,-10.966,0.026,0.507,0.019,0.001,-0.031,0.000,0.000,0.000,0.007,0.694,-0.009,0.720,0.0000000,0.0000000,6855.325,0.000,0.000,0.000,0,00:00:00,0,0.000,0.000,0.000,0.000,0.000,0.000,0.000,0.000,0.000,0.000,0.000,0.000,0.000,0.000
47.992,3,0,-1.281,-0.467,6869.313,-1.443,-0.445,113.249,-0.956,-0.172,-10.794,0.000,2.000,0.0117386,7456.229,7500.000,0.366,2.080,418.025,-29.930,6869.727,6869.646,-10.825,0.034,0.512,-0.033,0.009,-0.021,0.000,0.000,0.000,0.006,0.692,-0.007,0.721,0.0000000,0.0000000,6866.339,0.000,0.000,0.000,0,00:00:00,0,0.000,0.000,0.000,0.000,0.000,0.000,0.000,0.000,0.000,0.000,0.000,0.000,0.000,0.000
48.093,3,0,-1.294,-0.464,6880.544,-1.465,-0.446,112.035,-0.897,-0.247,-10.899,0.000,-0.000,0.0117386,7456.421,7500.000,0.363,2.352,417.441,-30.000,6879.695,6879.614,-10.930,-0.031,0.442,0.007,-0.016,0.001,0.000,0.000,0.000,0.006,0.692,-0.008,0.722,0.0000000,0.0000000,6877.246,0.000,0.000,0.000,0,00:00:00,0,0.000,0.000,0.000,0.000,0.000,0.000,0.000,0.000,0.000,0.000,0.000,0.000,0.000,0.000
48.194,3,0,-1.306,-0.460,6891.654,-1.457,-0.425,110.821,-0.609,-0.033,-10.913,0.000,2.000,0.0117386,7454.734,7500.000,0.359,2.391,416.789,-30.072,6890.816,6890.735,-10.926,0.212,0.247,0.029,0.007,-0.011,0.000,0.000,0.000,0.010,0.695,-0.006,0.719,0.0000000,0.0000000,6888.043,0.000,0.000,0.000,0,00:00:00,0,0.000,0.000,0.000,0.000,0.000,0.000,0.000,0.000,0.000,0.000,0.000,0.000,0.000,0.000
48.295,3,0,-1.317,-0.456,6902.606,-1.470,-0.429,109.599,-0.823,-0.285,-10.720,0.000,-0.000,0.0117386,7456.303,7500.000,0.355,1.899,416.162,-30.143,6901.543,6901.462,-10.747,-0.045,0.434,-0.003,0.011,-0.024,0.000,0.000,0.000,0.008,0.694,-0.008,0.720,0.0000000,0.0000000,6898.734,0.000,0.000,0.000,0,00:00:00,0,0.000,0.000,0.000,0.000,0.000,0.000,0.000,0.000,0.000,0.000,0.000,0.000,0.000,0.000
48.396,3,0,-1.327,-0.452,6913.399,-1.451,-0.428,108.352,-0.512,-0.230,-10.701,0.000,2.000,0.0117386,7454.669,7500.000,0.351,2.074,415.544,-30.212,6912.120,6912.039,-10.714,-0.022,0.202,-0.029,-0.027,0.009,0.000,0.000,0.000,0.007,0.697,-0.007,0.717,0.0000000,0.0000000,6909.316,0.000,0.000,0.000,0,00:00:00,0,0.000,0.000,0.000,0.000,0.000,0.000,0.000,0.000,0.000,0.000,0.000,0.000,0.000,0.000
48.497,3,0,-1.336,-0.450,6924.074,-1.463,-0.438,107.114,-0.824,-0.331,-10.676,0.000,-0.000,0.0117386,7453.011,7500.000,0.347,1.657,414.918,-30.278,6922.842,6922.761,-10.702,-0.115,0.461,0.007,0.036,0.019,0.000,0.000,0.000,0.005,0.695,-0.009,0.719,0.0000000,0.0000000,6919.791,0.000,0.000,0.000,0,00:00:00,0,0.000,0.000,0.000,0.000,0.000,0.000,0.000,0.000,0.000,0.000,0.000,0.000,0.000,0.000
48.598,3,0,-1.344,-0.447,6934.576,-1.452,-0.429,105.835,-0.590,-0.148,-10.725,0.000,2.000,0.0117386,7450.835,7500.000,0.344,1.956,414.323,-30.346,6933.051,6932.970,-10.739,0.032,0.268,-0.032,-0.010,0.007,0.000,0.000,0.000,0.006,0.696,-0.006,0.718,0.0000000,0.0000000,6930.158,0.000,0.000,0.000,0,00:00:00,0,0.000,0.000,0.000,0.000,0.000,0.000,0.000,0.000,0.000,0.000,0.000,0.000,0.000,0.000
48.699,3,0,-1.351,-0.443,6944.942,-1.461,-0.404,104.533,-0.808,0.013,-10.913,0.000,-0.000,0.0117386,7451.143,7500.000,0.339,1.719,413.721,-30.416,6943.378,6943.297,-10.932,0.203,0.451,0.010,0.034,0.007,0.000,0.000,0.000,0.009,0.695,-0.004,0.719,0.0000000,0.0000000,6940.418,0.000,0.000,0.000,0,00:00:00,0,0.000,0.000,0.000,0.000,0.000,0.000,0.000,0.000,0.000,0.000,0.000,0.000,0.000,0.000
48.800,3,0,-1.358,-0.438,6955.202,-1.456,-0.393,103.280,-0.661,-0.122,-10.598,0.000,2.000,0.0117386,7448.648,7500.000,0.335,1.877,413.116,-30.483,6953.791,6953.710,-10.614,0.058,0.335,-0.005,0.032,0.002,0.000,0.000,0.000,0.008,0.696,-0.004,0.718,0.0000000,0.0000000,6950.570,0.000,0.000,0.000,0,00:00:00,0,0.000,0.000,0.000,0.000,0.000,0.000,0.000,0.000,0.000,0.000,0.000,0.000,0.000,0.000
48.901,3,0,-1.364,-0.433,6965.229,-1.460,-0.387,101.960,-0.761,-0.169,-10.470,0.000,-0.000,0.0117386,7446.692,7500.000,0.331,1.752,412.572,-30.548,6963.153,6963.072,-10.491,0.027,0.399,0.018,-0.004,0.018,0.000,0.000,0.000,0.009,0.695,-0.005,0.719,0.0000000,0.0000000,6960.617,0.000,0.000,0.000,0,00:00:00,0,0.000,0.000,0.000,0.000,0.000,0.000,0.000,0.000,0.000,0.000,0.000,0.000,0.000,0.000
49.002,3,0,-1.370,-0.427,6975.135,-1.462,-0.383,100.646,-0.738,-0.182,-10.519,0.000,2.000,0.0117386,7443.611,7500.000,0.327,1.976,411.992,-30.612,6973.145,6973.064,-10.540,-0.011,0.372,-0.025,0.003,0.022,0.000,0.000,0.000,0.007,0.695,-0.005,0.719,0.0000000,0.0000000,6970.556,0.000,0.000,0.000,0,00:00:00,0,0.000,0.000,0.000,0.000,0.000,0.000,0.000,0.000,0.000,0.000,0.000,0.000,0.000,0.000
49.103,3,0,-1.374,-0.422,6984.959,-1.452,-0.368,99.360,-0.617,-0.073,-10.606,0.000,-0.000,0.0117386,7443.239,7500.000,0.323,1.989,411.405,-30.677,6983.277,6983.196,-10.619,0.101,0.296,0.002,0.022,0.010,0.000,0.000,0.000,0.008,0.696,-0.004,0.718,0.0000000,0.0000000,6980.389,0.000,0.000,0.000,0,00:00:00,0,0.000,0.000,0.000,0.000,0.000,0.000,0.000,0.000,0.000,0.000,0.000,0.000,0.000,0.000
49.204,3,0,-1.379,-0.416,6994.634,-1.468,-0.364,98.048,-0.890,-0.182,-10.734,0.000,2.000,0.0117386,7441.124,7500.000,0.319,1.730,410.851,-30.742,6992.842,6992.761,-10.761,-0.008,0.488,-0.005,0.008,-0.033,0.000,0.000,0.000,0.006,0.694,-0.005,0.720,0.0000000,0.0000000,6990.115,0.000,0.000,0.000,0,00:00:00,0,0.000,0.000,0.000,0.000,0.000,0.000,0.000,0.000,0.000,0.000,0.000,0.000,0.000,0.000
49.305,3,0,-1.383,-0.410,7004.220,-1.457,-0.368,96.805,-0.618,-0.253,-10.343,0.000,-0.000,0.0117386,7438.221,7500.000,0.315,2.142,410.282,-30.804,7002.678,7002.597,-10.361,-0.055,0.274,0.030,-0.029,0.020,0.000,0.000,0.000,0.006,0.695,-0.007,0.719,0.0000000,0.0000000,6999.736,0.000,0.000,0.000,0,00:00:00,0,0.000,0.000,0.000,0.000,0.000,0.000,0.000,0.000,0.000,0.000,0.000,0.000,0.000,0.000
49.406,3,0,-1.387,-0.406,7013.702,-1.455,-0.373,95.552,-0.707,-0.263,-10.620,0.000,2.000,0.0117386,7436.244,7500.000,0.311,1.909,409.726,-30.868,7012.301,7012.220,-10.641,-0.064,0.355,-0.006,0.002,0.004,0.000,0.000,0.000,0.005,0.695,-0.008,0.719,0.0000000,0.0000000,7009.250,0.000,0.000,0.000,0,00:00:00,0,0.000,0.000,0.000,0.000,0.000,0.000,0.000,0.000,0.000,0.000,0.000,0.000,0.000,0.000
49.507,3,0,-1.389,-0.402,7023.012,-1.445,-0.391,94.273,-0.635,-0.388,-10.542,0.000,-0.000,0.0117386,7436.462,7500.000,0.307,1.902,409.205,-30.931,7021.336,7021.255,-10.562,-0.201,0.305,-0.011,-0.013,-0.000,0.000,0.000,0.000,0.002,0.696,-0.010,0.718,0.0000000,0.0000000,7018.659,0.000,0.000,0.000,0,00:00:00,0,0.000,0.000,0.000,0.000,0.000,0.000,0.000,0.000,0.000,0.000,0.000,0.000,0.000,0.000
49.608,3,0,-1.392,-0.400,7032.259,-1.451,-0.389,93.035,-0.790,-0.192,-10.623,0.000,2.000,0.0117386,7434.333,7500.000,0.303,1.816,408.649,-30.989,7030.984,7030.903,-10.646,-0.028,0.432,-0.023,0.047,0.015,0.000,0.000,0.000,0.003,0.695,-0.008,0.719,0.0000000,0.0000000,7027.962,0.000,0.000,0.000,0,00:00:00,0,0.000,0.000,0.000,0.000,0.000,0.000,0.000,0.000,0.000,0.000,0.000,0.000,0.000,0.000
49.709,3,0,-1.394,-0.398,7041.377,-1.455,-0.379,91.823,-0.773,-0.110,-10.333,0.000,-0.000,0.0117386,7432.390,7500.000,0.299,1.935,408.126,-31.050,7040.073,7039.992,-10.355,0.049,0.394,0.002,-0.016,-0.005,0.000,0.000,0.000,0.005,0.694,-0.006,0.720,0.0000000,0.0000000,7037.160,0.000,0.000,0.000,0,00:00:00,0,0.000,0.000,0.000,0.000,0.000,0.000,0.000,0.000,0.000,0.000,0.000,0.000,0.000,0.000
49.810,3,0,-1.397,-0.395,7050.364,-1.474,-0.376,90.584,-0.921,-0.179,-10.550,0.000,2.000,0.0117386,7430.510,7500.000,0.295,2.101,407.611,-31.109,7049.017,7048.936,-10.581,-0.001,0.470,0.015,-0.043,0.009,0.000,0.000,0.000,0.006,0.692,-0.006,0.722,0.0000000,0.0000000,7046.252,0.000,0.000,0.000,0,00:00:00,0,0.000,0.000,0.000,0.000,0.000,0.000,0.000,0.000,0.000,0.000,0.000,0.000,0.000,0.000
49.911,3,0,-1.400,-0.392,7059.302,-1.458,-0.375,89.398,-0.580,-0.198,-10.569,0.000,-0.000,0.0117386,7428.130,7500.000,0.291,2.445,407.071,-31.168,7058.417,7058.336,-10.584,-0.003,0.238,0.017,0.005,0.004,0.000,0.000,0.000,0.006,0.696,-0.007,0.718,0.0000000,0.0000000,7055.240,0.000,0.000,0.000,0,00:00:00,0,0.000,0.000,0.000,0.000,0.000,0.000,0.000,0.000,0.000,0.000,0.000,0.000,0.000,0.000
50.012,3,0,-1.403,-0.390,7068.093,-1.478,-0.367,88.218,-0.936,-0.120,-10.312,0.000,2.000,0.0117386,7429.653,7500.000,0.287,1.852,406.576,-31.226,7067.038,7066.957,-10.343,0.046,0.512,-0.021,-0.001,0.023,0.000,0.000,0.000,0.007,0.692,-0.005,0.721,0.0000000,0.0000000,7064.123,0.000,0.000,0.000,0,00:00:00,0,0.000,0.000,0.000,0.000,0.000,0.000,0.000,0.000,0.000,0.000,0.000,0.000,0.000,0.000
50.113,3,0,-1.406,-0.387,7076.782,-1.472,-0.376,87.047,-0.680,-0.291,-10.350,0.000,-0.000,0.0117386,7428.095,7500.000,0.283,2.347,406.072,-31.283,7075.828,7075.747,-10.371,-0.086,0.321,0.034,0.025,0.017,0.000,0.000,0.000,0.006,0.695,-0.008,0.719,0.0000000,0.0000000,7072.901,0.000,0.000,0.000,0,00:00:00,0,0.000,0.000,0.000,0.000,0.000,0.000,0.000,0.000,0.000,0.000,0.000,0.000,0.000,0.000
50.214,3,0,-1.410,-0.385,7085.371,-1.492,-0.384,85.891,-0.940,-0.283,-10.334,0.000,2.000,0.0117386,7426.929,7500.000,0.280,1.988,405.573,-31.340,7084.530,7084.449,-10.368,-0.054,0.501,0.022,-0.019,-0.013,0.000,0.000,0.000,0.006,0.692,-0.009,0.722,0.0000000,0.0000000,7081.574,0.000,0.000,0.000,0,00:00:00,0,0.000,0.000,0.000,0.000,0.000,0.000,0.000,0.000,0.000,0.000,0.000,0.000,0.000,0.000
50.315,3,0,-1.415,-0.384,7093.837,-1.506,-0.371,84.736,-0.881,-0.074,-10.285,0.000,-0.000,0.0117386,7425.374,7500.000,0.276,2.433,405.091,-31.394,7092.963,7092.882,-10.312,0.167,0.444,0.016,0.006,-0.027,0.000,0.000,0.000,0.010,0.692,-0.007,0.722,0.0000000,0.0000000,7090.143,0.000,0.000,0.000,0,00:00:00,0,0.000,0.000,0.000,0.000,0.000,0.000,0.000,0.000,0.000,0.000,0.000,0.000,0.000,0.000
50.416,3,0,-1.418,-0.383,7102.234,-1.474,-0.392,83.608,-0.427,-0.411,-10.365,0.000,2.000,0.0117386,7426.614,7500.000,0.272,2.432,404.594,-31.448,7101.650,7101.569,-10.380,-0.117,0.148,0.046,0.027,-0.005,0.000,0.000,0.000,0.009,0.697,-0.011,0.716,0.0000000,0.0000000,7098.607,0.000,0.000,0.000,0,00:00:00,0,0.000,0.000,0.000,0.000,0.000,0.000,0.000,0.000,0.000,0.000,0.000,0.000,0.000,0.000
50.517,3,0,-1.420,-0.383,7110.522,-1.467,-0.392,82.486,-0.681,-0.199,-10.340,0.000,-0.000,0.0117386,7426.220,7500.000,0.269,1.547,404.119,-31.505,7109.966,7109.885,-10.358,0.086,0.353,-0.006,-0.022,0.004,0.000,0.000,0.000,0.011,0.696,-0.009,0.718,0.0000000,0.0000000,7106.968,0.000,0.000,0.000,0,00:00:00,0,0.000,0.000,0.000,0.000,0.000,0.000,0.000,0.000,0.000,0.000,0.000,0.000,0.000,0.000
50.618,3,0,-1.420,-0.382,7118.767,-1.449,-0.379,81.422,-0.565,-0.076,-10.284,0.000,2.000,0.0117386,7425.284,7500.000,0.265,1.812,403.624,-31.561,7118.637,7118.556,-10.295,0.177,0.274,-0.028,0.019,0.015,0.000,0.000,0.000,0.012,0.697,-0.005,0.717,0.0000000,0.0000000,7115.225,0.000,0.000,0.000,0,00:00:00,0,0.000,0.000,0.000,0.000,0.000,0.000,0.000,0.000,0.000,0.000,0.000,0.000,0.000,0.000
50.719,3,0,-1.418,-0.381,7126.801,-1.429,-0.387,80.273,-0.547,-0.280,-10.366,0.000,-0.000,0.0117386,7424.929,7500.000,0.262,1.615,403.202,-31.616,7126.048,7125.967,-10.380,-0.040,0.282,-0.017,0.044,-0.040,0.000,0.000,0.000,0.009,0.698,-0.008,0.716,0.0000000,0.0000000,7123.378,0.000,0.000,0.000,0,00:00:00,0,0.000,0.000,0.000,0.000,0.000,0.000,0.000,0.000,0.000,0.000,0.000,0.000,0.000,0.000
50.820,3,0,-1.416,-0.381,7134.765,-1.417,-0.394,79.146,-0.633,-0.265,-10.498,0.000,2.000,0.0117386,7423.648,7500.000,0.258,1.460,402.732,-31.665,7134.293,7134.212,-10.515,-0.019,0.339,0.003,0.020,0.023,0.000,0.000,0.000,0.008,0.697,-0.008,0.717,0.0000000,0.0000000,7131.427,0.000,0.000,0.000,0,00:00:00,0,0.000,0.000,0.000,0.000,0.000,0.000,0.000,0.000,0.000,0.000,0.000,0.000,0.000,0.000
50.921,3,0,-1.411,-0.382,7142.638,-1.394,-0.402,78.054,-0.514,-0.287,-10.305,0.000,-0.000,0.0117386,7425.215,7500.000,0.255,1.598,402.277,-31.722,7142.299,7142.218,-10.319,-0.056,0.241,-0.010,-0.018,-0.001,0.000,0.000,0.000,0.007,0.698,-0.009,0.716,0.0000000,0.0000000,7139.373,0.000,0.000,0.000,0,00:00:00,0,0.000,0.000,0.000,0.000,0.000,0.000,0.000,0.000,0.000,0.000,0.000,0.000,0.000,0.000
51.022,3,0,-1.406,-0.383,7150.429,-1.381,-0.407,76.982,-0.607,-0.244,-10.315,0.000,2.000,0.0117386,7424.708,7500.000,0.251,1.519,401.824,-31.770,7150.266,7150.185,-10.331,-0.041,0.308,-0.028,-0.017,0.002,0.000,0.000,0.000,0.006,0.697,-0.008,0.717,0.0000000,0.0000000,7147.215,0.000,0.000,0.000,0,00:00:00,0,0.000,0.000,0.000,0.000,0.000,0.000,0.000,0.000,0.000,0.000,0.000,0.000,0.000,0.000
51.123,3,0,-1.400,-0.384,7157.035,-1.369,-0.408,75.106,-0.619,-0.216,-10.315,0.000,-0.000,0.0117386,7424.206,7500.000,0.248,1.661,401.824,-31.770,7150.266,7150.185,-10.331,-0.041,0.308,-0.028,-0.017,0.002,0.000,0.000,0.000,0.005,0.696,-0.007,0.718,0.0000000,0.0000000,7147.215,0.000,0.000,0.000,0,00:00:00,0,0.000,0.000,0.000,0.000,0.000,0.000,0.000,0.000,0.000,0.000,0.000,0.000,0.000,0.000
51.224,3,0,-1.394,-0.385,7164.759,-1.368,-0.397,74.220,-0.721,-0.095,-10.178,0.000,2.000,0.0117386,7416.324,7500.000,0.242,1.732,400.930,-31.868,7166.005,7165.924,-10.197,0.074,0.381,-0.002,0.008,-0.007,0.000,0.000,0.000,0.006,0.695,-0.005,0.719,0.0000000,0.0000000,7162.590,0.000,0.000,0.000,0,00:00:00,0,0.000,0.000,0.000,0.000,0.000,0.000,0.000,0.000,0.000,0.000,0.000,0.000,0.000,0.000
51.325,3,0,-1.387,-0.386,7172.379,-1.354,-0.402,73.333,-0.588,-0.250,-10.088,0.000,-0.000,0.0117386,7419.891,7500.000,0.239,1.914,400.503,-31.921,7173.540,7173.459,-10.104,-0.079,0.282,0.002,0.005,-0.010,0.000,0.000,0.000,0.005,0.696,-0.007,0.718,0.0000000,0.0000000,7170.124,0.000,0.000,0.000,0,00:00:00,0,0.000,0.000,0.000,0.000,0.000,0.000,0.000,0.000,0.000,0.000,0.000,0.000,0.000,0.000
51.426,3,0,-1.381,-0.386,7179.812,-1.347,-0.397,72.346,-0.662,-0.157,-10.352,0.000,2.000,0.0117386,7421.135,7500.000,0.236,1.741,400.115,-31.970,7180.376,7180.295,-10.369,0.006,0.331,-0.013,-0.018,-0.037,0.000,0.000,0.000,0.004,0.696,-0.007,0.718,0.0000000,0.0000000,7177.554,0.000,0.000,0.000,0,00:00:00,0,0.000,0.000,0.000,0.000,0.000,0.000,0.000,0.000,0.000,0.000,0.000,0.000,0.000,0.000
51.527,3,0,-1.374,-0.386,7186.117,-1.342,-0.391,70.591,-0.671,-0.144,-10.351,0.000,-0.000,0.0117386,7421.386,7500.000,0.233,1.835,400.115,-31.970,7180.376,7180.295,-10.369,0.006,0.331,-0.013,-0.018,-0.037,0.000,0.000,0.000,0.004,0.695,-0.006,0.719,0.0000000,0.0000000,7177.554,0.000,0.000,0.000,0,00:00:00,0,0.000,0.000,0.000,0.000,0.000,0.000,0.000,0.000,0.000,0.000,0.000,0.000,0.000,0.000
51.628,3,0,-1.369,-0.385,7193.430,-1.360,-0.378,69.739,-0.904,-0.066,-10.180,0.000,2.000,0.0117386,7414.942,7500.000,0.227,1.882,399.290,-32.063,7194.955,7194.874,-10.208,0.065,0.492,-0.015,0.001,-0.008,0.000,0.000,0.000,0.005,0.693,-0.004,0.721,0.0000000,0.0000000,7192.106,0.000,0.000,0.000,0,00:00:00,0,0.000,0.000,0.000,0.000,0.000,0.000,0.000,0.000,0.000,0.000,0.000,0.000,0.000,0.000
51.729,3,0,-1.367,-0.382,7200.652,-1.397,-0.358,68.868,-1.085,-0.010,-10.334,0.000,-0.000,0.0117386,7415.925,7500.000,0.225,2.316,398.884,-32.111,7202.147,7202.066,-10.374,0.133,0.576,0.012,-0.024,-0.012,0.000,0.000,0.000,0.007,0.689,-0.003,0.724,0.0000000,0.0000000,7199.229,0.000,0.000,0.000,0,00:00:00,0,0.000,0.000,0.000,0.000,0.000,0.000,0.000,0.000,0.000,0.000,0.000,0.000,0.000,0.000
51.830,3,0,-1.366,-0.379,7207.805,-1.394,-0.344,68.029,-0.690,-0.058,-10.152,0.000,2.000,0.0117386,7419.483,7500.000,0.222,2.816,398.473,-32.157,7209.418,7209.337,-10.171,0.076,0.291,-0.008,-0.005,-0.007,0.000,0.000,0.000,0.007,0.693,-0.003,0.721,0.0000000,0.0000000,7206.250,0.000,0.000,0.000,0,00:00:00,0,0.000,0.000,0.000,0.000,0.000,0.000,0.000,0.000,0.000,0.000,0.000,0.000,0.000,0.000
51.931,3,0,-1.366,-0.374,7214.836,-1.403,-0.342,67.171,-0.804,-0.181,-10.062,0.000,-0.000,0.0117386,7421.152,7500.000,0.219,2.244,398.090,-32.202,7216.215,7216.134,-10.087,-0.046,0.406,0.000,0.005,-0.003,0.000,0.000,0.000,0.005,0.693,-0.005,0.721,0.0000000,0.0000000,7213.168,0.000,0.000,0.000,0,00:00:00,0,0.000,0.000,0.000,0.000,0.000,0.000,0.000,0.000,0.000,0.000,0.000,0.000,0.000,0.000
52.032,3,0,-1.366,-0.370,7221.782,-1.399,-0.337,66.301,-0.674,-0.144,-10.195,0.000,2.000,0.0117386,7422.350,7500.000,0.216,2.260,397.697,-32.245,7223.176,7223.095,-10.214,0.031,0.318,0.037,0.007,-0.010,0.000,0.000,0.000,0.007,0.695,-0.006,0.719,0.0000000,0.0000000,7219.984,0.000,0.000,0.000,0,00:00:00,0,0.000,0.000,0.000,0.000,0.000,0.000,0.000,0.000,0.000,0.000,0.000,0.000,0.000,0.000
52.133,3,0,-1.365,-0.366,7228.596,-1.374,-0.322,65.428,-0.472,-0.042,-9.877,0.000,-0.000,0.0117386,7423.459,7500.000,0.214,2.001,397.329,-32.291,7229.707,7229.626,-9.886,0.143,0.207,0.017,0.023,-0.004,0.000,0.000,0.000,0.009,0.698,-0.004,0.716,0.0000000,0.0000000,7226.698,0.000,0.000,0.000,0,00:00:00,0,0.000,0.000,0.000,0.000,0.000,0.000,0.000,0.000,0.000,0.000,0.000,0.000,0.000,0.000
52.234,3,0,-1.361,-0.361,7235.276,-1.356,-0.323,64.501,-0.536,-0.200,-10.094,0.000,2.000,0.0117386,7424.450,7500.000,0.211,1.533,396.969,-32.331,7236.111,7236.030,-10.107,-0.004,0.265,0.006,-0.004,0.019,0.000,0.000,0.000,0.008,0.698,-0.005,0.716,0.0000000,0.0000000,7233.311,0.000,0.000,0.000,0,00:00:00,0,0.000,0.000,0.000,0.000,0.000,0.000,0.000,0.000,0.000,0.000,0.000,0.000,0.000,0.000
52.335,3,0,-1.357,-0.357,7240.939,-1.338,-0.325,62.883,-0.535,-0.207,-10.094,0.000,-0.000,0.0117386,7427.291,7500.000,0.208,1.530,396.969,-32.331,7236.111,7236.030,-10.107,-0.004,0.265,0.006,-0.004,0.019,0.000,0.000,0.000,0.008,0.698,-0.006,0.716,0.0000000,0.0000000,7233.311,0.000,0.000,0.000,0,00:00:00,0,0.000,0.000,0.000,0.000,0.000,0.000,0.000,0.000,0.000,0.000,0.000,0.000,0.000,0.000
52.436,3,0,-1.351,-0.353,7247.480,-1.321,-0.328,62.043,-0.546,-0.212,-10.109,0.000,2.000,0.0117386,7422.709,7500.000,0.203,1.529,396.242,-32.417,7249.044,7248.963,-10.122,0.029,0.282,0.039,0.024,0.029,0.000,0.000,0.000,0.010,0.698,-0.007,0.716,0.0000000,0.0000000,7246.230,0.000,0.000,0.000,0,00:00:00,0,0.000,0.000,0.000,0.000,0.000,0.000,0.000,0.000,0.000,0.000,0.000,0.000,0.000,0.000
52.537,3,0,-1.344,-0.351,7253.922,-1.305,-0.343,61.179,-0.548,-0.336,-10.241,0.000,-0.000,0.0117386,7423.929,7500.000,0.200,1.492,395.885,-32.459,7255.400,7255.319,-10.256,-0.094,0.278,-0.004,0.002,-0.005,0.000,0.000,0.000,0.007,0.698,-0.009,0.716,0.0000000,0.0000000,7252.538,0.000,0.000,0.000,0,00:00:00,0,0.000,0.000,0.000,0.000,0.000,0.000,0.000,0.000,0.000,0.000,0.000,0.000,0.000,0.000
52.638,3,0,-1.336,-0.350,7260.264,-1.277,-0.349,60.333,-0.430,-0.244,-9.958,0.000,2.000,0.0117386,7424.886,7500.000,0.197,1.515,395.533,-32.501,7261.658,7261.577,-9.967,-0.017,0.216,-0.007,0.051,-0.000,0.000,0.000,0.000,0.007,0.699,-0.009,0.715,0.0000000,0.0000000,7258.744,0.000,0.000,0.000,0,00:00:00,0,0.000,0.000,0.000,0.000,0.000,0.000,0.000,0.000,0.000,0.000,0.000,0.000,0.000,0.000
52.739,3,0,-1.329,-0.349,7266.556,-1.298,-0.350,59.507,-0.902,-0.194,-10.021,0.000,-0.000,0.0117386,7425.904,7500.000,0.194,1.233,395.168,-32.537,7268.166,7268.085,-10.050,0.014,0.523,-0.020,-0.020,0.015,0.000,0.000,0.000,0.007,0.694,-0.007,0.720,0.0000000,0.0000000,7264.849,0.000,0.000,0.000,0,00:00:00,0,0.000,0.000,0.000,0.000,0.000,0.000,0.000,0.000,0.000,0.000,0.000,0.000,0.000,0.000
52.840,3,0,-1.323,-0.348,7272.740,-1.307,-0.360,58.665,-0.788,-0.277,-10.000,0.000,2.000,0.0117386,7426.771,7500.000,0.192,2.164,394.830,-32.578,7274.202,7274.121,-10.027,-0.016,0.401,0.053,0.004,0.001,0.000,0.000,0.000,0.009,0.693,-0.010,0.721,0.0000000,0.0000000,7270.853,0.000,0.000,0.000,0,00:00:00,0,0.000,0.000,0.000,0.000,0.000,0.000,0.000,0.000,0.000,0.000,0.000,0.000,0.000,0.000
52.941,3,0,-1.318,-0.350,7278.763,-1.297,-0.391,57.762,-0.591,-0.496,-10.047,0.000,-0.000,0.0117386,7430.458,7500.000,0.189,2.215,394.519,-32.621,7279.756,7279.675,-10.070,-0.218,0.273,0.014,0.016,0.029,0.000,0.000,0.000,0.006,0.696,-0.013,0.718,0.0000000,0.0000000,7276.756,0.000,0.000,0.000,0,00:00:00,0,0.000,0.000,0.000,0.000,0.000,0.000,0.000,0.000,0.000,0.000,0.000,0.000,0.000,0.000
53.042,3,0,-1.312,-0.353,7284.676,-1.278,-0.398,56.849,-0.507,-0.257,-9.998,0.000,2.000,0.0117386,7431.260,7500.000,0.186,1.838,394.194,-32.659,7285.554,7285.473,-10.011,0.006,0.237,-0.013,0.013,-0.030,0.000,0.000,0.000,0.007,0.697,-0.011,0.717,0.0000000,0.0000000,7282.558,0.000,0.000,0.000,0,00:00:00,0,0.000,0.000,0.000,0.000,0.000,0.000,0.000,0.000,0.000,0.000,0.000,0.000,0.000,0.000
53.143,3,0,-1.306,-0.357,7290.519,-1.281,-0.407,55.947,-0.714,-0.273,-10.062,0.000,-0.000,0.0117386,7431.861,7500.000,0.183,1.559,393.860,-32.693,7291.536,7291.455,-10.083,-0.006,0.389,0.004,0.011,0.019,0.000,0.000,0.000,0.008,0.696,-0.010,0.718,0.0000000,0.0000000,7288.258,0.000,0.000,0.000,0,00:00:00,0,0.000,0.000,0.000,0.000,0.000,0.000,0.000,0.000,0.000,0.000,0.000,0.000,0.000,0.000
53.244,3,0,-1.300,-0.361,7296.192,-1.255,-0.417,54.984,-0.424,-0.285,-10.082,0.000,2.000,0.0117386,7432.354,7500.000,0.180,1.853,393.569,-32.729,7296.729,7296.648,-10.093,-0.035,0.172,-0.017,-0.007,-0.008,0.000,0.000,0.000,0.007,0.698,-0.010,0.716,0.0000000,0.0000000,7293.858,0.000,0.000,0.000,0,00:00:00,0,0.000,0.000,0.000,0.000,0.000,0.000,0.000,0.000,0.000,0.000,0.000,0.000,0.000,0.000
53.345,3,0,-1.293,-0.366,7301.862,-1.266,-0.430,54.101,-0.790,-0.326,-9.983,0.000,-0.000,0.0117386,7432.435,7500.000,0.177,1.435,393.221,-32.765,7302.973,7302.892,-10.010,-0.040,0.437,0.037,-0.023,0.009,0.000,0.000,0.000,0.009,0.694,-0.011,0.719,0.0000000,0.0000000,7299.358,0.000,0.000,0.000,0,00:00:00,0,0.000,0.000,0.000,0.000,0.000,0.000,0.000,0.000,0.000,0.000,0.000,0.000,0.000,0.000
53.446,3,0,-1.287,-0.371,7307.343,-1.251,-0.430,53.153,-0.524,-0.191,-9.875,0.000,2.000,0.0117386,7435.432,7500.000,0.174,2.031,392.949,-32.801,7307.834,7307.753,-9.888,0.073,0.239,-0.017,0.019,-0.018,0.000,0.000,0.000,0.010,0.697,-0.009,0.717,0.0000000,0.0000000,7304.757,0.000,0.000,0.000,0,00:00:00,0,0.000,0.000,0.000,0.000,0.000,0.000,0.000,0.000,0.000,0.000,0.000,0.000,0.000,0.000
53.547,3,0,-1.280,-0.377,7312.748,-1.241,-0.450,52.195,-0.580,-0.394,-10.137,0.000,-0.000,0.0117386,7435.860,7500.000,0.171,1.653,392.640,-32.836,7313.368,7313.287,-10.156,-0.098,0.298,0.022,0.022,-0.006,0.000,0.000,0.000,0.009,0.697,-0.012,0.717,0.0000000,0.0000000,7310.055,0.000,0.000,0.000,0,00:00:00,0,0.000,0.000,0.000,0.000,0.000,0.000,0.000,0.000,0.000,0.000,0.000,0.000,0.000,0.000
53.648,3,0,-1.273,-0.383,7317.312,-1.232,-0.471,50.681,-0.574,-0.418,-10.136,0.000,2.000,0.0117386,7436.098,7500.000,0.168,1.603,392.640,-32.836,7313.368,7313.287,-10.156,-0.098,0.298,0.022,0.022,-0.006,0.000,0.000,0.000,0.008,0.697,-0.014,0.717,0.0000000,0.0000000,7310.055,0.000,0.000,0.000,0,00:00:00,0,0.000,0.000,0.000,0.000,0.000,0.000,0.000,0.000,0.000,0.000,0.000,0.000,0.000,0.000
53.749,3,0,-1.266,-0.390,7322.473,-1.232,-0.466,49.738,-0.673,-0.153,-10.037,0.000,-0.000,0.0117386,7432.485,7500.000,0.163,1.578,392.096,-32.905,7323.128,7323.047,-10.053,0.170,0.356,0.011,0.001,0.009,0.000,0.000,0.000,0.013,0.696,-0.010,0.718,0.0000000,0.0000000,7320.351,0.000,0.000,0.000,0,00:00:00,0,0.000,0.000,0.000,0.000,0.000,0.000,0.000,0.000,0.000,0.000,0.000,0.000,0.000,0.000
