State - Time (s),State - Stage,State - Stage,State - PX (m),State - PY (m),State - PZ (m),State - VX (m/s),State - VY (m/s),State - VZ (m/s),State - AX (m/s/s),State - AY (m/s/s),State - AZ (m/s/s),State - Actuation Angle (deg),State - Acutal Angle (deg),State - CdA,State - Est Apo (m),State - Target Apogee (m),State - Mach Number,State - Tilt [deg],MockBarometer - Pres (hPa),MockBarometer - Temp (C),MockBarometer - Alt ASL (m),MockBarometer - Alt AGL (m),MockIMU - AccX (m/s^2),MockIMU - AccY (m/s^2),MockIMU - AccZ (m/s^2),MockIMU - GyroX (rad/s),MockIMU - GyroY (rad/s),MockIMU - GyroZ (rad/s),MockIMU - MagX (uT),MockIMU - MagY (uT),MockIMU - MagZ (uT),MockIMU - OriX,MockIMU - OriY,MockIMU - OriZ,MockIMU - OriW,MockGPS - Lat,MockGPS - Lon,MockGPS - Alt (m),MockGPS - Disp X (m),MockGPS - Disp Y (m),MockGPS - Disp Z (m),MockGPS - Fix Quality,MockGPS - Time of Day,E5 - Rel Steps,BR - Battery Voltage (V),BR - ALT (m),BR - PRES (Pa),BR - TEMP (C),BR - VEL (m/s),BR - ANG (deg),BR - ACCX (m/s^2),BR - ACCY (m/s^2),BR - ACCZ (m/s^2),BR - GYROX (rad/s),BR - GYROY (rad/s),BR - GYROZ (rad/s),BR - ROLL (deg),BR - TILT (deg)
19.963,1,0,-1.328,-0.377,-10.520,-0.896,-0.158,0.744,4.205,2.944,123.982,0.000,0.000,0.0103675,0.000,9144.000,0.039,1.640,1013.027,15.038,1.854,1.877,124.089,0.036,0.132,-0.009,-0.064,0.006,0.000,0.000,0.000,0.007,0.695,-0.009,0.719,0.0000000,0.0000000,1.860,0.000,0.000,0.000,0,00:00:00,0,0.000,0.000,0.000,0.000,0.000,0.000,0.000,0.000,0.000,0.000,0.000,0.000,0.000,0.000
20.064,1,0,-1.265,-0.340,-7.789,-0.456,0.186,14.870,3.700,3.228,124.935,0.000,0.000,0.0103675,0.000,9144.000,0.003,2.007,1012.701,15.021,4.570,4.594,125.031,-0.116,0.409,0.033,0.021,0.001,0.000,0.000,0.000,0.009,0.695,-0.010,0.719,0.0000000,0.0000000,4.974,0.000,0.000,0.000,0,00:00:00,0,0.000,0.000,0.000,0.000,0.000,0.000,0.000,0.000,0.000,0.000,0.000,0.000,0.000,0.000
20.165,1,0,-1.169,-0.274,-3.511,-0.044,0.558,29.159,3.460,3.539,125.678,0.000,0.000,0.0103675,0.000,9144.000,0.044,1.887,1012.101,14.989,9.566,9.589,125.775,0.230,0.257,-0.004,0.033,0.003,0.000,0.000,0.000,0.008,0.697,-0.010,0.717,0.0000000,0.0000000,9.350,0.000,0.000,0.000,0,00:00:00,0,0.000,0.000,0.000,0.000,0.000,0.000,0.000,0.000,0.000,0.000,0.000,0.000,0.000,0.000
20.266,1,0,-1.046,-0.180,2.216,0.341,0.931,43.538,3.263,3.600,126.558,0.000,0.000,0.0103675,0.000,9144.000,0.086,1.697,1011.412,14.953,15.304,15.327,126.651,0.182,0.317,0.006,0.012,-0.026,0.000,0.000,0.000,0.008,0.697,-0.011,0.717,0.0000000,0.0000000,14.997,0.000,0.000,0.000,0,00:00:00,0,0.000,0.000,0.000,0.000,0.000,0.000,0.000,0.000,0.000,0.000,0.000,0.000,0.000,0.000
20.367,1,0,-0.899,-0.064,9.327,0.717,1.238,57.950,3.248,3.004,127.431,0.000,0.000,0.0103675,0.000,9144.000,0.128,1.628,1010.613,14.907,21.961,21.985,127.507,0.031,0.268,-0.037,0.007,0.012,0.000,0.000,0.000,0.007,0.697,-0.010,0.717,0.0000000,0.0000000,21.923,0.000,0.000,0.000,0,00:00:00,0,0.000,0.000,0.000,0.000,0.000,0.000,0.000,0.000,0.000,0.000,0.000,0.000,0.000,0.000
20.468,1,0,-0.731,0.068,17.818,1.124,1.526,72.382,3.649,2.890,128.219,0.000,0.000,0.0103675,0.000,9144.000,0.171,1.585,1009.654,14.850,29.966,29.989,128.303,-0.080,0.260,-0.002,-0.029,-0.006,0.000,0.000,0.000,0.007,0.696,-0.010,0.718,0.0000000,0.0000000,30.137,0.000,0.000,0.000,0,00:00:00,0,0.000,0.000,0.000,0.000,0.000,0.000,0.000,0.000,0.000,0.000,0.000,0.000,0.000,0.000
20.569,1,0,-0.540,0.218,27.755,1.537,1.876,86.894,3.806,3.584,129.124,0.000,0.000,0.0103675,0.000,9144.000,0.213,1.752,1008.475,14.789,39.804,39.828,129.229,0.008,0.252,0.046,-0.009,0.011,0.000,0.000,0.000,0.009,0.696,-0.011,0.718,0.0000000,0.0000000,39.646,0.000,0.000,0.000,0,00:00:00,0,0.000,0.000,0.000,0.000,0.000,0.000,0.000,0.000,0.000,0.000,0.000,0.000,0.000,0.000
20.670,1,0,-0.329,0.386,39.032,1.959,2.242,101.386,3.999,3.821,129.890,0.000,0.000,0.0103675,0.000,9144.000,0.256,1.805,1007.221,14.722,50.287,50.310,130.007,0.080,0.498,0.012,-0.031,0.029,0.000,0.000,0.000,0.010,0.695,-0.010,0.719,0.0000000,0.0000000,50.457,0.000,0.000,0.000,0,00:00:00,0,0.000,0.000,0.000,0.000,0.000,0.000,0.000,0.000,0.000,0.000,0.000,0.000,0.000,0.000
20.771,1,0,-0.097,0.569,51.697,2.448,2.561,115.887,4.790,3.455,130.554,0.000,0.000,0.0103675,0.000,9144.000,0.299,1.983,1005.765,14.641,62.465,62.488,130.687,-0.051,0.102,-0.019,-0.028,0.009,0.000,0.000,0.000,0.010,0.694,-0.009,0.720,0.0000000,0.0000000,62.578,0.000,0.000,0.000,0,00:00:00,0,0.000,0.000,0.000,0.000,0.000,0.000,0.000,0.000,0.000,0.000,0.000,0.000,0.000,0.000
20.872,1,0,0.158,0.767,65.761,2.922,2.921,130.410,4.778,3.976,131.292,0.000,0.000,0.0103675,0.000,9144.000,0.342,2.144,1004.137,14.554,76.107,76.130,131.438,0.178,0.316,0.020,-0.014,-0.013,0.000,0.000,0.000,0.010,0.693,-0.011,0.721,0.0000000,0.0000000,76.016,0.000,0.000,0.000,0,00:00:00,0,0.000,0.000,0.000,0.000,0.000,0.000,0.000,0.000,0.000,0.000,0.000,0.000,0.000,0.000
20.973,1,0,0.433,0.976,81.171,3.422,3.234,144.895,5.175,3.613,131.829,0.000,0.000,0.0103675,0.000,9144.000,0.384,2.222,1002.390,14.455,90.760,90.783,131.980,-0.075,0.309,-0.010,-0.028,-0.005,0.000,0.000,0.000,0.009,0.692,-0.010,0.722,0.0000000,0.0000000,90.777,0.000,0.000,0.000,0,00:00:00,0,0.000,0.000,0.000,0.000,0.000,0.000,0.000,0.000,0.000,0.000,0.000,0.000,0.000,0.000
21.074,1,0,0.728,1.193,97.962,3.901,3.510,159.395,5.130,3.358,132.611,0.000,0.000,0.0103675,0.000,9144.000,0.427,2.384,1000.454,14.350,107.019,107.043,132.752,-0.053,0.464,-0.022,-0.005,0.014,0.000,0.000,0.000,0.009,0.692,-0.009,0.722,0.0000000,0.0000000,106.869,0.000,0.000,0.000,0,00:00:00,0,0.000,0.000,0.000,0.000,0.000,0.000,0.000,0.000,0.000,0.000,0.000,0.000,0.000,0.000
21.175,1,0,1.039,1.413,116.125,4.389,3.737,173.866,5.377,2.992,133.037,0.000,0.000,0.0103675,0.000,9144.000,0.470,2.415,998.365,14.235,124.602,124.626,133.179,-0.191,0.409,-0.018,-0.013,0.003,0.000,0.000,0.000,0.009,0.692,-0.008,0.722,0.0000000,0.0000000,124.296,0.000,0.000,0.000,0,00:00:00,0,0.000,0.000,0.000,0.000,0.000,0.000,0.000,0.000,0.000,0.000,0.000,0.000,0.000,0.000
21.276,1,0,1.363,1.631,135.581,4.832,3.928,188.294,5.103,2.747,133.877,0.000,0.000,0.0103675,0.000,9144.000,0.513,2.490,996.182,14.112,143.000,143.023,134.001,-0.012,0.460,-0.033,0.019,0.000,0.000,0.000,0.000,0.007,0.692,-0.007,0.722,0.0000000,0.0000000,143.064,0.000,0.000,0.000,0,00:00:00,0,0.000,0.000,0.000,0.000,0.000,0.000,0.000,0.000,0.000,0.000,0.000,0.000,0.000,0.000
21.377,1,0,1.698,1.846,156.389,5.285,4.119,202.676,5.383,2.858,134.215,0.000,0.000,0.0103675,0.000,9144.000,0.556,2.379,993.796,13.981,163.145,163.168,134.353,-0.104,0.319,0.015,-0.009,0.001,0.000,0.000,0.000,0.008,0.692,-0.008,0.722,0.0000000,0.0000000,163.180,0.000,0.000,0.000,0,00:00:00,0,0.000,0.000,0.000,0.000,0.000,0.000,0.000,0.000,0.000,0.000,0.000,0.000,0.000,0.000
21.478,1,0,2.042,2.059,178.622,5.710,4.321,217.097,5.282,3.082,134.832,0.000,0.000,0.0103675,0.000,9144.000,0.598,2.432,991.190,13.837,185.197,185.220,134.970,-0.016,0.332,0.010,0.009,0.019,0.000,0.000,0.000,0.009,0.692,-0.007,0.722,0.0000000,0.0000000,184.648,0.000,0.000,0.000,0,00:00:00,0,0.000,0.000,0.000,0.000,0.000,0.000,0.000,0.000,0.000,0.000,0.000,0.000,0.000,0.000
21.579,1,0,2.391,2.269,202.085,6.114,4.492,231.413,5.257,2.892,135.492,0.000,0.000,0.0103675,0.000,9144.000,0.641,2.381,988.589,13.690,207.247,207.271,135.624,0.154,0.328,-0.027,0.005,0.017,0.000,0.000,0.000,0.009,0.692,-0.006,0.721,0.0000000,0.0000000,207.473,0.000,0.000,0.000,0,00:00:00,0,0.000,0.000,0.000,0.000,0.000,0.000,0.000,0.000,0.000,0.000,0.000,0.000,0.000,0.000
21.680,1,0,2.744,2.475,226.949,6.500,4.654,245.729,5.261,2.908,135.836,0.000,0.000,0.0103675,0.000,9144.000,0.683,2.355,985.698,13.532,231.821,231.845,135.968,0.112,0.353,0.003,-0.001,-0.011,0.000,0.000,0.000,0.008,0.692,-0.006,0.722,0.0000000,0.0000000,231.659,0.000,0.000,0.000,0,00:00:00,0,0.000,0.000,0.000,0.000,0.000,0.000,0.000,0.000,0.000,0.000,0.000,0.000,0.000,0.000
21.781,1,0,3.099,2.675,253.139,6.885,4.796,260.010,5.446,2.812,136.393,0.000,0.000,0.0103675,0.000,9144.000,0.726,2.363,982.711,13.367,257.263,257.287,136.530,-0.000,0.277,0.000,-0.006,-0.003,0.000,0.000,0.000,0.008,0.692,-0.006,0.722,0.0000000,0.0000000,257.211,0.000,0.000,0.000,0,00:00:00,0,0.000,0.000,0.000,0.000,0.000,0.000,0.000,0.000,0.000,0.000,0.000,0.000,0.000,0.000
21.882,1,0,3.456,2.871,280.705,7.260,4.984,274.267,5.529,3.365,136.662,0.000,0.000,0.0103675,0.000,9144.000,0.768,2.399,979.533,13.190,284.410,284.433,136.815,0.081,0.328,0.034,-0.009,-0.014,0.000,0.000,0.000,0.009,0.692,-0.008,0.722,0.0000000,0.0000000,284.131,0.000,0.000,0.000,0,00:00:00,0,0.000,0.000,0.000,0.000,0.000,0.000,0.000,0.000,0.000,0.000,0.000,0.000,0.000,0.000
21.983,1,0,3.814,3.066,309.594,7.651,5.152,288.480,5.869,3.278,137.112,0.000,0.000,0.0103675,0.000,9144.000,0.810,2.452,976.245,13.004,312.570,312.594,137.276,-0.027,0.335,-0.002,-0.026,-0.076,0.000,0.000,0.000,0.006,0.691,-0.011,0.723,0.0000000,0.0000000,312.424,0.000,0.000,0.000,0,00:00:00,0,0.000,0.000,0.000,0.000,0.000,0.000,0.000,0.000,0.000,0.000,0.000,0.000,0.000,0.000
22.084,1,0,4.172,3.256,339.842,8.009,5.298,302.646,5.739,3.161,137.207,0.000,0.000,0.0103675,0.000,9144.000,0.853,2.599,972.777,12.806,342.346,342.369,137.363,-0.139,0.346,-0.002,0.008,-0.032,0.000,0.000,0.000,0.005,0.691,-0.012,0.723,0.0000000,0.0000000,342.093,0.000,0.000,0.000,0,00:00:00,0,0.000,0.000,0.000,0.000,0.000,0.000,0.000,0.000,0.000,0.000,0.000,0.000,0.000,0.000
22.185,1,0,4.525,3.444,371.412,8.257,5.480,316.774,4.843,3.611,137.658,0.000,0.000,0.0103675,0.000,9144.000,0.895,2.551,969.191,12.603,373.233,373.256,137.790,0.080,0.453,0.015,0.058,-0.022,0.000,0.000,0.000,0.005,0.693,-0.013,0.721,0.0000000,0.0000000,373.139,0.000,0.000,0.000,0,00:00:00,0,0.000,0.000,0.000,0.000,0.000,0.000,0.000,0.000,0.000,0.000,0.000,0.000,0.000,0.000
22.286,1,0,4.866,3.628,404.347,8.467,5.620,330.894,4.635,3.292,138.055,0.000,0.000,0.0103675,0.000,9144.000,0.937,2.220,965.424,12.394,405.775,405.799,138.172,0.058,0.329,-0.023,0.024,-0.026,0.000,0.000,0.000,0.003,0.694,-0.013,0.720,0.0000000,0.0000000,405.566,0.000,0.000,0.000,0,00:00:00,0,0.000,0.000,0.000,0.000,0.000,0.000,0.000,0.000,0.000,0.000,0.000,0.000,0.000,0.000
22.387,1,0,5.193,3.809,438.617,8.675,5.771,344.947,4.785,3.503,138.058,0.000,0.000,0.0103675,0.000,9144.000,0.979,2.078,961.535,12.172,439.487,439.510,138.184,0.151,0.392,0.009,-0.015,0.007,0.000,0.000,0.000,0.004,0.694,-0.013,0.720,0.0000000,0.0000000,439.374,0.000,0.000,0.000,0,00:00:00,0,0.000,0.000,0.000,0.000,0.000,0.000,0.000,0.000,0.000,0.000,0.000,0.000,0.000,0.000
22.488,1,0,5.510,3.984,474.268,8.892,5.853,358.987,5.052,2.908,138.221,0.000,0.000,0.0103675,0.000,9144.000,1.021,2.167,957.463,11.941,474.896,474.920,138.343,-0.186,0.420,-0.020,-0.021,-0.024,0.000,0.000,0.000,0.002,0.693,-0.013,0.721,0.0000000,0.0000000,474.567,0.000,0.000,0.000,0,00:00:00,0,0.000,0.000,0.000,0.000,0.000,0.000,0.000,0.000,0.000,0.000,0.000,0.000,0.000,0.000
22.589,1,0,5.816,4.151,511.245,9.093,5.982,372.977,5.047,3.453,138.417,0.000,0.000,0.0103675,0.000,9144.000,1.063,2.286,953.291,11.700,511.301,511.325,138.551,0.359,0.402,-0.000,0.002,0.007,0.000,0.000,0.000,0.002,0.693,-0.013,0.721,0.0000000,0.0000000,511.144,0.000,0.000,0.000,0,00:00:00,0,0.000,0.000,0.000,0.000,0.000,0.000,0.000,0.000,0.000,0.000,0.000,0.000,0.000,0.000
22.690,1,0,6.111,4.313,549.573,9.297,6.074,386.916,5.229,3.188,138.375,0.000,0.000,0.0103675,0.000,9144.000,1.105,2.276,948.958,11.453,549.254,549.278,138.510,0.040,0.386,0.005,-0.011,0.017,0.000,0.000,0.000,0.003,0.693,-0.013,0.721,0.0000000,0.0000000,549.107,0.000,0.000,0.000,0,00:00:00,0,0.000,0.000,0.000,0.000,0.000,0.000,0.000,0.000,0.000,0.000,0.000,0.000,0.000,0.000
22.791,1,0,6.398,4.468,589.294,9.507,6.165,400.859,5.448,3.245,138.524,0.000,0.000,0.0103675,0.000,9144.000,1.147,2.341,944.451,11.193,588.877,588.901,138.668,-0.044,0.417,0.009,-0.018,-0.016,0.000,0.000,0.000,0.003,0.692,-0.014,0.722,0.0000000,0.0000000,588.456,0.000,0.000,0.000,0,00:00:00,0,0.000,0.000,0.000,0.000,0.000,0.000,0.000,0.000,0.000,0.000,0.000,0.000,0.000,0.000
22.892,1,0,6.677,4.619,630.366,9.719,6.296,414.764,5.607,3.730,138.570,0.000,0.000,0.0103675,0.000,9144.000,1.188,2.444,939.838,10.927,629.593,629.617,138.733,-0.078,0.313,0.036,-0.005,-0.032,0.000,0.000,0.000,0.003,0.692,-0.016,0.722,0.0000000,0.0000000,629.191,0.000,0.000,0.000,0,00:00:00,0,0.000,0.000,0.000,0.000,0.000,0.000,0.000,0.000,0.000,0.000,0.000,0.000,0.000,0.000
22.993,1,0,6.948,4.768,672.768,9.888,6.422,428.612,5.329,3.750,138.551,0.000,0.000,0.0103675,0.000,9144.000,1.230,2.473,935.103,10.652,671.547,671.570,138.703,0.124,0.463,-0.013,0.009,-0.009,0.000,0.000,0.000,0.002,0.692,-0.016,0.722,0.0000000,0.0000000,671.312,0.000,0.000,0.000,0,00:00:00,0,0.000,0.000,0.000,0.000,0.000,0.000,0.000,0.000,0.000,0.000,0.000,0.000,0.000,0.000
23.094,1,0,7.210,4.911,716.546,10.086,6.496,442.448,5.752,3.315,138.611,0.000,0.000,0.0103675,0.000,9144.000,1.272,2.423,930.200,10.364,715.179,715.202,138.770,-0.058,0.217,-0.018,-0.012,0.013,0.000,0.000,0.000,0.002,0.692,-0.015,0.722,0.0000000,0.0000000,714.819,0.000,0.000,0.000,0,00:00:00,0,0.000,0.000,0.000,0.000,0.000,0.000,0.000,0.000,0.000,0.000,0.000,0.000,0.000,0.000
23.195,1,0,7.463,5.047,761.674,10.233,6.548,456.227,5.378,3.167,138.388,0.000,0.000,0.0103675,0.000,9144.000,1.314,2.489,925.182,10.070,760.026,760.049,138.528,-0.016,0.490,-0.013,0.007,0.011,0.000,0.000,0.000,0.002,0.692,-0.014,0.722,0.0000000,0.0000000,759.710,0.000,0.000,0.000,0,00:00:00,0,0.000,0.000,0.000,0.000,0.000,0.000,0.000,0.000,0.000,0.000,0.000,0.000,0.000,0.000
23.296,1,0,7.704,5.171,808.165,10.354,6.516,469.976,5.254,2.405,138.300,0.000,0.000,0.0103675,0.000,9144.000,1.355,2.449,920.022,9.768,806.340,806.364,138.420,-0.048,0.502,-0.052,0.008,0.018,0.000,0.000,0.000,0.001,0.692,-0.012,0.722,0.0000000,0.0000000,805.984,0.000,0.000,0.000,0,00:00:00,0,0.000,0.000,0.000,0.000,0.000,0.000,0.000,0.000,0.000,0.000,0.000,0.000,0.000,0.000
23.397,1,0,7.934,5.279,856.052,10.470,6.437,483.739,5.324,2.000,138.389,0.000,0.000,0.0103675,0.000,9144.000,1.397,2.398,914.707,9.456,854.273,854.296,138.505,-0.041,0.457,-0.029,-0.001,0.011,0.000,0.000,0.000,0.000,0.692,-0.010,0.722,0.0000000,0.0000000,853.639,0.000,0.000,0.000,0,00:00:00,0,0.000,0.000,0.000,0.000,0.000,0.000,0.000,0.000,0.000,0.000,0.000,0.000,0.000,0.000
23.498,1,0,8.153,5.368,905.255,10.585,6.351,497.402,5.421,1.968,137.926,0.000,0.000,0.0103675,0.000,9144.000,1.439,2.403,909.326,9.135,903.032,903.055,138.046,0.039,0.470,-0.008,-0.010,-0.009,0.000,0.000,0.000,-0.001,0.692,-0.010,0.722,0.0000000,0.0000000,902.675,0.000,0.000,0.000,0,00:00:00,0,0.000,0.000,0.000,0.000,0.000,0.000,0.000,0.000,0.000,0.000,0.000,0.000,0.000,0.000
23.599,1,0,8.362,5.440,955.861,10.718,6.225,511.089,5.719,1.611,137.990,0.000,0.000,0.0103675,0.000,9144.000,1.480,2.458,903.752,8.808,953.783,953.806,138.117,-0.076,0.204,-0.018,-0.002,-0.010,0.000,0.000,0.000,-0.002,0.692,-0.010,0.722,0.0000000,0.0000000,953.087,0.000,0.000,0.000,0,00:00:00,0,0.000,0.000,0.000,0.000,0.000,0.000,0.000,0.000,0.000,0.000,0.000,0.000,0.000,0.000
23.700,1,0,8.565,5.493,1007.805,10.870,6.103,524.689,6.008,1.682,137.439,0.000,0.000,0.0103675,0.000,9144.000,1.522,2.468,898.104,8.463,1005.470,1005.494,137.580,0.006,0.299,0.000,-0.030,0.006,0.000,0.000,0.000,-0.001,0.691,-0.010,0.723,0.0000000,0.0000000,1004.875,0.000,0.000,0.000,0,00:00:00,0,0.000,0.000,0.000,0.000,0.000,0.000,0.000,0.000,0.000,0.000,0.000,0.000,0.000,0.000
23.801,1,0,8.763,5.531,1061.097,11.010,5.982,538.250,5.994,1.709,137.244,0.000,0.000,0.0103675,0.000,9144.000,1.563,2.638,892.328,8.115,1058.608,1058.632,137.385,-0.171,0.257,0.016,0.004,0.016,0.000,0.000,0.000,-0.000,0.691,-0.010,0.723,0.0000000,0.0000000,1058.035,0.000,0.000,0.000,0,00:00:00,0,0.000,0.000,0.000,0.000,0.000,0.000,0.000,0.000,0.000,0.000,0.000,0.000,0.000,0.000
23.902,1,0,8.952,5.555,1115.745,11.090,5.887,551.804,5.505,1.986,137.269,0.000,0.000,0.0103675,0.000,9144.000,1.604,2.617,886.427,7.759,1113.170,1113.194,137.393,0.183,0.538,-0.005,0.015,0.008,0.000,0.000,0.000,-0.000,0.691,-0.009,0.722,0.0000000,0.0000000,1112.564,0.000,0.000,0.000,0,00:00:00,0,0.000,0.000,0.000,0.000,0.000,0.000,0.000,0.000,0.000,0.000,0.000,0.000,0.000,0.000
24.003,1,0,9.130,5.566,1171.740,11.171,5.756,565.301,5.597,1.630,136.852,0.000,0.000,0.0103675,0.000,9144.000,1.646,2.532,880.417,7.393,1169.049,1169.072,136.976,0.024,0.409,-0.015,0.001,-0.011,0.000,0.000,0.000,-0.001,0.691,-0.009,0.722,0.0000000,0.0000000,1168.459,0.000,0.000,0.000,0,00:00:00,0,0.000,0.000,0.000,0.000,0.000,0.000,0.000,0.000,0.000,0.000,0.000,0.000,0.000,0.000
24.104,1,0,9.298,5.565,1229.076,11.218,5.643,578.725,5.356,1.806,136.269,0.000,0.000,0.0103675,0.000,9144.000,1.687,2.522,874.298,7.019,1226.266,1226.289,136.385,0.073,0.447,0.010,0.013,-0.006,0.000,0.000,0.000,-0.001,0.692,-0.010,0.722,0.0000000,0.0000000,1225.716,0.000,0.000,0.000,0,00:00:00,0,0.000,0.000,0.000,0.000,0.000,0.000,0.000,0.000,0.000,0.000,0.000,0.000,0.000,0.000
24.205,1,0,9.455,5.554,1287.767,11.294,5.519,592.126,5.724,1.696,136.047,0.000,0.000,0.0103675,0.000,9144.000,1.728,2.449,868.056,6.633,1284.958,1284.981,136.178,0.067,0.173,-0.008,-0.008,-0.005,0.000,0.000,0.000,-0.001,0.692,-0.010,0.722,0.0000000,0.0000000,1284.332,0.000,0.000,0.000,0,00:00:00,0,0.000,0.000,0.000,0.000,0.000,0.000,0.000,0.000,0.000,0.000,0.000,0.000,0.000,0.000
24.306,1,0,9.605,5.533,1347.802,11.382,5.418,605.476,5.925,1.904,135.588,0.000,0.000,0.0103675,0.000,9144.000,1.770,2.493,861.714,6.241,1344.947,1344.970,135.730,-0.020,0.364,0.022,-0.030,-0.013,0.000,0.000,0.000,-0.001,0.690,-0.011,0.723,0.0000000,0.0000000,1344.302,0.000,0.000,0.000,0,00:00:00,0,0.000,0.000,0.000,0.000,0.000,0.000,0.000,0.000,0.000,0.000,0.000,0.000,0.000,0.000
24.407,1,0,9.749,5.506,1409.179,11.469,5.332,618.785,5.988,2.052,135.218,0.000,0.000,0.0103675,0.000,9144.000,1.811,2.669,855.267,5.842,1406.300,1406.324,135.365,-0.070,0.370,0.014,-0.006,-0.012,0.000,0.000,0.000,-0.001,0.690,-0.012,0.724,0.0000000,0.0000000,1405.621,0.000,0.000,0.000,0,00:00:00,0,0.000,0.000,0.000,0.000,0.000,0.000,0.000,0.000,0.000,0.000,0.000,0.000,0.000,0.000
24.508,1,0,9.888,5.475,1471.920,11.552,5.288,632.066,6.017,2.443,134.781,0.000,0.000,0.0103675,0.000,9144.000,1.852,2.707,848.701,5.430,1469.170,1469.193,134.937,0.096,0.341,0.018,-0.001,0.027,0.000,0.000,0.000,0.001,0.690,-0.011,0.724,0.0000000,0.0000000,1468.287,0.000,0.000,0.000,0,00:00:00,0,0.000,0.000,0.000,0.000,0.000,0.000,0.000,0.000,0.000,0.000,0.000,0.000,0.000,0.000
24.609,1,0,10.020,5.443,1535.988,11.613,5.253,645.302,5.876,2.512,134.424,0.000,0.000,0.0103675,0.000,9144.000,1.893,2.716,842.058,5.009,1533.170,1533.194,134.575,0.247,0.394,-0.007,0.004,-0.034,0.000,0.000,0.000,-0.001,0.690,-0.012,0.723,0.0000000,0.0000000,1532.294,0.000,0.000,0.000,0,00:00:00,0,0.000,0.000,0.000,0.000,0.000,0.000,0.000,0.000,0.000,0.000,0.000,0.000,0.000,0.000
24.710,1,0,10.144,5.409,1601.339,11.663,5.160,658.437,5.827,1.927,133.807,0.000,0.000,0.0103675,0.000,9144.000,1.934,2.690,835.352,4.581,1598.201,1598.224,133.947,0.035,0.388,-0.026,0.003,0.018,0.000,0.000,0.000,-0.001,0.690,-0.011,0.723,0.0000000,0.0000000,1597.637,0.000,0.000,0.000,0,00:00:00,0,0.000,0.000,0.000,0.000,0.000,0.000,0.000,0.000,0.000,0.000,0.000,0.000,0.000,0.000
24.811,2,0,10.218,5.358,1666.732,10.746,4.810,651.237,-3.700,-0.648,-65.568,0.000,0.000,0.0103675,0.000,9144.000,1.975,2.673,828.820,4.162,1661.959,1661.982,-65.674,0.008,0.461,-0.042,-0.029,0.014,0.000,0.000,0.000,-0.002,0.689,-0.009,0.724,0.0000000,0.0000000,1661.328,0.000,0.000,0.000,0,00:00:00,0,0.000,0.000,0.000,0.000,0.000,0.000,0.000,0.000,0.000,0.000,0.000,0.000,0.000,0.000
24.912,2,0,10.201,5.278,1731.132,9.848,4.435,643.986,-3.529,-0.943,-64.034,0.000,0.000,0.0121429,0.000,9144.000,1.955,2.837,822.434,3.751,1724.675,1724.698,-64.137,-0.202,0.293,0.017,-0.011,0.020,0.000,0.000,0.000,-0.001,0.689,-0.009,0.725,0.0000000,0.0000000,1724.386,0.000,0.000,0.000,0,00:00:00,0,0.000,0.000,0.000,0.000,0.000,0.000,0.000,0.000,0.000,0.000,0.000,0.000,0.000,0.000
25.013,2,0,10.104,5.171,1785.877,8.947,4.055,630.069,-3.605,-1.045,-64.028,0.000,0.000,0.0121743,0.000,9144.000,1.934,2.904,822.434,3.751,1724.675,1724.698,-64.137,-0.202,0.293,0.017,-0.011,0.020,0.000,0.000,0.000,0.001,0.689,-0.009,0.725,0.0000000,0.0000000,1724.386,0.000,0.000,0.000,0,00:00:00,0,0.000,0.000,0.000,0.000,0.000,0.000,0.000,0.000,0.000,0.000,0.000,0.000,0.000,0.000
25.114,2,0,9.933,5.041,1849.323,8.056,3.722,623.970,-3.604,-0.642,-61.289,0.000,0.000,0.0123900,0.000,9144.000,1.892,2.970,809.788,2.937,1850.046,1850.069,-61.397,0.233,0.413,0.010,-0.003,-0.020,0.000,0.000,0.000,0.000,0.688,-0.010,0.725,0.0000000,0.0000000,1848.658,0.000,0.000,0.000,0,00:00:00,0,0.000,0.000,0.000,0.000,0.000,0.000,0.000,0.000,0.000,0.000,0.000,0.000,0.000,0.000
25.215,2,0,9.698,4.893,1911.839,7.184,3.366,617.772,-3.529,-0.951,-59.889,0.000,0.000,0.0124412,0.000,9144.000,1.877,2.987,803.737,2.533,1910.597,1910.620,-59.999,0.019,0.363,0.019,-0.008,-0.011,0.000,0.000,0.000,0.000,0.688,-0.011,0.726,0.0000000,0.0000000,1909.898,0.000,0.000,0.000,0,00:00:00,0,0.000,0.000,0.000,0.000,0.000,0.000,0.000,0.000,0.000,0.000,0.000,0.000,0.000,0.000
25.316,2,0,9.408,4.725,1973.585,6.367,3.014,611.600,-3.143,-1.000,-58.521,0.000,0.000,0.0124801,0.000,9144.000,1.860,3.037,797.697,2.136,1971.410,1971.433,-58.613,0.011,0.267,0.009,0.036,-0.040,0.000,0.000,0.000,-0.001,0.689,-0.012,0.724,0.0000000,0.0000000,1970.558,0.000,0.000,0.000,0,00:00:00,0,0.000,0.000,0.000,0.000,0.000,0.000,0.000,0.000,0.000,0.000,0.000,0.000,0.000,0.000
25.417,2,0,9.072,4.541,2034.577,5.589,2.661,605.430,-2.928,-1.109,-57.482,0.000,0.000,0.0125123,0.000,9144.000,1.842,2.831,791.759,1.743,2031.566,2031.589,-57.567,-0.019,0.149,0.017,0.008,0.005,0.000,0.000,0.000,0.000,0.690,-0.013,0.724,0.0000000,0.0000000,2030.648,0.000,0.000,0.000,0,00:00:00,0,0.000,0.000,0.000,0.000,0.000,0.000,0.000,0.000,0.000,0.000,0.000,0.000,0.000,0.000
25.518,2,0,8.698,4.343,2094.853,4.837,2.322,599.316,-2.875,-1.074,-56.207,0.000,0.000,0.0125505,0.000,9144.000,1.825,2.786,785.903,1.353,2091.236,2091.260,-56.290,-0.083,0.257,-0.013,0.018,0.002,0.000,0.000,0.000,-0.000,0.690,-0.012,0.723,0.0000000,0.0000000,2090.182,0.000,0.000,0.000,0,00:00:00,0,0.000,0.000,0.000,0.000,0.000,0.000,0.000,0.000,0.000,0.000,0.000,0.000,0.000,0.000
25.619,2,0,8.291,4.133,2154.414,4.123,2.003,593.226,-2.707,-0.980,-55.207,0.000,0.000,0.0125855,0.000,9144.000,1.808,2.684,780.155,0.965,2150.167,2150.191,-55.281,-0.031,0.309,-0.005,0.031,0.000,0.000,0.000,0.000,-0.000,0.691,-0.012,0.722,0.0000000,0.0000000,2149.170,0.000,0.000,0.000,0,00:00:00,0,0.000,0.000,0.000,0.000,0.000,0.000,0.000,0.000,0.000,0.000,0.000,0.000,0.000,0.000
25.720,2,0,7.859,3.916,2213.293,3.434,1.712,587.213,-2.687,-0.820,-53.891,0.000,0.000,0.0126248,0.000,9144.000,1.791,2.504,774.490,0.584,2208.594,2208.617,-53.963,0.015,0.412,-0.016,0.013,0.019,0.000,0.000,0.000,-0.000,0.692,-0.011,0.722,0.0000000,0.0000000,2207.622,0.000,0.000,0.000,0,00:00:00,0,0.000,0.000,0.000,0.000,0.000,0.000,0.000,0.000,0.000,0.000,0.000,0.000,0.000,0.000
25.821,2,0,7.407,3.692,2271.543,2.809,1.430,581.274,-2.296,-0.855,-52.972,0.000,0.000,0.0126590,0.000,9144.000,1.774,2.430,768.890,0.205,2266.682,2266.706,-53.027,-0.179,0.323,-0.027,0.049,0.003,0.000,0.000,0.000,-0.001,0.694,-0.010,0.720,0.0000000,0.0000000,2265.550,0.000,0.000,0.000,0,00:00:00,0,0.000,0.000,0.000,0.000,0.000,0.000,0.000,0.000,0.000,0.000,0.000,0.000,0.000,0.000
25.922,2,0,6.941,3.464,2329.194,2.197,1.169,575.453,-2.403,-0.762,-51.770,0.000,0.000,0.0126973,0.000,9144.000,1.757,2.146,763.368,-0.171,2324.307,2324.330,-51.829,0.007,0.539,0.021,0.013,0.027,0.000,0.000,0.000,0.001,0.694,-0.010,0.720,0.0000000,0.0000000,2322.963,0.000,0.000,0.000,0,00:00:00,0,0.000,0.000,0.000,0.000,0.000,0.000,0.000,0.000,0.000,0.000,0.000,0.000,0.000,0.000
26.023,2,0,6.463,3.234,2386.182,1.604,0.904,569.653,-2.482,-0.925,-50.959,0.000,0.000,0.0127327,0.000,9144.000,1.741,2.072,757.985,-0.544,2380.798,2380.822,-51.026,-0.157,0.377,0.003,-0.053,0.005,0.000,0.000,0.000,0.001,0.692,-0.010,0.722,0.0000000,0.0000000,2379.871,0.000,0.000,0.000,0,00:00:00,0,0.000,0.000,0.000,0.000,0.000,0.000,0.000,0.000,0.000,0.000,0.000,0.000,0.000,0.000
26.124,2,0,5.979,3.002,2442.642,1.078,0.665,563.990,-2.056,-0.791,-50.011,0.000,0.000,0.0127733,0.000,9144.000,1.724,2.377,752.605,-0.914,2437.591,2437.615,-50.059,-0.110,0.182,-0.015,0.038,-0.019,0.000,0.000,0.000,-0.000,0.694,-0.010,0.720,0.0000000,0.0000000,2436.283,0.000,0.000,0.000,0,00:00:00,0,0.000,0.000,0.000,0.000,0.000,0.000,0.000,0.000,0.000,0.000,0.000,0.000,0.000,0.000
26.225,2,0,5.494,2.771,2498.488,0.576,0.433,558.406,-2.087,-0.832,-48.866,0.000,0.000,0.0128142,0.000,9144.000,1.708,2.158,747.372,-1.284,2493.138,2493.162,-48.916,-0.111,0.428,0.011,0.035,0.002,0.000,0.000,0.000,0.000,0.695,-0.010,0.719,0.0000000,0.0000000,2492.209,0.000,0.000,0.000,0,00:00:00,0,0.000,0.000,0.000,0.000,0.000,0.000,0.000,0.000,0.000,0.000,0.000,0.000,0.000,0.000
26.326,2,0,5.009,2.541,2553.826,0.107,0.230,552.929,-2.009,-0.673,-48.197,0.000,0.000,0.0128520,0.000,9144.000,1.692,1.958,742.159,-1.644,2548.801,2548.825,-48.243,0.088,0.302,0.012,-0.014,0.023,0.000,0.000,0.000,0.001,0.694,-0.010,0.719,0.0000000,0.0000000,2547.657,0.000,0.000,0.000,0,00:00:00,0,0.000,0.000,0.000,0.000,0.000,0.000,0.000,0.000,0.000,0.000,0.000,0.000,0.000,0.000
26.427,2,0,4.529,2.314,2608.597,-0.339,0.028,547.521,-2.027,-0.787,-47.381,0.000,0.000,0.0128946,0.000,9144.000,1.677,2.037,737.067,-2.002,2603.465,2603.489,-47.428,0.086,0.458,0.024,0.022,-0.039,0.000,0.000,0.000,0.001,0.695,-0.012,0.719,0.0000000,0.0000000,2602.637,0.000,0.000,0.000,0,00:00:00,0,0.000,0.000,0.000,0.000,0.000,0.000,0.000,0.000,0.000,0.000,0.000,0.000,0.000,0.000
26.528,2,0,4.054,2.090,2662.946,-0.743,-0.173,542.285,-1.870,-0.889,-46.565,0.000,0.000,0.0129388,0.000,9144.000,1.662,1.911,731.966,-2.362,2658.547,2658.571,-46.610,0.034,0.302,0.015,-0.005,0.016,0.000,0.000,0.000,0.002,0.695,-0.012,0.719,0.0000000,0.0000000,2657.155,0.000,0.000,0.000,0,00:00:00,0,0.000,0.000,0.000,0.000,0.000,0.000,0.000,0.000,0.000,0.000,0.000,0.000,0.000,0.000
26.629,2,0,3.589,1.870,2716.770,-1.114,-0.353,537.135,-1.788,-0.798,-45.710,0.000,0.000,0.0129837,0.000,9144.000,1.647,1.943,727.009,-2.714,2712.366,2712.389,-45.752,0.050,0.248,-0.012,0.000,0.018,0.000,0.000,0.000,0.002,0.695,-0.011,0.719,0.0000000,0.0000000,2711.221,0.000,0.000,0.000,0,00:00:00,0,0.000,0.000,0.000,0.000,0.000,0.000,0.000,0.000,0.000,0.000,0.000,0.000,0.000,0.000
26.730,2,0,3.133,1.654,2770.137,-1.474,-0.528,532.104,-1.913,-0.865,-44.973,0.000,0.000,0.0130282,0.000,9144.000,1.632,1.941,722.086,-3.067,2766.101,2766.124,-45.020,0.064,0.414,0.019,0.003,-0.039,0.000,0.000,0.000,0.002,0.695,-0.013,0.719,0.0000000,0.0000000,2764.841,0.000,0.000,0.000,0,00:00:00,0,0.000,0.000,0.000,0.000,0.000,0.000,0.000,0.000,0.000,0.000,0.000,0.000,0.000,0.000
26.831,2,0,2.689,1.443,2822.988,-1.799,-0.701,527.161,-1.811,-0.952,-44.016,0.000,0.000,0.0130740,0.000,9144.000,1.618,1.926,717.279,-3.416,2818.873,2818.897,-44.060,-0.042,0.486,-0.000,0.032,-0.009,0.000,0.000,0.000,0.001,0.696,-0.013,0.718,0.0000000,0.0000000,2818.024,0.000,0.000,0.000,0,00:00:00,0,0.000,0.000,0.000,0.000,0.000,0.000,0.000,0.000,0.000,0.000,0.000,0.000,0.000,0.000
26.932,2,0,2.260,1.235,2875.483,-2.069,-0.881,522.386,-1.478,-1.132,-43.373,0.000,0.000,0.0131170,0.000,9144.000,1.604,1.744,712.445,-3.760,2872.224,2872.248,-43.412,-0.047,0.214,0.044,0.010,-0.004,0.000,0.000,0.000,0.003,0.697,-0.015,0.717,0.0000000,0.0000000,2870.777,0.000,0.000,0.000,0,00:00:00,0,0.000,0.000,0.000,0.000,0.000,0.000,0.000,0.000,0.000,0.000,0.000,0.000,0.000,0.000
27.033,2,0,1.847,1.032,2927.533,-2.327,-1.016,517.696,-1.583,-0.795,-42.783,0.000,0.000,0.0131618,0.000,9144.000,1.591,1.693,707.735,-4.104,2924.485,2924.509,-42.819,0.193,0.292,-0.020,-0.010,-0.014,0.000,0.000,0.000,0.001,0.696,-0.015,0.718,0.0000000,0.0000000,2923.107,0.000,0.000,0.000,0,00:00:00,0,0.000,0.000,0.000,0.000,0.000,0.000,0.000,0.000,0.000,0.000,0.000,0.000,0.000,0.000
27.134,2,0,1.449,0.836,2979.120,-2.577,-1.156,513.103,-1.712,-0.952,-41.885,0.000,0.000,0.0132085,0.000,9144.000,1.577,1.747,703.107,-4.444,2976.115,2976.138,-41.929,0.042,0.367,0.006,-0.020,0.001,0.000,0.000,0.000,0.002,0.696,-0.015,0.718,0.0000000,0.0000000,2975.021,0.000,0.000,0.000,0,00:00:00,0,0.000,0.000,0.000,0.000,0.000,0.000,0.000,0.000,0.000,0.000,0.000,0.000,0.000,0.000
27.235,2,0,1.067,0.646,3030.380,-2.809,-1.285,508.684,-1.739,-0.939,-41.134,0.000,0.000,0.0132526,0.000,9144.000,1.564,1.862,698.465,-4.780,3028.181,3028.204,-41.180,-0.031,0.300,-0.016,-0.029,-0.004,0.000,0.000,0.000,0.001,0.694,-0.014,0.719,0.0000000,0.0000000,3026.525,0.000,0.000,0.000,0,00:00:00,0,0.000,0.000,0.000,0.000,0.000,0.000,0.000,0.000,0.000,0.000,0.000,0.000,0.000,0.000
27.336,2,0,0.699,0.462,3081.202,-3.040,-1.401,504.322,-1.917,-0.898,-40.618,0.000,0.000,0.0132958,0.000,9144.000,1.552,2.028,693.953,-5.117,3079.048,3079.072,-40.670,0.142,0.434,0.036,-0.014,0.032,0.000,0.000,0.000,0.003,0.694,-0.014,0.720,0.0000000,0.0000000,3077.627,0.000,0.000,0.000,0,00:00:00,0,0.000,0.000,0.000,0.000,0.000,0.000,0.000,0.000,0.000,0.000,0.000,0.000,0.000,0.000
27.437,2,0,0.347,0.285,3131.617,-3.223,-1.530,500.044,-1.636,-1.129,-40.006,0.000,0.000,0.0133412,0.000,9144.000,1.539,2.109,689.489,-5.448,3129.646,3129.669,-40.054,-0.028,0.323,0.020,0.036,0.002,0.000,0.000,0.000,0.004,0.695,-0.015,0.719,0.0000000,0.0000000,3128.332,0.000,0.000,0.000,0,00:00:00,0,0.000,0.000,0.000,0.000,0.000,0.000,0.000,0.000,0.000,0.000,0.000,0.000,0.000,0.000
27.538,2,0,0.012,0.112,3174.595,-3.375,-1.658,490.532,-1.491,-1.208,-40.010,0.000,0.000,0.0133870,0.000,9144.000,1.527,1.902,689.489,-5.448,3129.646,3129.669,-40.054,-0.028,0.323,0.020,0.036,0.002,0.000,0.000,0.000,0.005,0.697,-0.016,0.717,0.0000000,0.0000000,3128.332,0.000,0.000,0.000,0,00:00:00,0,0.000,0.000,0.000,0.000,0.000,0.000,0.000,0.000,0.000,0.000,0.000,0.000,0.000,0.000
27.639,2,0,-0.303,-0.056,3210.724,-3.494,-1.785,476.620,-1.345,-1.287,-40.012,0.000,0.000,0.0134523,0.000,9144.000,1.498,1.696,689.489,-5.448,3129.646,3129.669,-40.054,-0.028,0.323,0.020,0.036,0.002,0.000,0.000,0.000,0.006,0.698,-0.016,0.716,0.0000000,0.0000000,3128.332,0.000,0.000,0.000,0,00:00:00,0,0.000,0.000,0.000,0.000,0.000,0.000,0.000,0.000,0.000,0.000,0.000,0.000,0.000,0.000
27.740,2,0,-0.599,-0.219,3261.609,-3.595,-1.889,474.975,-1.308,-1.146,-38.044,0.000,0.000,0.0103675,0.000,9144.000,1.456,1.489,676.393,-6.430,3279.632,3279.655,-38.083,0.035,0.232,-0.004,-0.027,0.009,0.000,0.000,0.000,0.006,0.697,-0.016,0.717,0.0000000,0.0000000,3278.126,0.000,0.000,0.000,0,00:00:00,0,0.000,0.000,0.000,0.000,0.000,0.000,0.000,0.000,0.000,0.000,0.000,0.000,0.000,0.000
27.841,2,0,-0.877,-0.375,3312.123,-3.705,-1.966,473.207,-1.550,-0.957,-37.729,0.000,0.000,0.0105409,0.000,9144.000,1.453,1.643,672.138,-6.750,3328.869,3328.893,-37.771,0.100,0.384,-0.031,-0.026,-0.001,0.000,0.000,0.000,0.005,0.696,-0.015,0.718,0.0000000,0.0000000,3327.304,0.000,0.000,0.000,0,00:00:00,0,0.000,0.000,0.000,0.000,0.000,0.000,0.000,0.000,0.000,0.000,0.000,0.000,0.000,0.000
27.942,2,0,-1.137,-0.523,3362.229,-3.787,-2.048,471.333,-1.410,-1.090,-37.058,0.000,0.000,0.0107053,0.000,9144.000,1.449,1.791,667.952,-7.071,3377.553,3377.576,-37.100,-0.042,0.319,0.002,0.013,-0.026,0.000,0.000,0.000,0.004,0.696,-0.016,0.717,0.0000000,0.0000000,3376.115,0.000,0.000,0.000,0,00:00:00,0,0.000,0.000,0.000,0.000,0.000,0.000,0.000,0.000,0.000,0.000,0.000,0.000,0.000,0.000
28.043,2,0,-1.380,-0.665,3411.938,-3.844,-2.122,469.359,-1.290,-1.087,-36.488,0.000,0.000,0.0108572,0.000,9144.000,1.444,1.714,663.811,-7.391,3425.967,3425.990,-36.524,-0.110,0.376,-0.016,0.043,-0.016,0.000,0.000,0.000,0.003,0.698,-0.016,0.716,0.0000000,0.0000000,3424.563,0.000,0.000,0.000,0,00:00:00,0,0.000,0.000,0.000,0.000,0.000,0.000,0.000,0.000,0.000,0.000,0.000,0.000,0.000,0.000
28.144,2,0,-1.604,-0.800,3461.276,-3.881,-2.192,467.314,-1.210,-1.112,-35.896,0.000,0.000,0.0109988,0.000,9144.000,1.439,1.465,659.702,-7.703,3474.237,3474.260,-35.932,-0.079,0.349,0.020,0.011,-0.008,0.000,0.000,0.000,0.003,0.698,-0.017,0.716,0.0000000,0.0000000,3472.654,0.000,0.000,0.000,0,00:00:00,0,0.000,0.000,0.000,0.000,0.000,0.000,0.000,0.000,0.000,0.000,0.000,0.000,0.000,0.000
28.245,2,0,-1.809,-0.928,3510.232,-3.900,-2.246,465.187,-1.146,-1.024,-35.398,0.000,0.000,0.0111310,0.000,9144.000,1.433,1.406,655.649,-8.018,3522.096,3522.120,-35.431,-0.004,0.195,0.002,-0.028,0.029,0.000,0.000,0.000,0.004,0.697,-0.016,0.717,0.0000000,0.0000000,3520.394,0.000,0.000,0.000,0,00:00:00,0,0.000,0.000,0.000,0.000,0.000,0.000,0.000,0.000,0.000,0.000,0.000,0.000,0.000,0.000
28.346,2,0,-1.997,-1.049,3558.797,-3.908,-2.295,462.974,-1.130,-1.032,-34.928,0.000,0.000,0.0112557,0.000,9144.000,1.428,1.566,651.648,-8.328,3569.569,3569.593,-34.961,0.058,0.136,0.023,-0.016,-0.035,0.000,0.000,0.000,0.004,0.697,-0.018,0.717,0.0000000,0.0000000,3567.786,0.000,0.000,0.000,0,00:00:00,0,0.000,0.000,0.000,0.000,0.000,0.000,0.000,0.000,0.000,0.000,0.000,0.000,0.000,0.000
28.447,2,0,-2.168,-1.163,3606.939,-3.920,-2.352,460.641,-1.256,-1.174,-34.622,0.000,0.000,0.0113740,0.000,9144.000,1.422,1.662,647.715,-8.635,3616.470,3616.494,-34.664,-0.020,0.187,0.021,-0.025,-0.001,0.000,0.000,0.000,0.005,0.696,-0.019,0.718,0.0000000,0.0000000,3614.836,0.000,0.000,0.000,0,00:00:00,0,0.000,0.000,0.000,0.000,0.000,0.000,0.000,0.000,0.000,0.000,0.000,0.000,0.000,0.000
28.548,2,0,-2.324,-1.271,3654.683,-3.939,-2.387,458.252,-1.409,-1.019,-33.955,0.000,0.000,0.0114887,0.000,9144.000,1.416,1.805,643.815,-8.940,3663.206,3663.229,-33.998,0.000,0.323,-0.034,-0.011,0.013,0.000,0.000,0.000,0.004,0.696,-0.017,0.718,0.0000000,0.0000000,3661.549,0.000,0.000,0.000,0,00:00:00,0,0.000,0.000,0.000,0.000,0.000,0.000,0.000,0.000,0.000,0.000,0.000,0.000,0.000,0.000
28.649,2,0,-2.467,-1.371,3702.036,-3.946,-2.420,455.799,-1.362,-1.046,-33.465,0.000,0.000,0.0115957,0.000,9144.000,1.409,1.862,639.960,-9.244,3709.622,3709.646,-33.508,-0.037,0.304,0.001,0.003,-0.003,0.000,0.000,0.000,0.004,0.696,-0.017,0.718,0.0000000,0.0000000,3707.928,0.000,0.000,0.000,0,00:00:00,0,0.000,0.000,0.000,0.000,0.000,0.000,0.000,0.000,0.000,0.000,0.000,0.000,0.000,0.000
28.750,2,0,-2.598,-1.465,3748.921,-3.992,-2.451,453.216,-1.822,-1.080,-33.102,0.000,0.000,0.0116977,0.000,9144.000,1.402,1.843,636.199,-9.546,3755.141,3755.165,-33.164,-0.034,0.648,0.014,-0.037,0.026,0.000,0.000,0.000,0.005,0.694,-0.017,0.720,0.0000000,0.0000000,3753.979,0.000,0.000,0.000,0,00:00:00,0,0.000,0.000,0.000,0.000,0.000,0.000,0.000,0.000,0.000,0.000,0.000,0.000,0.000,0.000
28.851,2,0,-2.720,-1.552,3795.480,-3.997,-2.456,450.646,-1.480,-0.861,-32.468,0.000,0.000,0.0117970,0.000,9144.000,1.395,2.058,632.404,-9.846,3801.283,3801.306,-32.511,0.140,0.362,-0.005,0.011,0.017,0.000,0.000,0.000,0.006,0.695,-0.016,0.719,0.0000000,0.0000000,3799.707,0.000,0.000,0.000,0,00:00:00,0,0.000,0.000,0.000,0.000,0.000,0.000,0.000,0.000,0.000,0.000,0.000,0.000,0.000,0.000
28.952,2,0,-2.831,-1.632,3841.628,-4.017,-2.468,447.984,-1.695,-0.979,-32.255,0.000,0.000,0.0118900,0.000,9144.000,1.388,1.993,628.703,-10.145,3846.496,3846.519,-32.309,-0.029,0.624,-0.015,0.012,-0.004,0.000,0.000,0.000,0.005,0.695,-0.015,0.719,0.0000000,0.0000000,3845.114,0.000,0.000,0.000,0,00:00:00,0,0.000,0.000,0.000,0.000,0.000,0.000,0.000,0.000,0.000,0.000,0.000,0.000,0.000,0.000
29.053,2,0,-2.932,-1.705,3887.387,-3.983,-2.484,445.282,-1.203,-1.052,-31.750,0.000,0.000,0.0119825,0.000,9144.000,1.381,1.925,625.036,-10.440,3891.507,3891.531,-31.789,-0.073,0.247,0.017,0.032,0.039,0.000,0.000,0.000,0.007,0.696,-0.015,0.718,0.0000000,0.0000000,3890.205,0.000,0.000,0.000,0,00:00:00,0,0.000,0.000,0.000,0.000,0.000,0.000,0.000,0.000,0.000,0.000,0.000,0.000,0.000,0.000
29.154,2,0,-3.020,-1.773,3932.856,-3.951,-2.480,442.597,-1.272,-0.897,-31.433,0.000,0.000,0.0120709,0.000,9144.000,1.373,1.744,621.359,-10.734,3936.854,3936.878,-31.471,0.042,0.247,-0.010,-0.025,-0.007,0.000,0.000,0.000,0.006,0.695,-0.015,0.718,0.0000000,0.0000000,3934.985,0.000,0.000,0.000,0,00:00:00,0,0.000,0.000,0.000,0.000,0.000,0.000,0.000,0.000,0.000,0.000,0.000,0.000,0.000,0.000
29.255,2,0,-3.097,-1.832,3977.945,-3.928,-2.456,439.905,-1.398,-0.721,-30.670,0.000,0.000,0.0121578,0.000,9144.000,1.365,1.886,617.776,-11.021,3981.257,3981.280,-30.707,0.125,0.442,-0.024,0.015,-0.004,0.000,0.000,0.000,0.005,0.696,-0.014,0.718,0.0000000,0.0000000,3979.456,0.000,0.000,0.000,0,00:00:00,0,0.000,0.000,0.000,0.000,0.000,0.000,0.000,0.000,0.000,0.000,0.000,0.000,0.000,0.000
29.356,2,0,-3.164,-1.884,4022.598,-3.899,-2.440,437.111,-1.379,-0.837,-30.460,0.000,0.000,0.0122381,0.000,9144.000,1.358,1.801,614.271,-11.314,4024.892,4024.915,-30.498,-0.055,0.504,-0.019,0.024,-0.002,0.000,0.000,0.000,0.005,0.697,-0.013,0.717,0.0000000,0.0000000,4023.624,0.000,0.000,0.000,0,00:00:00,0,0.000,0.000,0.000,0.000,0.000,0.000,0.000,0.000,0.000,0.000,0.000,0.000,0.000,0.000
29.457,2,0,-3.222,-1.930,4067.045,-3.850,-2.418,434.392,-1.202,-0.794,-30.275,0.000,0.000,0.0123186,0.000,9144.000,1.350,1.664,610.680,-11.600,4069.805,4069.829,-30.307,-0.084,0.331,-0.022,-0.000,0.009,0.000,0.000,0.000,0.004,0.697,-0.012,0.717,0.0000000,0.0000000,4067.492,0.000,0.000,0.000,0,00:00:00,0,0.000,0.000,0.000,0.000,0.000,0.000,0.000,0.000,0.000,0.000,0.000,0.000,0.000,0.000
29.558,2,0,-3.269,-1.968,4111.034,-3.796,-2.384,431.580,-1.189,-0.699,-29.822,0.000,0.000,0.0123994,0.000,9144.000,1.342,1.662,607.271,-11.887,4112.650,4112.673,-29.852,-0.051,0.263,-0.016,-0.023,0.012,0.000,0.000,0.000,0.004,0.696,-0.011,0.718,0.0000000,0.0000000,4111.062,0.000,0.000,0.000,0,00:00:00,0,0.000,0.000,0.000,0.000,0.000,0.000,0.000,0.000,0.000,0.000,0.000,0.000,0.000,0.000
29.659,2,0,-3.309,-2.000,4154.652,-3.771,-2.347,428.732,-1.496,-0.686,-29.521,0.000,0.000,0.0124776,0.000,9144.000,1.334,1.792,603.858,-12.170,4155.726,4155.749,-29.563,-0.005,0.468,0.012,-0.037,-0.015,0.000,0.000,0.000,0.004,0.695,-0.012,0.719,0.0000000,0.0000000,4154.341,0.000,0.000,0.000,0,00:00:00,0,0.000,0.000,0.000,0.000,0.000,0.000,0.000,0.000,0.000,0.000,0.000,0.000,0.000,0.000
29.760,2,0,-3.341,-2.025,4197.984,-3.728,-2.304,425.921,-1.328,-0.643,-29.152,0.000,0.000,0.0125554,0.000,9144.000,1.326,2.007,600.442,-12.451,4199.058,4199.081,-29.187,0.076,0.322,0.016,0.003,-0.013,0.000,0.000,0.000,0.004,0.695,-0.013,0.719,0.0000000,0.0000000,4197.329,0.000,0.000,0.000,0,00:00:00,0,0.000,0.000,0.000,0.000,0.000,0.000,0.000,0.000,0.000,0.000,0.000,0.000,0.000,0.000
29.861,2,0,-3.367,-2.045,4241.017,-3.684,-2.296,423.140,-1.333,-0.991,-28.731,0.000,0.000,0.0126317,0.000,9144.000,1.318,1.990,597.072,-12.729,4241.983,4242.007,-28.777,-0.161,0.269,0.042,-0.026,-0.005,0.000,0.000,0.000,0.005,0.694,-0.015,0.720,0.0000000,0.0000000,4240.032,0.000,0.000,0.000,0,00:00:00,0,0.000,0.000,0.000,0.000,0.000,0.000,0.000,0.000,0.000,0.000,0.000,0.000,0.000,0.000
29.962,2,0,-3.386,-2.062,4283.695,-3.636,-2.265,420.335,-1.310,-0.781,-28.401,0.000,0.000,0.0127061,0.000,9144.000,1.310,2.144,593.774,-13.010,4284.195,4284.219,-28.440,0.078,0.279,0.015,0.009,0.018,0.000,0.000,0.000,0.006,0.694,-0.015,0.720,0.0000000,0.0000000,4282.451,0.000,0.000,0.000,0,00:00:00,0,0.000,0.000,0.000,0.000,0.000,0.000,0.000,0.000,0.000,0.000,0.000,0.000,0.000,0.000
30.063,2,0,-3.399,-2.075,4326.035,-3.587,-2.244,417.520,-1.299,-0.880,-28.099,0.000,0.000,0.0127795,0.000,9144.000,1.302,2.094,590.506,-13.286,4326.197,4326.220,-28.141,-0.082,0.267,-0.020,-0.006,-0.028,0.000,0.000,0.000,0.005,0.694,-0.015,0.720,0.0000000,0.0000000,4324.591,0.000,0.000,0.000,0,00:00:00,0,0.000,0.000,0.000,0.000,0.000,0.000,0.000,0.000,0.000,0.000,0.000,0.000,0.000,0.000
30.164,2,0,-3.406,-2.083,4368.107,-3.543,-2.193,414.749,-1.354,-0.594,-27.756,0.000,0.000,0.0128525,0.000,9144.000,1.294,2.128,587.242,-13.559,4368.352,4368.375,-27.793,0.098,0.303,-0.033,-0.010,0.034,0.000,0.000,0.000,0.005,0.694,-0.013,0.720,0.0000000,0.0000000,4366.455,0.000,0.000,0.000,0,00:00:00,0,0.000,0.000,0.000,0.000,0.000,0.000,0.000,0.000,0.000,0.000,0.000,0.000,0.000,0.000
30.265,2,0,-3.409,-2.085,4409.932,-3.506,-2.131,411.992,-1.433,-0.479,-27.871,0.000,0.000,0.0129245,0.000,9144.000,1.287,2.181,584.001,-13.833,4410.386,4410.409,-27.908,0.230,0.388,0.002,0.003,-0.043,0.000,0.000,0.000,0.003,0.694,-0.014,0.720,0.0000000,0.0000000,4408.045,0.000,0.000,0.000,0,00:00:00,0,0.000,0.000,0.000,0.000,0.000,0.000,0.000,0.000,0.000,0.000,0.000,0.000,0.000,0.000
30.366,2,0,-3.407,-2.083,4451.350,-3.443,-2.088,409.217,-1.167,-0.674,-27.073,0.000,0.000,0.0130006,0.000,9144.000,1.279,2.162,580.884,-14.104,4450.989,4451.012,-27.106,-0.035,0.145,-0.018,-0.004,-0.017,0.000,0.000,0.000,0.002,0.693,-0.014,0.720,0.0000000,0.0000000,4449.366,0.000,0.000,0.000,0,00:00:00,0,0.000,0.000,0.000,0.000,0.000,0.000,0.000,0.000,0.000,0.000,0.000,0.000,0.000,0.000
30.467,2,0,-3.401,-2.076,4492.526,-3.417,-2.029,406.492,-1.531,-0.511,-26.837,0.000,0.000,0.0130705,0.000,9144.000,1.271,2.185,577.720,-14.372,4492.387,4492.411,-26.881,0.093,0.480,-0.014,-0.013,-0.011,0.000,0.000,0.000,0.001,0.693,-0.014,0.721,0.0000000,0.0000000,4490.418,0.000,0.000,0.000,0,00:00:00,0,0.000,0.000,0.000,0.000,0.000,0.000,0.000,0.000,0.000,0.000,0.000,0.000,0.000,0.000
30.568,2,0,-3.393,-2.065,4533.435,-3.386,-1.989,403.793,-1.471,-0.689,-26.650,0.000,0.000,0.0131408,0.000,9144.000,1.263,2.260,574.604,-14.640,4533.349,4533.373,-26.695,-0.022,0.484,0.024,0.020,-0.023,0.000,0.000,0.000,0.001,0.694,-0.016,0.720,0.0000000,0.0000000,4531.207,0.000,0.000,0.000,0,00:00:00,0,0.000,0.000,0.000,0.000,0.000,0.000,0.000,0.000,0.000,0.000,0.000,0.000,0.000,0.000
30.669,2,0,-3.382,-2.051,4574.053,-3.337,-1.945,401.118,-1.301,-0.641,-26.249,0.000,0.000,0.0132119,0.000,9144.000,1.255,2.149,571.537,-14.905,4573.834,4573.858,-26.287,0.057,0.336,0.017,0.004,0.013,0.000,0.000,0.000,0.002,0.694,-0.016,0.720,0.0000000,0.0000000,4571.734,0.000,0.000,0.000,0,00:00:00,0,0.000,0.000,0.000,0.000,0.000,0.000,0.000,0.000,0.000,0.000,0.000,0.000,0.000,0.000
30.770,2,0,-3.368,-2.035,4614.355,-3.283,-1.902,398.426,-1.238,-0.641,-26.075,0.000,0.000,0.0132812,0.000,9144.000,1.247,2.129,568.518,-15.166,4613.853,4613.876,-26.111,0.104,0.297,0.020,0.006,-0.012,0.000,0.000,0.000,0.003,0.694,-0.017,0.720,0.0000000,0.0000000,4612.003,0.000,0.000,0.000,0,00:00:00,0,0.000,0.000,0.000,0.000,0.000,0.000,0.000,0.000,0.000,0.000,0.000,0.000,0.000,0.000
30.871,2,0,-3.349,-2.016,4654.390,-3.222,-1.868,395.785,-1.151,-0.721,-25.599,0.000,0.000,0.0133514,0.000,9144.000,1.240,2.095,565.510,-15.428,4653.907,4653.931,-25.634,0.082,0.220,0.028,-0.003,-0.008,0.000,0.000,0.000,0.003,0.694,-0.018,0.720,0.0000000,0.0000000,4652.016,0.000,0.000,0.000,0,00:00:00,0,0.000,0.000,0.000,0.000,0.000,0.000,0.000,0.000,0.000,0.000,0.000,0.000,0.000,0.000
30.972,2,0,-3.328,-1.995,4694.226,-3.184,-1.816,393.206,-1.377,-0.542,-25.466,0.000,0.000,0.0134190,0.000,9144.000,1.232,2.115,562.500,-15.690,4694.149,4694.172,-25.505,0.185,0.425,-0.032,-0.011,-0.042,0.000,0.000,0.000,0.001,0.694,-0.019,0.720,0.0000000,0.0000000,4691.775,0.000,0.000,0.000,0,00:00:00,0,0.000,0.000,0.000,0.000,0.000,0.000,0.000,0.000,0.000,0.000,0.000,0.000,0.000,0.000
31.073,2,0,-3.305,-1.973,4733.730,-3.133,-1.781,390.588,-1.235,-0.686,-25.329,0.000,0.000,0.0103675,0.000,9144.000,1.225,2.171,559.591,-15.950,4733.217,4733.240,-25.366,0.059,0.273,0.011,-0.006,0.029,0.000,0.000,0.000,0.002,0.693,-0.018,0.720,0.0000000,0.0000000,4731.283,0.000,0.000,0.000,0,00:00:00,0,0.000,0.000,0.000,0.000,0.000,0.000,0.000,0.000,0.000,0.000,0.000,0.000,0.000,0.000
31.174,2,0,-3.279,-1.949,4767.471,-3.086,-1.749,383.862,-1.253,-0.711,-25.327,0.000,0.000,0.0104872,0.000,9144.000,1.217,2.208,559.591,-15.950,4733.217,4733.240,-25.366,0.059,0.273,0.011,-0.006,0.029,0.000,0.000,0.000,0.004,0.693,-0.017,0.721,0.0000000,0.0000000,4731.283,0.000,0.000,0.000,0,00:00:00,0,0.000,0.000,0.000,0.000,0.000,0.000,0.000,0.000,0.000,0.000,0.000,0.000,0.000,0.000
31.275,2,0,-3.252,-1.925,4795.899,-3.041,-1.721,373.673,-1.271,-0.736,-25.325,0.000,0.000,0.0106142,0.000,9144.000,1.196,2.245,559.591,-15.950,4733.217,4733.240,-25.366,0.059,0.273,0.011,-0.006,0.029,0.000,0.000,0.000,0.005,0.693,-0.017,0.721,0.0000000,0.0000000,4731.283,0.000,0.000,0.000,0,00:00:00,0,0.000,0.000,0.000,0.000,0.000,0.000,0.000,0.000,0.000,0.000,0.000,0.000,0.000,0.000
31.376,2,0,-3.223,-1.901,4835.899,-2.999,-1.696,372.990,-1.277,-0.756,-24.392,0.000,0.000,0.0107540,0.000,9144.000,1.164,2.282,550.931,-16.717,4850.495,4850.518,-24.435,-0.042,0.303,-0.021,-0.005,0.020,0.000,0.000,0.000,0.005,0.693,-0.015,0.721,0.0000000,0.0000000,4848.330,0.000,0.000,0.000,0,00:00:00,0,0.000,0.000,0.000,0.000,0.000,0.000,0.000,0.000,0.000,0.000,0.000,0.000,0.000,0.000
31.477,2,0,-3.193,-1.876,4870.233,-2.960,-1.668,368.125,-1.292,-0.703,-24.393,0.000,0.000,0.0108809,0.000,9144.000,1.164,2.311,550.931,-16.717,4850.495,4850.518,-24.435,-0.042,0.303,-0.021,-0.005,0.020,0.000,0.000,0.000,0.005,0.692,-0.014,0.721,0.0000000,0.0000000,4848.330,0.000,0.000,0.000,0,00:00:00,0,0.000,0.000,0.000,0.000,0.000,0.000,0.000,0.000,0.000,0.000,0.000,0.000,0.000,0.000
31.578,2,0,-3.163,-1.851,4910.087,-2.922,-1.620,367.811,-1.283,-0.495,-23.783,0.000,0.000,0.0110127,0.000,9144.000,1.149,2.341,545.325,-17.220,4927.207,4927.230,-23.820,0.120,0.353,-0.011,0.016,0.010,0.000,0.000,0.000,0.005,0.693,-0.013,0.721,0.0000000,0.0000000,4925.153,0.000,0.000,0.000,0,00:00:00,0,0.000,0.000,0.000,0.000,0.000,0.000,0.000,0.000,0.000,0.000,0.000,0.000,0.000,0.000
31.679,2,0,-3.132,-1.823,4949.688,-2.890,-1.582,367.372,-1.338,-0.583,-23.376,0.000,0.000,0.0111350,0.000,9144.000,1.149,2.251,542.548,-17.466,4965.443,4965.467,-23.418,0.041,0.409,0.010,-0.006,0.037,0.000,0.000,0.000,0.007,0.693,-0.012,0.721,0.0000000,0.0000000,4963.209,0.000,0.000,0.000,0,00:00:00,0,0.000,0.000,0.000,0.000,0.000,0.000,0.000,0.000,0.000,0.000,0.000,0.000,0.000,0.000
31.780,2,0,-3.101,-1.795,4989.011,-2.855,-1.543,366.757,-1.277,-0.562,-23.382,0.000,0.000,0.0112509,0.000,9144.000,1.148,2.286,539.808,-17.715,5003.330,5003.354,-23.420,0.098,0.372,0.014,0.010,-0.023,0.000,0.000,0.000,0.006,0.693,-0.013,0.721,0.0000000,0.0000000,5001.032,0.000,0.000,0.000,0,00:00:00,0,0.000,0.000,0.000,0.000,0.000,0.000,0.000,0.000,0.000,0.000,0.000,0.000,0.000,0.000
31.881,2,0,-3.069,-1.767,5028.023,-2.808,-1.523,365.976,-1.158,-0.734,-23.169,0.000,0.000,0.0113656,0.000,9144.000,1.147,2.229,537.108,-17.963,5040.807,5040.831,-23.208,-0.111,0.236,-0.013,-0.012,-0.002,0.000,0.000,0.000,0.006,0.693,-0.013,0.721,0.0000000,0.0000000,5038.623,0.000,0.000,0.000,0,00:00:00,0,0.000,0.000,0.000,0.000,0.000,0.000,0.000,0.000,0.000,0.000,0.000,0.000,0.000,0.000
31.982,2,0,-3.036,-1.740,5066.723,-2.775,-1.509,365.028,-1.264,-0.772,-23.104,0.000,0.000,0.0114769,0.000,9144.000,1.145,2.295,534.435,-18.206,5078.074,5078.098,-23.148,-0.123,0.412,0.008,0.027,-0.051,0.000,0.000,0.000,0.004,0.694,-0.015,0.720,0.0000000,0.0000000,5075.983,0.000,0.000,0.000,0,00:00:00,0,0.000,0.000,0.000,0.000,0.000,0.000,0.000,0.000,0.000,0.000,0.000,0.000,0.000,0.000
32.083,2,0,-3.005,-1.715,5105.108,-2.760,-1.522,363.933,-1.437,-1.029,-22.936,0.000,0.000,0.0115869,0.000,9144.000,1.143,2.140,531.788,-18.449,5115.113,5115.136,-22.994,-0.389,0.583,-0.003,-0.006,-0.000,0.000,0.000,0.000,0.004,0.694,-0.015,0.720,0.0000000,0.0000000,5113.117,0.000,0.000,0.000,0,00:00:00,0,0.000,0.000,0.000,0.000,0.000,0.000,0.000,0.000,0.000,0.000,0.000,0.000,0.000,0.000
32.184,2,0,-2.973,-1.693,5143.265,-2.722,-1.503,362.786,-1.178,-0.706,-22.560,0.000,0.000,0.0116950,0.000,9144.000,1.140,2.171,529.125,-18.692,5152.538,5152.562,-22.598,-0.123,0.355,-0.018,0.011,0.036,0.000,0.000,0.000,0.005,0.694,-0.013,0.720,0.0000000,0.0000000,5150.025,0.000,0.000,0.000,0,00:00:00,0,0.000,0.000,0.000,0.000,0.000,0.000,0.000,0.000,0.000,0.000,0.000,0.000,0.000,0.000
32.285,2,0,-2.943,-1.670,5181.051,-2.711,-1.468,361.475,-1.445,-0.533,-22.287,0.000,0.000,0.0117982,0.000,9144.000,1.137,2.109,526.559,-18.931,5188.745,5188.769,-22.332,0.088,0.581,0.017,-0.022,-0.034,0.000,0.000,0.000,0.004,0.693,-0.015,0.721,0.0000000,0.0000000,5186.711,0.000,0.000,0.000,0,00:00:00,0,0.000,0.000,0.000,0.000,0.000,0.000,0.000,0.000,0.000,0.000,0.000,0.000,0.000,0.000
32.386,2,0,-2.913,-1.646,5218.601,-2.681,-1.434,360.118,-1.234,-0.529,-21.962,0.000,0.000,0.0118986,0.000,9144.000,1.133,2.238,523.953,-19.172,5225.650,5225.673,-21.999,0.054,0.429,-0.014,0.020,-0.034,0.000,0.000,0.000,0.003,0.694,-0.016,0.720,0.0000000,0.0000000,5223.175,0.000,0.000,0.000,0,00:00:00,0,0.000,0.000,0.000,0.000,0.000,0.000,0.000,0.000,0.000,0.000,0.000,0.000,0.000,0.000
32.487,2,0,-2.883,-1.622,5255.835,-2.639,-1.411,358.638,-1.101,-0.621,-21.859,0.000,0.000,0.0119954,0.000,9144.000,1.129,2.122,521.413,-19.407,5261.786,5261.809,-21.894,-0.032,0.233,0.005,-0.032,-0.005,0.000,0.000,0.000,0.002,0.693,-0.016,0.721,0.0000000,0.0000000,5259.419,0.000,0.000,0.000,0,00:00:00,0,0.000,0.000,0.000,0.000,0.000,0.000,0.000,0.000,0.000,0.000,0.000,0.000,0.000,0.000
32.588,2,0,-2.852,-1.597,5292.794,-2.587,-1.376,357.077,-0.985,-0.494,-21.719,0.000,0.000,0.0120916,0.000,9144.000,1.125,2.303,518.878,-19.643,5297.968,5297.992,-21.746,0.101,0.092,0.007,-0.013,0.004,0.000,0.000,0.000,0.003,0.692,-0.016,0.721,0.0000000,0.0000000,5295.446,0.000,0.000,0.000,0,00:00:00,0,0.000,0.000,0.000,0.000,0.000,0.000,0.000,0.000,0.000,0.000,0.000,0.000,0.000,0.000
32.689,2,0,-2.820,-1.572,5329.435,-2.560,-1.352,355.420,-1.215,-0.595,-21.481,0.000,0.000,0.0121868,0.000,9144.000,1.121,2.377,516.391,-19.880,5333.618,5333.642,-21.520,0.016,0.356,0.009,0.011,0.025,0.000,0.000,0.000,0.004,0.693,-0.016,0.721,0.0000000,0.0000000,5331.258,0.000,0.000,0.000,0,00:00:00,0,0.000,0.000,0.000,0.000,0.000,0.000,0.000,0.000,0.000,0.000,0.000,0.000,0.000,0.000
32.790,2,0,-2.788,-1.547,5365.751,-2.535,-1.326,353.630,-1.219,-0.556,-21.638,0.000,0.000,0.0122803,0.000,9144.000,1.116,2.316,513.934,-20.112,5368.972,5368.996,-21.677,0.076,0.305,0.007,-0.022,-0.014,0.000,0.000,0.000,0.004,0.692,-0.016,0.722,0.0000000,0.0000000,5366.856,0.000,0.000,0.000,0,00:00:00,0,0.000,0.000,0.000,0.000,0.000,0.000,0.000,0.000,0.000,0.000,0.000,0.000,0.000,0.000
32.891,2,0,-2.757,-1.524,5401.795,-2.498,-1.337,351.793,-1.085,-0.909,-21.414,0.000,0.000,0.0123768,0.000,9144.000,1.111,2.443,511.478,-20.342,5404.450,5404.473,-21.459,-0.221,0.190,0.029,0.001,-0.027,0.000,0.000,0.000,0.004,0.692,-0.018,0.722,0.0000000,0.0000000,5402.242,0.000,0.000,0.000,0,00:00:00,0,0.000,0.000,0.000,0.000,0.000,0.000,0.000,0.000,0.000,0.000,0.000,0.000,0.000,0.000
32.992,2,0,-2.725,-1.502,5437.577,-2.456,-1.324,349.915,-1.016,-0.658,-21.251,0.000,0.000,0.0124719,0.000,9144.000,1.106,2.441,509.043,-20.573,5439.757,5439.780,-21.285,0.014,0.127,-0.004,0.002,0.011,0.000,0.000,0.000,0.004,0.692,-0.018,0.722,0.0000000,0.0000000,5437.418,0.000,0.000,0.000,0,00:00:00,0,0.000,0.000,0.000,0.000,0.000,0.000,0.000,0.000,0.000,0.000,0.000,0.000,0.000,0.000
33.093,2,0,-2.693,-1.482,5473.074,-2.432,-1.315,347.997,-1.180,-0.693,-20.939,0.000,0.000,0.0125663,0.000,9144.000,1.100,2.430,506.645,-20.803,5474.662,5474.686,-20.983,-0.008,0.212,0.009,-0.044,-0.017,0.000,0.000,0.000,0.004,0.690,-0.019,0.723,0.0000000,0.0000000,5472.386,0.000,0.000,0.000,0,00:00:00,0,0.000,0.000,0.000,0.000,0.000,0.000,0.000,0.000,0.000,0.000,0.000,0.000,0.000,0.000
33.194,2,0,-2.663,-1.463,5508.331,-2.433,-1.311,346.069,-1.408,-0.732,-20.675,0.000,0.000,0.0126585,0.000,9144.000,1.095,2.684,504.253,-21.029,5509.626,5509.650,-20.731,-0.025,0.443,0.010,-0.006,-0.034,0.000,0.000,0.000,0.003,0.690,-0.020,0.723,0.0000000,0.0000000,5507.147,0.000,0.000,0.000,0,00:00:00,0,0.000,0.000,0.000,0.000,0.000,0.000,0.000,0.000,0.000,0.000,0.000,0.000,0.000,0.000
33.295,2,0,-2.635,-1.446,5543.310,-2.413,-1.319,344.086,-1.191,-0.837,-20.604,0.000,0.000,0.0127493,0.000,9144.000,1.089,2.718,501.903,-21.257,5544.093,5544.117,-20.652,-0.208,0.302,-0.035,0.033,-0.003,0.000,0.000,0.000,0.002,0.691,-0.019,0.722,0.0000000,0.0000000,5541.704,0.000,0.000,0.000,0,00:00:00,0,0.000,0.000,0.000,0.000,0.000,0.000,0.000,0.000,0.000,0.000,0.000,0.000,0.000,0.000
33.396,2,0,-2.607,-1.431,5578.016,-2.390,-1.314,342.061,-1.140,-0.702,-20.475,0.000,0.000,0.0128407,0.000,9144.000,1.083,2.525,499.577,-21.482,5578.342,5578.365,-20.516,-0.112,0.296,-0.019,0.019,-0.030,0.000,0.000,0.000,0.000,0.692,-0.020,0.722,0.0000000,0.0000000,5576.057,0.000,0.000,0.000,0,00:00:00,0,0.000,0.000,0.000,0.000,0.000,0.000,0.000,0.000,0.000,0.000,0.000,0.000,0.000,0.000
33.497,2,0,-2.580,-1.415,5612.563,-2.375,-1.274,340.104,-1.213,-0.352,-20.133,0.000,0.000,0.0129321,0.000,9144.000,1.078,2.413,497.221,-21.707,5613.165,5613.189,-20.168,0.173,0.390,-0.028,0.008,0.003,0.000,0.000,0.000,-0.001,0.692,-0.019,0.721,0.0000000,0.0000000,5610.208,0.000,0.000,0.000,0,00:00:00,0,0.000,0.000,0.000,0.000,0.000,0.000,0.000,0.000,0.000,0.000,0.000,0.000,0.000,0.000
33.598,2,0,-2.555,-1.397,5646.760,-2.360,-1.225,338.042,-1.188,-0.242,-20.039,0.000,0.000,0.0130210,0.000,9144.000,1.072,2.364,494.979,-21.927,5646.425,5646.449,-20.071,0.254,0.359,-0.012,-0.004,0.024,0.000,0.000,0.000,-0.000,0.692,-0.017,0.721,0.0000000,0.0000000,5644.159,0.000,0.000,0.000,0,00:00:00,0,0.000,0.000,0.000,0.000,0.000,0.000,0.000,0.000,0.000,0.000,0.000,0.000,0.000,0.000
33.699,2,0,-2.531,-1.377,5680.703,-2.349,-1.217,335.978,-1.228,-0.644,-19.705,0.000,0.000,0.0131105,0.000,9144.000,1.066,2.384,492.719,-22.147,5680.074,5680.098,-19.749,-0.092,0.416,0.033,-0.002,0.017,0.000,0.000,0.000,0.001,0.692,-0.018,0.722,0.0000000,0.0000000,5677.912,0.000,0.000,0.000,0,00:00:00,0,0.000,0.000,0.000,0.000,0.000,0.000,0.000,0.000,0.000,0.000,0.000,0.000,0.000,0.000
33.800,2,0,-2.506,-1.358,5714.437,-2.312,-1.193,333.902,-0.951,-0.485,-19.814,0.000,0.000,0.0131980,0.000,9144.000,1.060,2.399,490.462,-22.370,5713.806,5713.829,-19.842,0.082,0.190,0.009,0.030,0.015,0.000,0.000,0.000,0.002,0.693,-0.018,0.720,0.0000000,0.0000000,5711.468,0.000,0.000,0.000,0,00:00:00,0,0.000,0.000,0.000,0.000,0.000,0.000,0.000,0.000,0.000,0.000,0.000,0.000,0.000,0.000
33.901,2,0,-2.482,-1.340,5747.950,-2.293,-1.184,331.833,-1.115,-0.612,-19.664,0.000,0.000,0.0132883,0.000,9144.000,1.054,2.227,488.233,-22.586,5747.246,5747.269,-19.701,0.020,0.379,0.033,0.009,-0.005,0.000,0.000,0.000,0.003,0.694,-0.019,0.720,0.0000000,0.0000000,5744.829,0.000,0.000,0.000,0,00:00:00,0,0.000,0.000,0.000,0.000,0.000,0.000,0.000,0.000,0.000,0.000,0.000,0.000,0.000,0.000
34.002,2,0,-2.458,-1.322,5781.329,-2.279,-1.174,329.848,-1.151,-0.599,-19.377,0.000,0.000,0.0133788,0.000,9144.000,1.048,2.180,485.986,-22.802,5781.074,5781.098,-19.416,0.013,0.363,-0.006,-0.033,-0.014,0.000,0.000,0.000,0.002,0.692,-0.019,0.721,0.0000000,0.0000000,5777.995,0.000,0.000,0.000,0,00:00:00,0,0.000,0.000,0.000,0.000,0.000,0.000,0.000,0.000,0.000,0.000,0.000,0.000,0.000,0.000
34.103,2,0,-2.435,-1.305,5814.453,-2.256,-1.165,327.826,-1.051,-0.593,-19.338,0.000,0.000,0.0134676,0.000,9144.000,1.042,2.367,483.816,-23.018,5813.864,5813.887,-19.373,0.012,0.250,-0.001,-0.007,0.012,0.000,0.000,0.000,0.003,0.692,-0.019,0.722,0.0000000,0.0000000,5810.969,0.000,0.000,0.000,0,00:00:00,0,0.000,0.000,0.000,0.000,0.000,0.000,0.000,0.000,0.000,0.000,0.000,0.000,0.000,0.000
34.204,2,0,-2.412,-1.288,5842.759,-2.235,-1.156,322.358,-1.065,-0.591,-19.337,0.000,0.000,0.0103675,0.000,9144.000,1.036,2.408,483.816,-23.018,5813.864,5813.887,-19.373,0.012,0.250,-0.001,-0.007,0.012,0.000,0.000,0.000,0.003,0.692,-0.018,0.722,0.0000000,0.0000000,5810.969,0.000,0.000,0.000,0,00:00:00,0,0.000,0.000,0.000,0.000,0.000,0.000,0.000,0.000,0.000,0.000,0.000,0.000,0.000,0.000
34.305,2,0,-2.391,-1.274,5875.715,-2.246,-1.171,320.820,-1.366,-0.819,-18.877,0.000,0.000,0.0104983,0.000,9144.000,1.019,2.448,479.548,-23.450,5878.723,5878.747,-18.934,-0.164,0.585,0.032,0.006,0.012,0.000,0.000,0.000,0.005,0.692,-0.019,0.722,0.0000000,0.0000000,5876.346,0.000,0.000,0.000,0,00:00:00,0,0.000,0.000,0.000,0.000,0.000,0.000,0.000,0.000,0.000,0.000,0.000,0.000,0.000,0.000
34.406,2,0,-2.372,-1.262,5908.490,-2.251,-1.169,319.267,-1.299,-0.639,-18.846,0.000,0.000,0.0106241,0.000,9144.000,1.015,2.415,477.412,-23.661,5911.340,5911.363,-18.894,0.087,0.519,0.040,0.002,0.013,0.000,0.000,0.000,0.007,0.692,-0.020,0.722,0.0000000,0.0000000,5908.751,0.000,0.000,0.000,0,00:00:00,0,0.000,0.000,0.000,0.000,0.000,0.000,0.000,0.000,0.000,0.000,0.000,0.000,0.000,0.000
34.507,2,0,-2.355,-1.250,5941.111,-2.236,-1.175,317.726,-1.085,-0.719,-18.738,0.000,0.000,0.0107500,0.000,9144.000,1.010,2.405,475.284,-23.868,5943.973,5943.996,-18.781,0.059,0.299,0.031,-0.006,-0.006,0.000,0.000,0.000,0.008,0.692,-0.021,0.722,0.0000000,0.0000000,5940.969,0.000,0.000,0.000,0,00:00:00,0,0.000,0.000,0.000,0.000,0.000,0.000,0.000,0.000,0.000,0.000,0.000,0.000,0.000,0.000
34.608,2,0,-2.337,-1.240,5973.492,-2.216,-1.175,316.135,-1.038,-0.653,-18.606,0.000,0.000,0.0108748,0.000,9144.000,1.006,2.441,473.213,-24.081,5975.836,5975.859,-18.645,0.086,0.221,-0.016,-0.019,0.005,0.000,0.000,0.000,0.007,0.691,-0.020,0.722,0.0000000,0.0000000,5973.002,0.000,0.000,0.000,0,00:00:00,0,0.000,0.000,0.000,0.000,0.000,0.000,0.000,0.000,0.000,0.000,0.000,0.000,0.000,0.000
34.709,2,0,-2.321,-1.232,6005.631,-2.224,-1.182,314.496,-1.294,-0.719,-18.474,0.000,0.000,0.0109986,0.000,9144.000,1.001,2.548,471.164,-24.290,6007.472,6007.495,-18.529,-0.066,0.423,-0.045,-0.033,0.022,0.000,0.000,0.000,0.006,0.690,-0.018,0.724,0.0000000,0.0000000,6004.850,0.000,0.000,0.000,0,00:00:00,0,0.000,0.000,0.000,0.000,0.000,0.000,0.000,0.000,0.000,0.000,0.000,0.000,0.000,0.000
34.810,2,0,-2.306,-1.225,6037.511,-2.210,-1.189,312.810,-1.078,-0.710,-18.235,0.000,0.000,0.0111218,0.000,9144.000,0.996,2.735,469.144,-24.497,6038.771,6038.794,-18.280,-0.079,0.204,-0.004,-0.007,0.016,0.000,0.000,0.000,0.007,0.690,-0.017,0.724,0.0000000,0.0000000,6036.516,0.000,0.000,0.000,0,00:00:00,0,0.000,0.000,0.000,0.000,0.000,0.000,0.000,0.000,0.000,0.000,0.000,0.000,0.000,0.000
34.911,2,0,-2.291,-1.219,6069.216,-2.196,-1.196,311.113,-1.059,-0.717,-18.317,0.000,0.000,0.0112426,0.000,9144.000,0.991,2.774,467.107,-24.702,6070.449,6070.473,-18.361,-0.095,0.213,-0.006,0.018,0.011,0.000,0.000,0.000,0.007,0.690,-0.017,0.723,0.0000000,0.0000000,6067.999,0.000,0.000,0.000,0,00:00:00,0,0.000,0.000,0.000,0.000,0.000,0.000,0.000,0.000,0.000,0.000,0.000,0.000,0.000,0.000
35.012,2,0,-2.277,-1.214,6100.713,-2.190,-1.186,309.417,-1.142,-0.533,-18.028,0.000,0.000,0.0113654,0.000,9144.000,0.986,2.672,465.103,-24.907,6101.711,6101.734,-18.067,0.083,0.381,0.000,0.041,-0.012,0.000,0.000,0.000,0.007,0.692,-0.017,0.722,0.0000000,0.0000000,6099.302,0.000,0.000,0.000,0,00:00:00,0,0.000,0.000,0.000,0.000,0.000,0.000,0.000,0.000,0.000,0.000,0.000,0.000,0.000,0.000
35.113,2,0,-2.264,-1.207,6132.053,-2.192,-1.171,307.741,-1.207,-0.492,-17.929,0.000,0.000,0.0114854,0.000,9144.000,0.981,2.438,463.096,-25.111,6133.137,6133.161,-17.971,0.109,0.437,-0.008,-0.008,-0.012,0.000,0.000,0.000,0.006,0.692,-0.017,0.722,0.0000000,0.0000000,6130.426,0.000,0.000,0.000,0,00:00:00,0,0.000,0.000,0.000,0.000,0.000,0.000,0.000,0.000,0.000,0.000,0.000,0.000,0.000,0.000
35.214,2,0,-2.252,-1.201,6158.856,-2.195,-1.156,302.801,-1.221,-0.479,-17.928,0.000,0.000,0.0116052,0.000,9144.000,0.977,2.482,463.096,-25.111,6133.137,6133.161,-17.971,0.109,0.437,-0.008,-0.008,-0.012,0.000,0.000,0.000,0.005,0.691,-0.017,0.722,0.0000000,0.0000000,6130.426,0.000,0.000,0.000,0,00:00:00,0,0.000,0.000,0.000,0.000,0.000,0.000,0.000,0.000,0.000,0.000,0.000,0.000,0.000,0.000
35.315,2,0,-2.241,-1.194,6190.173,-2.192,-1.157,301.625,-1.150,-0.641,-17.745,0.000,0.000,0.0117309,0.000,9144.000,0.961,2.526,459.153,-25.516,6195.211,6195.234,-17.790,-0.008,0.345,0.029,-0.018,-0.006,0.000,0.000,0.000,0.006,0.691,-0.019,0.723,0.0000000,0.0000000,6192.141,0.000,0.000,0.000,0,00:00:00,0,0.000,0.000,0.000,0.000,0.000,0.000,0.000,0.000,0.000,0.000,0.000,0.000,0.000,0.000
35.416,2,0,-2.231,-1.187,6221.234,-2.187,-1.149,300.350,-1.122,-0.544,-17.702,0.000,0.000,0.0118545,0.000,9144.000,0.958,2.632,457.243,-25.716,6225.425,6225.448,-17.743,0.012,0.280,-0.041,-0.021,0.015,0.000,0.000,0.000,0.005,0.690,-0.017,0.724,0.0000000,0.0000000,6222.734,0.000,0.000,0.000,0,00:00:00,0,0.000,0.000,0.000,0.000,0.000,0.000,0.000,0.000,0.000,0.000,0.000,0.000,0.000,0.000
35.517,2,0,-2.222,-1.180,6252.105,-2.190,-1.138,299.062,-1.193,-0.511,-17.382,0.000,0.000,0.0119779,0.000,9144.000,0.954,2.750,455.323,-25.917,6255.914,6255.937,-17.427,0.011,0.306,-0.013,-0.034,0.011,0.000,0.000,0.000,0.005,0.689,-0.016,0.725,0.0000000,0.0000000,6253.153,0.000,0.000,0.000,0,00:00:00,0,0.000,0.000,0.000,0.000,0.000,0.000,0.000,0.000,0.000,0.000,0.000,0.000,0.000,0.000
35.618,2,0,-2.214,-1.174,6282.772,-2.198,-1.147,297.723,-1.247,-0.713,-17.328,0.000,0.000,0.0120977,0.000,9144.000,0.951,2.944,453.426,-26.115,6286.125,6286.149,-17.382,-0.160,0.406,0.020,0.024,0.034,0.000,0.000,0.000,0.007,0.690,-0.015,0.724,0.0000000,0.0000000,6283.398,0.000,0.000,0.000,0,00:00:00,0,0.000,0.000,0.000,0.000,0.000,0.000,0.000,0.000,0.000,0.000,0.000,0.000,0.000,0.000
35.719,2,0,-2.207,-1.169,6313.218,-2.182,-1.141,296.333,-1.007,-0.554,-17.186,0.000,0.000,0.0122175,0.000,9144.000,0.947,2.805,451.555,-26.311,6316.035,6316.058,-17.223,0.024,0.157,0.019,-0.008,-0.002,0.000,0.000,0.000,0.007,0.689,-0.016,0.724,0.0000000,0.0000000,6313.472,0.000,0.000,0.000,0,00:00:00,0,0.000,0.000,0.000,0.000,0.000,0.000,0.000,0.000,0.000,0.000,0.000,0.000,0.000,0.000
35.820,2,0,-2.199,-1.163,6339.275,-2.169,-1.139,291.770,-1.020,-0.587,-17.184,0.000,0.000,0.0123359,0.000,9144.000,0.943,2.850,451.555,-26.311,6316.035,6316.058,-17.223,0.024,0.157,0.019,-0.008,-0.002,0.000,0.000,0.000,0.008,0.689,-0.017,0.725,0.0000000,0.0000000,6313.472,0.000,0.000,0.000,0,00:00:00,0,0.000,0.000,0.000,0.000,0.000,0.000,0.000,0.000,0.000,0.000,0.000,0.000,0.000,0.000
35.921,2,0,-2.191,-1.158,6369.658,-2.161,-1.139,290.789,-1.074,-0.610,-17.116,0.000,0.000,0.0124600,0.000,9144.000,0.928,2.895,447.835,-26.702,6375.776,6375.800,-17.159,0.002,0.198,0.001,-0.011,-0.013,0.000,0.000,0.000,0.008,0.689,-0.017,0.725,0.0000000,0.0000000,6373.105,0.000,0.000,0.000,0,00:00:00,0,0.000,0.000,0.000,0.000,0.000,0.000,0.000,0.000,0.000,0.000,0.000,0.000,0.000,0.000
36.022,2,0,-2.183,-1.154,6399.810,-2.164,-1.147,289.729,-1.181,-0.690,-16.929,0.000,0.000,0.0125834,0.000,9144.000,0.926,2.956,446.018,-26.894,6405.119,6405.142,-16.981,-0.064,0.297,0.011,-0.011,-0.014,0.000,0.000,0.000,0.007,0.688,-0.018,0.725,0.0000000,0.0000000,6402.667,0.000,0.000,0.000,0,00:00:00,0,0.000,0.000,0.000,0.000,0.000,0.000,0.000,0.000,0.000,0.000,0.000,0.000,0.000,0.000
36.123,2,0,-2.177,-1.151,6429.840,-2.179,-1.151,288.677,-1.289,-0.640,-16.716,0.000,0.000,0.0127046,0.000,9144.000,0.923,3.020,444.170,-27.089,6435.044,6435.067,-16.773,-0.009,0.409,0.005,-0.005,-0.015,0.000,0.000,0.000,0.007,0.688,-0.019,0.725,0.0000000,0.0000000,6432.062,0.000,0.000,0.000,0,00:00:00,0,0.000,0.000,0.000,0.000,0.000,0.000,0.000,0.000,0.000,0.000,0.000,0.000,0.000,0.000
36.224,2,0,-2.173,-1.148,6459.665,-2.193,-1.148,287.556,-1.280,-0.576,-16.680,0.000,0.000,0.0128234,0.000,9144.000,0.920,3.047,442.372,-27.277,6464.268,6464.291,-16.733,0.059,0.420,0.003,0.012,-0.005,0.000,0.000,0.000,0.007,0.688,-0.019,0.725,0.0000000,0.0000000,6461.289,0.000,0.000,0.000,0,00:00:00,0,0.000,0.000,0.000,0.000,0.000,0.000,0.000,0.000,0.000,0.000,0.000,0.000,0.000,0.000
36.325,2,0,-2.170,-1.145,6485.213,-2.205,-1.146,283.323,-1.261,-0.582,-16.681,0.000,0.000,0.0129421,0.000,9144.000,0.917,2.981,442.372,-27.277,6464.268,6464.291,-16.733,0.059,0.420,0.003,0.012,-0.005,0.000,0.000,0.000,0.007,0.689,-0.019,0.725,0.0000000,0.0000000,6461.289,0.000,0.000,0.000,0,00:00:00,0,0.000,0.000,0.000,0.000,0.000,0.000,0.000,0.000,0.000,0.000,0.000,0.000,0.000,0.000
36.426,2,0,-2.169,-1.142,6514.902,-2.218,-1.140,282.540,-1.270,-0.549,-16.315,0.000,0.000,0.0130663,0.000,9144.000,0.903,2.915,438.838,-27.656,6521.977,6522.000,-16.366,0.103,0.497,0.012,0.029,-0.028,0.000,0.000,0.000,0.007,0.690,-0.021,0.724,0.0000000,0.0000000,6519.247,0.000,0.000,0.000,0,00:00:00,0,0.000,0.000,0.000,0.000,0.000,0.000,0.000,0.000,0.000,0.000,0.000,0.000,0.000,0.000
36.527,2,0,-2.168,-1.141,6544.437,-2.215,-1.161,281.685,-1.110,-0.798,-16.472,0.000,0.000,0.0131853,0.000,9144.000,0.901,2.748,437.067,-27.844,6551.055,6551.078,-16.524,-0.120,0.332,0.014,-0.001,-0.001,0.000,0.000,0.000,0.007,0.690,-0.021,0.724,0.0000000,0.0000000,6547.979,0.000,0.000,0.000,0,00:00:00,0,0.000,0.000,0.000,0.000,0.000,0.000,0.000,0.000,0.000,0.000,0.000,0.000,0.000,0.000
36.628,2,0,-2.167,-1.140,6573.686,-2.223,-1.167,280.683,-1.221,-0.665,-16.444,0.000,0.000,0.0133066,0.000,9144.000,0.899,2.755,435.365,-28.031,6579.074,6579.097,-16.497,0.025,0.444,0.007,0.002,0.008,0.000,0.000,0.000,0.008,0.690,-0.021,0.724,0.0000000,0.0000000,6576.548,0.000,0.000,0.000,0,00:00:00,0,0.000,0.000,0.000,0.000,0.000,0.000,0.000,0.000,0.000,0.000,0.000,0.000,0.000,0.000
36.729,2,0,-2.167,-1.139,6602.772,-2.211,-1.158,279.646,-1.017,-0.508,-16.342,0.000,0.000,0.0134279,0.000,9144.000,0.896,2.746,433.626,-28.219,6607.785,6607.808,-16.379,0.169,0.225,-0.001,-0.010,0.015,0.000,0.000,0.000,0.008,0.690,-0.021,0.724,0.0000000,0.0000000,6604.955,0.000,0.000,0.000,0,00:00:00,0,0.000,0.000,0.000,0.000,0.000,0.000,0.000,0.000,0.000,0.000,0.000,0.000,0.000,0.000
36.830,2,0,-2.166,-1.139,6631.683,-2.212,-1.160,278.563,-1.150,-0.618,-16.269,0.000,0.000,0.0103675,0.000,9144.000,0.893,2.801,431.908,-28.403,6636.261,6636.285,-16.317,0.036,0.353,-0.014,-0.007,-0.005,0.000,0.000,0.000,0.007,0.689,-0.020,0.724,0.0000000,0.0000000,6633.200,0.000,0.000,0.000,0,00:00:00,0,0.000,0.000,0.000,0.000,0.000,0.000,0.000,0.000,0.000,0.000,0.000,0.000,0.000,0.000
36.931,2,0,-2.165,-1.138,6656.449,-2.214,-1.160,274.464,-1.162,-0.595,-16.269,0.000,0.000,0.0105138,0.000,9144.000,0.890,2.841,431.908,-28.403,6636.261,6636.285,-16.317,0.036,0.353,-0.014,-0.007,-0.005,0.000,0.000,0.000,0.007,0.689,-0.020,0.724,0.0000000,0.0000000,6633.200,0.000,0.000,0.000,0,00:00:00,0,0.000,0.000,0.000,0.000,0.000,0.000,0.000,0.000,0.000,0.000,0.000,0.000,0.000,0.000
37.032,2,0,-2.164,-1.137,6685.219,-2.213,-1.150,273.697,-1.124,-0.506,-15.961,0.000,0.000,0.0106652,0.000,9144.000,0.877,2.880,428.552,-28.770,6692.131,6692.154,-16.005,0.076,0.334,-0.025,0.002,-0.019,0.000,0.000,0.000,0.005,0.689,-0.020,0.724,0.0000000,0.0000000,6689.211,0.000,0.000,0.000,0,00:00:00,0,0.000,0.000,0.000,0.000,0.000,0.000,0.000,0.000,0.000,0.000,0.000,0.000,0.000,0.000
37.133,2,0,-2.164,-1.136,6713.791,-2.222,-1.157,272.850,-1.231,-0.667,-15.853,0.000,0.000,0.0108117,0.000,9144.000,0.875,2.866,426.888,-28.950,6719.962,6719.985,-15.907,-0.094,0.465,-0.004,0.010,0.014,0.000,0.000,0.000,0.005,0.690,-0.019,0.724,0.0000000,0.0000000,6716.979,0.000,0.000,0.000,0,00:00:00,0,0.000,0.000,0.000,0.000,0.000,0.000,0.000,0.000,0.000,0.000,0.000,0.000,0.000,0.000
37.234,2,0,-2.165,-1.135,6742.103,-2.233,-1.151,271.890,-1.252,-0.530,-15.674,0.000,0.000,0.0109566,0.000,9144.000,0.873,2.809,425.265,-29.134,6747.197,6747.220,-15.724,0.096,0.509,0.040,0.013,0.037,0.000,0.000,0.000,0.008,0.690,-0.019,0.724,0.0000000,0.0000000,6744.588,0.000,0.000,0.000,0,00:00:00,0,0.000,0.000,0.000,0.000,0.000,0.000,0.000,0.000,0.000,0.000,0.000,0.000,0.000,0.000
37.335,2,0,-2.166,-1.134,6770.220,-2.240,-1.170,270.838,-1.202,-0.791,-15.874,0.000,0.000,0.0110990,0.000,9144.000,0.870,2.739,423.630,-29.311,6774.719,6774.743,-15.932,-0.217,0.425,-0.036,-0.018,0.014,0.000,0.000,0.000,0.007,0.689,-0.018,0.724,0.0000000,0.0000000,6772.041,0.000,0.000,0.000,0,00:00:00,0,0.000,0.000,0.000,0.000,0.000,0.000,0.000,0.000,0.000,0.000,0.000,0.000,0.000,0.000
37.436,2,0,-2.167,-1.134,6798.127,-2.217,-1.147,269.734,-0.910,-0.364,-15.607,0.000,0.000,0.0112445,0.000,9144.000,0.867,2.838,422.016,-29.494,6801.984,6802.008,-15.636,0.171,0.184,-0.014,0.028,0.033,0.000,0.000,0.000,0.008,0.690,-0.016,0.723,0.0000000,0.0000000,6799.337,0.000,0.000,0.000,0,00:00:00,0,0.000,0.000,0.000,0.000,0.000,0.000,0.000,0.000,0.000,0.000,0.000,0.000,0.000,0.000
37.537,2,0,-2.165,-1.133,6825.885,-2.188,-1.160,268.605,-0.859,-0.723,-15.568,0.000,0.000,0.0113860,0.000,9144.000,0.864,2.677,420.391,-29.669,6829.506,6829.529,-15.607,-0.165,0.166,0.013,0.016,-0.036,0.000,0.000,0.000,0.007,0.691,-0.018,0.723,0.0000000,0.0000000,6826.479,0.000,0.000,0.000,0,00:00:00,0,0.000,0.000,0.000,0.000,0.000,0.000,0.000,0.000,0.000,0.000,0.000,0.000,0.000,0.000
37.638,2,0,-2.161,-1.134,6849.654,-2.157,-1.175,264.582,-0.831,-0.747,-15.569,0.000,0.000,0.0115275,0.000,9144.000,0.860,2.586,420.391,-29.669,6829.506,6829.529,-15.607,-0.165,0.166,0.013,0.016,-0.036,0.000,0.000,0.000,0.007,0.692,-0.019,0.722,0.0000000,0.0000000,6826.479,0.000,0.000,0.000,0,00:00:00,0,0.000,0.000,0.000,0.000,0.000,0.000,0.000,0.000,0.000,0.000,0.000,0.000,0.000,0.000
37.739,2,0,-2.154,-1.135,6877.233,-2.128,-1.181,263.726,-0.839,-0.656,-15.382,0.000,0.000,0.0116744,0.000,9144.000,0.847,2.495,417.250,-30.022,6882.942,6882.965,-15.417,-0.045,0.178,0.023,-0.000,0.006,0.000,0.000,0.000,0.008,0.691,-0.020,0.722,0.0000000,0.0000000,6880.300,0.000,0.000,0.000,0,00:00:00,0,0.000,0.000,0.000,0.000,0.000,0.000,0.000,0.000,0.000,0.000,0.000,0.000,0.000,0.000
37.840,2,0,-2.147,-1.137,6904.644,-2.126,-1.199,262.818,-1.107,-0.776,-15.294,0.000,0.000,0.0118185,0.000,9144.000,0.845,2.499,415.676,-30.196,6909.849,6909.872,-15.348,-0.170,0.407,-0.003,-0.029,0.005,0.000,0.000,0.000,0.008,0.690,-0.020,0.723,0.0000000,0.0000000,6906.981,0.000,0.000,0.000,0,00:00:00,0,0.000,0.000,0.000,0.000,0.000,0.000,0.000,0.000,0.000,0.000,0.000,0.000,0.000,0.000
37.941,2,0,-2.140,-1.140,6931.876,-2.129,-1.199,261.850,-1.158,-0.598,-15.250,0.000,0.000,0.0119616,0.000,9144.000,0.843,2.667,414.119,-30.372,6936.547,6936.571,-15.301,-0.039,0.353,-0.030,-0.069,-0.012,0.000,0.000,0.000,0.006,0.688,-0.019,0.725,0.0000000,0.0000000,6933.510,0.000,0.000,0.000,0,00:00:00,0,0.000,0.000,0.000,0.000,0.000,0.000,0.000,0.000,0.000,0.000,0.000,0.000,0.000,0.000
38.042,2,0,-2.134,-1.143,6958.868,-2.128,-1.189,260.791,-1.117,-0.503,-15.094,0.000,0.000,0.0121043,0.000,9144.000,0.840,3.059,412.600,-30.543,6962.665,6962.689,-15.140,-0.041,0.323,-0.060,0.002,0.004,0.000,0.000,0.000,0.004,0.688,-0.017,0.725,0.0000000,0.0000000,6959.888,0.000,0.000,0.000,0,00:00:00,0,0.000,0.000,0.000,0.000,0.000,0.000,0.000,0.000,0.000,0.000,0.000,0.000,0.000,0.000
38.143,2,0,-2.128,-1.143,6981.986,-2.128,-1.170,256.916,-1.114,-0.412,-15.097,0.000,0.000,0.0122450,0.000,9144.000,0.837,3.042,412.600,-30.543,6962.665,6962.689,-15.140,-0.041,0.323,-0.060,0.002,0.004,0.000,0.000,0.000,0.002,0.688,-0.015,0.725,0.0000000,0.0000000,6959.888,0.000,0.000,0.000,0,00:00:00,0,0.000,0.000,0.000,0.000,0.000,0.000,0.000,0.000,0.000,0.000,0.000,0.000,0.000,0.000
38.244,2,0,-2.124,-1.142,7008.940,-2.137,-1.157,256.222,-1.204,-0.479,-14.869,0.000,0.000,0.0123912,0.000,9144.000,0.824,3.025,409.539,-30.887,7015.549,7015.573,-14.918,-0.136,0.452,-0.015,0.018,0.008,0.000,0.000,0.000,0.002,0.689,-0.014,0.725,0.0000000,0.0000000,7012.193,0.000,0.000,0.000,0,00:00:00,0,0.000,0.000,0.000,0.000,0.000,0.000,0.000,0.000,0.000,0.000,0.000,0.000,0.000,0.000
38.345,2,0,-2.120,-1.140,7035.616,-2.133,-1.132,255.368,-1.082,-0.350,-14.917,0.000,0.000,0.0125337,0.000,9144.000,0.823,2.921,408.075,-31.056,7040.953,7040.977,-14.957,0.001,0.312,0.001,-0.011,-0.065,0.000,0.000,0.000,-0.001,0.688,-0.016,0.725,0.0000000,0.0000000,7038.122,0.000,0.000,0.000,0,00:00:00,0,0.000,0.000,0.000,0.000,0.000,0.000,0.000,0.000,0.000,0.000,0.000,0.000,0.000,0.000
38.446,2,0,-2.115,-1.136,7062.096,-2.115,-1.110,254.443,-0.931,-0.381,-14.806,0.000,0.000,0.0126770,0.000,9144.000,0.820,2.984,406.592,-31.222,7066.756,7066.779,-14.839,-0.068,0.176,-0.021,0.005,0.003,0.000,0.000,0.000,-0.001,0.689,-0.016,0.725,0.0000000,0.0000000,7063.902,0.000,0.000,0.000,0,00:00:00,0,0.000,0.000,0.000,0.000,0.000,0.000,0.000,0.000,0.000,0.000,0.000,0.000,0.000,0.000
38.547,2,0,-2.110,-1.129,7088.357,-2.119,-1.077,253.446,-1.147,-0.260,-14.579,0.000,0.000,0.0128187,0.000,9144.000,0.818,2.951,405.132,-31.391,7092.240,7092.264,-14.623,0.020,0.318,-0.020,-0.057,0.024,0.000,0.000,0.000,-0.001,0.687,-0.014,0.727,0.0000000,0.0000000,7089.535,0.000,0.000,0.000,0,00:00:00,0,0.000,0.000,0.000,0.000,0.000,0.000,0.000,0.000,0.000,0.000,0.000,0.000,0.000,0.000
38.648,2,0,-2.106,-1.120,7114.470,-2.117,-1.030,252.409,-1.089,-0.126,-14.636,0.000,0.000,0.0129575,0.000,9144.000,0.815,3.274,403.657,-31.560,7118.064,7118.088,-14.674,0.098,0.277,-0.037,0.015,0.023,0.000,0.000,0.000,-0.002,0.687,-0.012,0.726,0.0000000,0.0000000,7115.021,0.000,0.000,0.000,0,00:00:00,0,0.000,0.000,0.000,0.000,0.000,0.000,0.000,0.000,0.000,0.000,0.000,0.000,0.000,0.000
38.749,2,0,-2.102,-1.106,7136.833,-2.113,-0.978,248.648,-1.067,-0.070,-14.638,0.000,0.000,0.0130977,0.000,9144.000,0.812,3.182,403.657,-31.560,7118.064,7118.088,-14.674,0.098,0.277,-0.037,0.015,0.023,0.000,0.000,0.000,-0.002,0.688,-0.010,0.726,0.0000000,0.0000000,7115.021,0.000,0.000,0.000,0,00:00:00,0,0.000,0.000,0.000,0.000,0.000,0.000,0.000,0.000,0.000,0.000,0.000,0.000,0.000,0.000
38.850,3,0,-2.098,-1.090,7162.814,-2.112,-0.931,247.895,-1.091,-0.105,-14.413,0.000,0.000,0.0132435,0.000,9144.000,0.799,3.091,400.785,-31.891,7168.565,7168.588,-14.451,0.041,0.312,-0.015,-0.001,-0.018,0.000,0.000,0.000,-0.003,0.688,-0.010,0.726,0.0000000,0.0000000,7165.556,0.000,0.000,0.000,0,00:00:00,0,0.000,0.000,0.000,0.000,0.000,0.000,0.000,0.000,0.000,0.000,0.000,0.000,0.000,0.000
38.951,3,0,-2.095,-1.072,7188.574,-2.130,-0.910,247.003,-1.283,-0.354,-14.736,70.000,1.000,0.0132435,9645.461,9144.000,0.798,3.097,399.376,-32.053,7193.446,7193.470,-14.788,-0.176,0.480,0.015,-0.008,-0.027,0.000,0.000,0.000,-0.004,0.687,-0.011,0.726,0.0000000,0.0000000,7190.603,0.000,0.000,0.000,0,00:00:00,0,0.000,0.000,0.000,0.000,0.000,0.000,0.000,0.000,0.000,0.000,0.000,0.000,0.000,0.000
39.052,3,0,-2.093,-1.053,7214.151,-2.125,-0.867,246.018,-1.048,-0.127,-14.967,70.000,2.000,0.0132435,9656.815,9144.000,0.795,3.145,397.963,-32.217,7218.455,7218.478,-15.002,0.082,0.219,0.025,-0.005,0.025,0.000,0.000,0.000,-0.002,0.687,-0.011,0.726,0.0000000,0.0000000,7215.499,0.000,0.000,0.000,0,00:00:00,0,0.000,0.000,0.000,0.000,0.000,0.000,0.000,0.000,0.000,0.000,0.000,0.000,0.000,0.000
39.153,3,0,-2.093,-1.031,7239.496,-2.158,-0.828,244.927,-1.434,-0.158,-15.052,70.000,3.000,0.0132435,9668.968,9144.000,0.792,3.177,396.581,-32.381,7242.997,7243.020,-15.110,0.074,0.576,0.010,-0.016,0.003,0.000,0.000,0.000,-0.002,0.687,-0.012,0.727,0.0000000,0.0000000,7240.243,0.000,0.000,0.000,0,00:00:00,0,0.000,0.000,0.000,0.000,0.000,0.000,0.000,0.000,0.000,0.000,0.000,0.000,0.000,0.000
39.254,3,0,-2.094,-1.008,7264.679,-2.154,-0.789,243.787,-1.057,-0.143,-15.156,70.000,4.000,0.0132435,9676.427,9144.000,0.789,3.272,395.185,-32.539,7267.865,7267.888,-15.192,0.034,0.186,-0.032,-0.005,0.013,0.000,0.000,0.000,-0.002,0.686,-0.010,0.727,0.0000000,0.0000000,7264.833,0.000,0.000,0.000,0,00:00:00,0,0.000,0.000,0.000,0.000,0.000,0.000,0.000,0.000,0.000,0.000,0.000,0.000,0.000,0.000
39.355,3,0,-2.095,-0.984,7289.683,-2.166,-0.751,242.562,-1.226,-0.146,-15.532,70.000,5.000,0.0132435,9683.164,9144.000,0.785,3.297,393.807,-32.701,7292.481,7292.504,-15.577,-0.002,0.318,-0.028,-0.011,-0.029,0.000,0.000,0.000,-0.004,0.686,-0.010,0.727,0.0000000,0.0000000,7289.269,0.000,0.000,0.000,0,00:00:00,0,0.000,0.000,0.000,0.000,0.000,0.000,0.000,0.000,0.000,0.000,0.000,0.000,0.000,0.000
39.456,3,0,-2.097,-0.960,7314.475,-2.180,-0.726,241.262,-1.233,-0.251,-15.636,70.000,6.000,0.0132435,9688.020,9144.000,0.782,3.356,392.452,-32.860,7316.743,7316.767,-15.683,-0.061,0.323,0.028,0.002,-0.003,0.000,0.000,0.000,-0.003,0.686,-0.011,0.727,0.0000000,0.0000000,7313.548,0.000,0.000,0.000,0,00:00:00,0,0.000,0.000,0.000,0.000,0.000,0.000,0.000,0.000,0.000,0.000,0.000,0.000,0.000,0.000
39.557,3,0,-2.101,-0.934,7339.048,-2.198,-0.691,239.896,-1.286,-0.145,-15.628,70.000,7.000,0.0132435,9691.649,9144.000,0.778,3.346,391.114,-33.016,7340.774,7340.798,-15.677,0.028,0.363,-0.013,-0.008,-0.022,0.000,0.000,0.000,-0.005,0.686,-0.012,0.728,0.0000000,0.0000000,7337.669,0.000,0.000,0.000,0,00:00:00,0,0.000,0.000,0.000,0.000,0.000,0.000,0.000,0.000,0.000,0.000,0.000,0.000,0.000,0.000
39.658,3,0,-2.106,-0.908,7363.407,-2.224,-0.654,238.462,-1.361,-0.111,-15.755,70.000,8.000,0.0132435,9693.594,9144.000,0.774,3.388,389.787,-33.172,7364.668,7364.692,-15.808,0.027,0.408,-0.022,-0.014,0.023,0.000,0.000,0.000,-0.005,0.685,-0.010,0.728,0.0000000,0.0000000,7361.631,0.000,0.000,0.000,0,00:00:00,0,0.000,0.000,0.000,0.000,0.000,0.000,0.000,0.000,0.000,0.000,0.000,0.000,0.000,0.000
39.759,3,0,-2.112,-0.882,7387.579,-2.230,-0.629,236.990,-1.174,-0.219,-15.822,70.000,9.000,0.0132435,9696.481,9144.000,0.769,3.466,388.463,-33.330,7388.590,7388.614,-15.865,-0.085,0.255,-0.000,0.022,0.004,0.000,0.000,0.000,-0.004,0.686,-0.010,0.727,0.0000000,0.0000000,7385.433,0.000,0.000,0.000,0,00:00:00,0,0.000,0.000,0.000,0.000,0.000,0.000,0.000,0.000,0.000,0.000,0.000,0.000,0.000,0.000
39.860,3,0,-2.118,-0.856,7411.570,-2.236,-0.612,235.463,-1.173,-0.285,-16.127,70.000,10.000,0.0132435,9697.345,9144.000,0.765,3.339,387.149,-33.486,7412.385,7412.408,-16.169,-0.139,0.268,0.003,0.019,-0.026,0.000,0.000,0.000,-0.005,0.687,-0.011,0.727,0.0000000,0.0000000,7409.073,0.000,0.000,0.000,0,00:00:00,0,0.000,0.000,0.000,0.000,0.000,0.000,0.000,0.000,0.000,0.000,0.000,0.000,0.000,0.000
39.961,3,0,-2.124,-0.831,7435.331,-2.249,-0.600,233.892,-1.248,-0.310,-16.011,70.000,11.000,0.0132435,9696.891,9144.000,0.760,3.232,385.866,-33.638,7435.686,7435.710,-16.058,-0.155,0.385,0.007,0.023,0.023,0.000,0.000,0.000,-0.004,0.688,-0.010,0.726,0.0000000,0.0000000,7432.551,0.000,0.000,0.000,0,00:00:00,0,0.000,0.000,0.000,0.000,0.000,0.000,0.000,0.000,0.000,0.000,0.000,0.000,0.000,0.000
40.062,3,0,-2.131,-0.807,7458.874,-2.248,-0.589,232.242,-1.111,-0.320,-16.350,70.000,12.000,0.0132435,9695.446,9144.000,0.755,3.102,384.592,-33.791,7458.868,7458.891,-16.388,-0.183,0.295,-0.012,0.039,-0.009,0.000,0.000,0.000,-0.005,0.689,-0.010,0.725,0.0000000,0.0000000,7455.865,0.000,0.000,0.000,0,00:00:00,0,0.000,0.000,0.000,0.000,0.000,0.000,0.000,0.000,0.000,0.000,0.000,0.000,0.000,0.000
40.163,3,0,-2.137,-0.784,7482.240,-2.262,-0.552,230.594,-1.257,-0.042,-16.271,70.000,13.000,0.0132435,9692.703,9144.000,0.750,2.880,383.316,-33.943,7482.171,7482.194,-16.312,0.077,0.484,-0.014,0.027,-0.006,0.000,0.000,0.000,-0.006,0.690,-0.010,0.724,0.0000000,0.0000000,7479.014,0.000,0.000,0.000,0,00:00:00,0,0.000,0.000,0.000,0.000,0.000,0.000,0.000,0.000,0.000,0.000,0.000,0.000,0.000,0.000
40.264,3,0,-2.144,-0.760,7505.417,-2.266,-0.537,228.902,-1.168,-0.256,-16.544,70.000,14.000,0.0132435,9692.149,9144.000,0.745,2.723,382.057,-34.091,7505.222,7505.246,-16.582,-0.115,0.395,0.012,0.005,-0.020,0.000,0.000,0.000,-0.006,0.690,-0.011,0.723,0.0000000,0.0000000,7501.999,0.000,0.000,0.000,0,00:00:00,0,0.000,0.000,0.000,0.000,0.000,0.000,0.000,0.000,0.000,0.000,0.000,0.000,0.000,0.000
40.365,3,0,-2.150,-0.736,7528.413,-2.264,-0.509,227.220,-1.111,-0.112,-16.355,70.000,15.000,0.0132435,9687.861,9144.000,0.740,2.694,380.808,-34.241,7528.144,7528.167,-16.390,0.070,0.316,0.027,-0.016,-0.010,0.000,0.000,0.000,-0.005,0.690,-0.012,0.724,0.0000000,0.0000000,7524.816,0.000,0.000,0.000,0,00:00:00,0,0.000,0.000,0.000,0.000,0.000,0.000,0.000,0.000,0.000,0.000,0.000,0.000,0.000,0.000
40.466,3,0,-2.156,-0.714,7551.213,-2.279,-0.499,225.485,-1.289,-0.277,-16.708,70.000,16.000,0.0132435,9683.005,9144.000,0.735,2.789,379.577,-34.390,7550.799,7550.823,-16.753,-0.106,0.475,-0.011,-0.004,0.011,0.000,0.000,0.000,-0.005,0.690,-0.012,0.724,0.0000000,0.0000000,7547.467,0.000,0.000,0.000,0,00:00:00,0,0.000,0.000,0.000,0.000,0.000,0.000,0.000,0.000,0.000,0.000,0.000,0.000,0.000,0.000
40.567,3,0,-2.162,-0.692,7573.779,-2.272,-0.498,223.707,-1.059,-0.350,-16.690,70.000,17.000,0.0132435,9677.243,9144.000,0.729,2.810,378.374,-34.540,7572.999,7573.022,-16.724,-0.142,0.275,0.026,0.017,0.007,0.000,0.000,0.000,-0.004,0.690,-0.012,0.724,0.0000000,0.0000000,7569.950,0.000,0.000,0.000,0,00:00:00,0,0.000,0.000,0.000,0.000,0.000,0.000,0.000,0.000,0.000,0.000,0.000,0.000,0.000,0.000
40.668,3,0,-2.167,-0.672,7596.159,-2.266,-0.486,221.916,-1.088,-0.230,-16.782,70.000,18.000,0.0132435,9673.594,9144.000,0.724,2.717,377.165,-34.685,7595.347,7595.370,-16.816,-0.035,0.308,-0.009,0.007,-0.005,0.000,0.000,0.000,-0.005,0.690,-0.012,0.723,0.0000000,0.0000000,7592.265,0.000,0.000,0.000,0,00:00:00,0,0.000,0.000,0.000,0.000,0.000,0.000,0.000,0.000,0.000,0.000,0.000,0.000,0.000,0.000
40.769,3,0,-2.171,-0.652,7618.359,-2.263,-0.458,220.133,-1.110,-0.065,-16.705,70.000,19.000,0.0132435,9667.123,9144.000,0.718,2.676,375.968,-34.828,7617.548,7617.572,-16.738,0.081,0.335,-0.029,0.002,0.007,0.000,0.000,0.000,-0.005,0.690,-0.011,0.723,0.0000000,0.0000000,7614.411,0.000,0.000,0.000,0,00:00:00,0,0.000,0.000,0.000,0.000,0.000,0.000,0.000,0.000,0.000,0.000,0.000,0.000,0.000,0.000
40.870,3,0,-2.174,-0.633,7640.356,-2.259,-0.453,218.320,-1.098,-0.291,-16.838,70.000,20.000,0.0132435,9660.422,9144.000,0.713,2.660,374.792,-34.973,7639.411,7639.435,-16.872,-0.122,0.354,0.015,0.020,0.024,0.000,0.000,0.000,-0.004,0.691,-0.010,0.723,0.0000000,0.0000000,7636.388,0.000,0.000,0.000,0,00:00:00,0,0.000,0.000,0.000,0.000,0.000,0.000,0.000,0.000,0.000,0.000,0.000,0.000,0.000,0.000
40.971,3,0,-2.176,-0.614,7662.194,-2.260,-0.427,216.530,-1.158,-0.062,-16.777,70.000,21.000,0.0132435,9653.242,9144.000,0.707,2.549,373.613,-35.117,7661.387,7661.410,-16.813,0.077,0.342,-0.015,-0.042,0.038,0.000,0.000,0.000,-0.003,0.690,-0.009,0.724,0.0000000,0.0000000,7658.195,0.000,0.000,0.000,0,00:00:00,0,0.000,0.000,0.000,0.000,0.000,0.000,0.000,0.000,0.000,0.000,0.000,0.000,0.000,0.000
41.072,3,0,-2.179,-0.594,7683.939,-2.252,-0.396,214.795,-1.067,-0.008,-16.907,70.000,22.000,0.0132435,9647.899,9144.000,0.701,2.786,372.420,-35.258,7683.685,7683.708,-16.938,0.070,0.234,-0.034,-0.006,0.033,0.000,0.000,0.000,-0.003,0.689,-0.006,0.724,0.0000000,0.0000000,7679.832,0.000,0.000,0.000,0,00:00:00,0,0.000,0.000,0.000,0.000,0.000,0.000,0.000,0.000,0.000,0.000,0.000,0.000,0.000,0.000
41.173,3,0,-2.180,-0.573,7705.411,-2.248,-0.373,212.987,-1.104,-0.076,-16.888,70.000,23.000,0.0132435,9641.727,9144.000,0.696,2.820,371.307,-35.396,7704.549,7704.572,-16.922,0.024,0.284,0.012,0.007,-0.010,0.000,0.000,0.000,-0.003,0.690,-0.007,0.724,0.0000000,0.0000000,7701.298,0.000,0.000,0.000,0,00:00:00,0,0.000,0.000,0.000,0.000,0.000,0.000,0.000,0.000,0.000,0.000,0.000,0.000,0.000,0.000
41.274,3,0,-2.181,-0.553,7726.679,-2.255,-0.359,211.153,-1.218,-0.149,-16.995,70.000,24.000,0.0132435,9634.258,9144.000,0.690,2.780,370.181,-35.535,7725.695,7725.718,-17.035,-0.080,0.367,-0.017,-0.016,0.018,0.000,0.000,0.000,-0.003,0.689,-0.006,0.725,0.0000000,0.0000000,7722.594,0.000,0.000,0.000,0,00:00:00,0,0.000,0.000,0.000,0.000,0.000,0.000,0.000,0.000,0.000,0.000,0.000,0.000,0.000,0.000
41.375,3,0,-2.183,-0.533,7747.830,-2.244,-0.334,209.365,-1.044,-0.035,-17.046,70.000,25.000,0.0132435,9625.622,9144.000,0.685,2.871,369.035,-35.673,7747.263,7747.286,-17.076,-0.027,0.244,-0.034,0.032,0.020,0.000,0.000,0.000,-0.004,0.690,-0.004,0.723,0.0000000,0.0000000,7743.719,0.000,0.000,0.000,0,00:00:00,0,0.000,0.000,0.000,0.000,0.000,0.000,0.000,0.000,0.000,0.000,0.000,0.000,0.000,0.000
41.476,3,0,-2.184,-0.512,7768.778,-2.258,-0.313,207.562,-1.284,-0.058,-17.036,70.000,26.000,0.0132435,9621.530,9144.000,0.679,2.687,367.932,-35.811,7768.076,7768.100,-17.078,-0.032,0.450,0.013,-0.020,0.046,0.000,0.000,0.000,-0.002,0.690,-0.003,0.724,0.0000000,0.0000000,7764.673,0.000,0.000,0.000,0,00:00:00,0,0.000,0.000,0.000,0.000,0.000,0.000,0.000,0.000,0.000,0.000,0.000,0.000,0.000,0.000
41.577,3,0,-2.186,-0.492,7786.634,-2.275,-0.294,203.585,-1.318,-0.074,-17.033,70.000,27.000,0.0132435,9613.507,9144.000,0.673,2.803,367.932,-35.811,7768.076,7768.100,-17.078,-0.032,0.450,0.013,-0.020,0.046,0.000,0.000,0.000,0.000,0.689,-0.001,0.725,0.0000000,0.0000000,7764.673,0.000,0.000,0.000,0,00:00:00,0,0.000,0.000,0.000,0.000,0.000,0.000,0.000,0.000,0.000,0.000,0.000,0.000,0.000,0.000
41.678,3,0,-2.190,-0.472,7801.642,-2.296,-0.278,197.780,-1.353,-0.090,-17.030,70.000,28.000,0.0132435,9569.617,9144.000,0.660,2.918,367.932,-35.811,7768.076,7768.100,-17.078,-0.032,0.450,0.013,-0.020,0.046,0.000,0.000,0.000,0.002,0.688,-0.000,0.726,0.0000000,0.0000000,7764.673,0.000,0.000,0.000,0,00:00:00,0,0.000,0.000,0.000,0.000,0.000,0.000,0.000,0.000,0.000,0.000,0.000,0.000,0.000,0.000
41.779,3,0,-2.195,-0.452,7822.727,-2.293,-0.258,196.942,-1.131,-0.035,-17.151,70.000,29.000,0.0132435,9494.597,9144.000,0.642,3.033,364.665,-36.219,7830.045,7830.068,-17.187,0.021,0.241,-0.002,0.011,-0.000,0.000,0.000,0.000,0.002,0.689,-0.000,0.725,0.0000000,0.0000000,7826.508,0.000,0.000,0.000,0,00:00:00,0,0.000,0.000,0.000,0.000,0.000,0.000,0.000,0.000,0.000,0.000,0.000,0.000,0.000,0.000
41.880,3,0,-2.199,-0.432,7843.581,-2.313,-0.222,196.014,-1.350,0.130,-16.943,70.000,30.000,0.0132435,9503.312,9144.000,0.639,2.970,363.618,-36.350,7849.992,7850.015,-16.989,0.151,0.482,-0.017,0.006,0.029,0.000,0.000,0.000,0.003,0.689,0.001,0.725,0.0000000,0.0000000,7846.777,0.000,0.000,0.000,0,00:00:00,0,0.000,0.000,0.000,0.000,0.000,0.000,0.000,0.000,0.000,0.000,0.000,0.000,0.000,0.000
41.981,3,0,-2.206,-0.410,7864.284,-2.335,-0.197,195.040,-1.376,0.029,-16.986,70.000,31.000,0.0132435,9510.286,9144.000,0.637,2.934,362.552,-36.482,7870.352,7870.375,-17.034,0.087,0.494,0.023,-0.006,0.014,0.000,0.000,0.000,0.004,0.689,0.001,0.725,0.0000000,0.0000000,7866.875,0.000,0.000,0.000,0,00:00:00,0,0.000,0.000,0.000,0.000,0.000,0.000,0.000,0.000,0.000,0.000,0.000,0.000,0.000,0.000
42.082,3,0,-2.212,-0.389,7884.776,-2.332,-0.179,193.964,-1.134,-0.022,-17.161,70.000,32.000,0.0132435,9516.131,9144.000,0.634,2.970,361.518,-36.613,7890.151,7890.174,-17.196,-0.003,0.311,-0.024,0.040,-0.002,0.000,0.000,0.000,0.003,0.690,0.002,0.724,0.0000000,0.0000000,7886.803,0.000,0.000,0.000,0,00:00:00,0,0.000,0.000,0.000,0.000,0.000,0.000,0.000,0.000,0.000,0.000,0.000,0.000,0.000,0.000
42.183,3,0,-2.218,-0.369,7905.036,-2.335,-0.178,192.796,-1.199,-0.184,-17.170,70.000,33.000,0.0132435,9520.913,9144.000,0.630,2.744,360.502,-36.741,7909.663,7909.687,-17.208,-0.119,0.384,0.026,0.006,-0.005,0.000,0.000,0.000,0.004,0.690,0.001,0.724,0.0000000,0.0000000,7906.560,0.000,0.000,0.000,0,00:00:00,0,0.000,0.000,0.000,0.000,0.000,0.000,0.000,0.000,0.000,0.000,0.000,0.000,0.000,0.000
42.284,3,0,-2.223,-0.349,7925.117,-2.323,-0.154,191.599,-1.047,0.050,-16.995,70.000,34.000,0.0132435,9523.395,9144.000,0.627,2.710,359.478,-36.869,7929.353,7929.377,-17.025,0.057,0.264,-0.034,0.013,-0.004,0.000,0.000,0.000,0.002,0.691,0.002,0.723,0.0000000,0.0000000,7926.146,0.000,0.000,0.000,0,00:00:00,0,0.000,0.000,0.000,0.000,0.000,0.000,0.000,0.000,0.000,0.000,0.000,0.000,0.000,0.000
42.385,3,0,-2.226,-0.330,7945.032,-2.304,-0.129,190.373,-0.989,0.070,-16.946,70.000,35.000,0.0132435,9527.770,9144.000,0.623,2.639,358.459,-36.997,7948.997,7949.020,-16.974,0.099,0.181,0.011,-0.016,-0.033,0.000,0.000,0.000,0.002,0.690,0.000,0.724,0.0000000,0.0000000,7945.562,0.000,0.000,0.000,0,00:00:00,0,0.000,0.000,0.000,0.000,0.000,0.000,0.000,0.000,0.000,0.000,0.000,0.000,0.000,0.000
42.486,3,0,-2.227,-0.310,7964.731,-2.280,-0.108,189.084,-0.933,0.050,-16.889,70.000,36.000,0.0132435,9529.037,9144.000,0.619,2.731,357.469,-37.123,7968.127,7968.150,-16.913,0.082,0.162,0.002,0.020,0.017,0.000,0.000,0.000,0.002,0.691,0.001,0.723,0.0000000,0.0000000,7964.808,0.000,0.000,0.000,0,00:00:00,0,0.000,0.000,0.000,0.000,0.000,0.000,0.000,0.000,0.000,0.000,0.000,0.000,0.000,0.000
42.587,3,0,-2.226,-0.290,7984.216,-2.277,-0.093,187.731,-1.139,-0.007,-16.896,70.000,37.000,0.0132435,9529.626,9144.000,0.615,2.613,356.489,-37.246,7987.103,7987.126,-16.931,0.014,0.338,-0.005,-0.017,0.005,0.000,0.000,0.000,0.002,0.690,0.001,0.724,0.0000000,0.0000000,7983.884,0.000,0.000,0.000,0,00:00:00,0,0.000,0.000,0.000,0.000,0.000,0.000,0.000,0.000,0.000,0.000,0.000,0.000,0.000,0.000
42.688,3,0,-2.226,-0.270,8003.565,-2.270,-0.075,186.385,-1.097,0.041,-16.834,70.000,38.000,0.0132435,9528.416,9144.000,0.611,2.713,355.492,-37.372,8006.447,8006.471,-16.866,0.085,0.305,0.014,0.004,0.017,0.000,0.000,0.000,0.003,0.690,0.001,0.724,0.0000000,0.0000000,8002.792,0.000,0.000,0.000,0,00:00:00,0,0.000,0.000,0.000,0.000,0.000,0.000,0.000,0.000,0.000,0.000,0.000,0.000,0.000,0.000
42.789,3,0,-2.224,-0.251,8020.085,-2.262,-0.059,183.027,-1.091,0.019,-16.834,70.000,39.000,0.0132435,9527.432,9144.000,0.607,2.692,355.492,-37.372,8006.447,8006.471,-16.866,0.085,0.305,0.014,0.004,0.017,0.000,0.000,0.000,0.005,0.690,0.001,0.723,0.0000000,0.0000000,8002.792,0.000,0.000,0.000,0,00:00:00,0,0.000,0.000,0.000,0.000,0.000,0.000,0.000,0.000,0.000,0.000,0.000,0.000,0.000,0.000
42.890,3,0,-2.222,-0.233,8039.193,-2.248,-0.059,181.847,-1.038,-0.123,-16.934,70.000,40.000,0.0132435,9495.727,9144.000,0.596,2.672,353.588,-37.616,8043.521,8043.545,-16.964,-0.096,0.235,-0.024,-0.006,-0.006,0.000,0.000,0.000,0.003,0.690,0.002,0.724,0.0000000,0.0000000,8040.100,0.000,0.000,0.000,0,00:00:00,0,0.000,0.000,0.000,0.000,0.000,0.000,0.000,0.000,0.000,0.000,0.000,0.000,0.000,0.000
42.991,3,0,-2.218,-0.216,8058.104,-2.240,-0.051,180.628,-1.081,-0.033,-16.715,70.000,41.000,0.0132435,9497.257,9144.000,0.592,2.709,352.646,-37.737,8061.940,8061.963,-16.748,0.004,0.271,0.005,-0.011,-0.020,0.000,0.000,0.000,0.003,0.690,0.001,0.724,0.0000000,0.0000000,8058.502,0.000,0.000,0.000,0,00:00:00,0,0.000,0.000,0.000,0.000,0.000,0.000,0.000,0.000,0.000,0.000,0.000,0.000,0.000,0.000
43.092,3,0,-2.215,-0.200,8076.759,-2.225,-0.046,179.312,-1.019,-0.052,-16.712,70.000,42.000,0.0132435,9497.911,9144.000,0.588,2.773,351.734,-37.852,8079.785,8079.808,-16.742,-0.024,0.193,-0.007,-0.010,-0.013,0.000,0.000,0.000,0.002,0.689,0.001,0.724,0.0000000,0.0000000,8076.737,0.000,0.000,0.000,0,00:00:00,0,0.000,0.000,0.000,0.000,0.000,0.000,0.000,0.000,0.000,0.000,0.000,0.000,0.000,0.000
43.193,3,0,-2.211,-0.185,8095.246,-2.234,-0.031,177.968,-1.254,0.047,-16.719,70.000,43.000,0.0132435,9496.794,9144.000,0.584,2.830,350.803,-37.973,8098.054,8098.077,-16.761,0.042,0.381,-0.021,-0.027,-0.025,0.000,0.000,0.000,0.001,0.688,0.001,0.725,0.0000000,0.0000000,8094.805,0.000,0.000,0.000,0,00:00:00,0,0.000,0.000,0.000,0.000,0.000,0.000,0.000,0.000,0.000,0.000,0.000,0.000,0.000,0.000
43.294,3,0,-2.208,-0.171,8113.560,-2.242,-0.042,176.585,-1.241,-0.192,-16.841,70.000,44.000,0.0132435,9497.775,9144.000,0.580,2.988,349.883,-38.090,8116.151,8116.174,-16.882,-0.203,0.375,-0.005,0.008,-0.021,0.000,0.000,0.000,-0.000,0.689,0.000,0.725,0.0000000,0.0000000,8112.707,0.000,0.000,0.000,0,00:00:00,0,0.000,0.000,0.000,0.000,0.000,0.000,0.000,0.000,0.000,0.000,0.000,0.000,0.000,0.000
43.395,3,0,-2.206,-0.159,8131.700,-2.251,-0.038,175.191,-1.245,-0.048,-16.688,70.000,45.000,0.0132435,9496.057,9144.000,0.576,2.943,348.973,-38.206,8134.070,8134.093,-16.730,-0.020,0.398,0.025,0.007,0.019,0.000,0.000,0.000,0.001,0.689,0.000,0.725,0.0000000,0.0000000,8130.443,0.000,0.000,0.000,0,00:00:00,0,0.000,0.000,0.000,0.000,0.000,0.000,0.000,0.000,0.000,0.000,0.000,0.000,0.000,0.000
43.496,3,0,-2.206,-0.148,8149.576,-2.267,-0.051,173.719,-1.322,-0.203,-16.535,70.000,46.000,0.0132435,9493.929,9144.000,0.571,2.905,348.107,-38.323,8151.180,8151.203,-16.583,-0.185,0.412,-0.006,-0.042,0.004,0.000,0.000,0.000,0.001,0.687,0.000,0.726,0.0000000,0.0000000,8148.014,0.000,0.000,0.000,0,00:00:00,0,0.000,0.000,0.000,0.000,0.000,0.000,0.000,0.000,0.000,0.000,0.000,0.000,0.000,0.000
43.597,3,0,-2.206,-0.139,8167.264,-2.265,-0.056,172.232,-1.132,-0.130,-16.395,70.000,47.000,0.0132435,9489.603,9144.000,0.567,3.148,347.225,-38.435,8168.628,8168.652,-16.433,-0.118,0.204,-0.004,-0.016,0.001,0.000,0.000,0.000,0.001,0.687,0.001,0.727,0.0000000,0.0000000,8165.420,0.000,0.000,0.000,0,00:00:00,0,0.000,0.000,0.000,0.000,0.000,0.000,0.000,0.000,0.000,0.000,0.000,0.000,0.000,0.000
43.698,3,0,-2.207,-0.130,8184.785,-2.264,-0.042,170.740,-1.155,0.070,-16.312,70.000,48.000,0.0132435,9488.087,9144.000,0.562,3.237,346.346,-38.547,8186.039,8186.063,-16.352,0.131,0.166,0.032,-0.041,0.030,0.000,0.000,0.000,0.003,0.685,0.001,0.728,0.0000000,0.0000000,8182.663,0.000,0.000,0.000,0,00:00:00,0,0.000,0.000,0.000,0.000,0.000,0.000,0.000,0.000,0.000,0.000,0.000,0.000,0.000,0.000
43.799,3,0,-2.207,-0.122,8202.120,-2.279,-0.045,169.222,-1.309,-0.089,-16.327,70.000,49.000,0.0132435,9483.621,9144.000,0.557,3.469,345.484,-38.660,8203.165,8203.189,-16.377,-0.027,0.293,-0.000,-0.016,-0.012,0.000,0.000,0.000,0.003,0.685,0.000,0.729,0.0000000,0.0000000,8199.742,0.000,0.000,0.000,0,00:00:00,0,0.000,0.000,0.000,0.000,0.000,0.000,0.000,0.000,0.000,0.000,0.000,0.000,0.000,0.000
43.900,3,0,-2.209,-0.115,8219.331,-2.292,-0.053,167.739,-1.289,-0.144,-16.178,70.000,50.000,0.0132435,9478.928,9144.000,0.552,3.558,344.611,-38.770,8220.548,8220.571,-16.227,-0.041,0.288,0.024,0.003,-0.019,0.000,0.000,0.000,0.003,0.685,-0.001,0.729,0.0000000,0.0000000,8216.658,0.000,0.000,0.000,0,00:00:00,0,0.000,0.000,0.000,0.000,0.000,0.000,0.000,0.000,0.000,0.000,0.000,0.000,0.000,0.000
44.001,3,0,-2.213,-0.108,8236.271,-2.310,-0.024,166.153,-1.345,0.232,-16.299,70.000,51.000,0.0132435,9474.901,9144.000,0.548,3.539,343.799,-38.881,8236.749,8236.772,-16.349,0.298,0.350,-0.023,0.008,0.005,0.000,0.000,0.000,0.002,0.685,-0.000,0.728,0.0000000,0.0000000,8233.414,0.000,0.000,0.000,0,00:00:00,0,0.000,0.000,0.000,0.000,0.000,0.000,0.000,0.000,0.000,0.000,0.000,0.000,0.000,0.000
44.102,3,0,-2.217,-0.100,8252.990,-2.324,-0.029,164.524,-1.308,-0.105,-16.278,70.000,52.000,0.0132435,9472.077,9144.000,0.543,3.495,342.981,-38.992,8253.090,8253.113,-16.328,-0.091,0.315,-0.033,0.001,-0.008,0.000,0.000,0.000,0.001,0.685,0.000,0.728,0.0000000,0.0000000,8250.008,0.000,0.000,0.000,0,00:00:00,0,0.000,0.000,0.000,0.000,0.000,0.000,0.000,0.000,0.000,0.000,0.000,0.000,0.000,0.000
44.203,3,0,-2.222,-0.093,8267.224,-2.338,-0.030,161.162,-1.307,-0.053,-16.278,70.000,53.000,0.0132435,9465.964,9144.000,0.537,3.491,342.981,-38.992,8253.090,8253.113,-16.328,-0.091,0.315,-0.033,0.001,-0.008,0.000,0.000,0.000,-0.000,0.685,0.001,0.728,0.0000000,0.0000000,8250.008,0.000,0.000,0.000,0,00:00:00,0,0.000,0.000,0.000,0.000,0.000,0.000,0.000,0.000,0.000,0.000,0.000,0.000,0.000,0.000
44.304,3,0,-2.228,-0.087,8283.783,-2.344,-0.012,159.829,-1.227,0.133,-15.879,70.000,54.000,0.0132435,9435.221,9144.000,0.526,3.487,341.340,-39.204,8285.984,8286.008,-15.924,0.056,0.300,-0.026,0.025,-0.010,0.000,0.000,0.000,-0.002,0.686,0.002,0.727,0.0000000,0.0000000,8282.716,0.000,0.000,0.000,0,00:00:00,0,0.000,0.000,0.000,0.000,0.000,0.000,0.000,0.000,0.000,0.000,0.000,0.000,0.000,0.000
44.405,3,0,-2.234,-0.079,8300.225,-2.360,-0.001,158.526,-1.336,0.062,-15.710,70.000,55.000,0.0132435,9433.941,9144.000,0.522,3.341,340.517,-39.311,8302.526,8302.550,-15.761,0.005,0.413,0.011,-0.003,-0.023,0.000,0.000,0.000,-0.002,0.686,0.000,0.728,0.0000000,0.0000000,8298.831,0.000,0.000,0.000,0,00:00:00,0,0.000,0.000,0.000,0.000,0.000,0.000,0.000,0.000,0.000,0.000,0.000,0.000,0.000,0.000
44.506,3,0,-2.241,-0.072,8316.455,-2.369,-0.006,157.156,-1.265,-0.081,-15.773,70.000,56.000,0.0132435,9432.508,9144.000,0.518,3.360,339.735,-39.413,8318.271,8318.294,-15.820,-0.120,0.332,0.011,-0.004,-0.005,0.000,0.000,0.000,-0.002,0.686,-0.000,0.728,0.0000000,0.0000000,8314.788,0.000,0.000,0.000,0,00:00:00,0,0.000,0.000,0.000,0.000,0.000,0.000,0.000,0.000,0.000,0.000,0.000,0.000,0.000,0.000
44.607,3,0,-2.248,-0.065,8332.547,-2.374,0.005,155.795,-1.226,0.069,-15.696,70.000,57.000,0.0132435,9429.907,9144.000,0.514,3.385,338.938,-39.518,8334.361,8334.385,-15.742,0.023,0.298,-0.006,0.001,-0.012,0.000,0.000,0.000,-0.003,0.686,-0.000,0.728,0.0000000,0.0000000,8330.588,0.000,0.000,0.000,0,00:00:00,0,0.000,0.000,0.000,0.000,0.000,0.000,0.000,0.000,0.000,0.000,0.000,0.000,0.000,0.000
44.708,3,0,-2.254,-0.058,8348.394,-2.384,0.015,154.346,-1.292,0.070,-15.768,70.000,58.000,0.0132435,9427.310,9144.000,0.509,3.380,338.186,-39.619,8349.551,8349.574,-15.817,-0.011,0.354,-0.020,-0.004,0.028,0.000,0.000,0.000,-0.002,0.686,0.001,0.728,0.0000000,0.0000000,8346.231,0.000,0.000,0.000,0,00:00:00,0,0.000,0.000,0.000,0.000,0.000,0.000,0.000,0.000,0.000,0.000,0.000,0.000,0.000,0.000
44.809,3,0,-2.262,-0.051,8364.082,-2.406,0.026,152.921,-1.400,0.080,-15.421,70.000,59.000,0.0132435,9426.128,9144.000,0.505,3.403,337.416,-39.721,8365.149,8365.172,-15.478,0.019,0.462,0.013,-0.013,0.014,0.000,0.000,0.000,-0.001,0.685,0.001,0.728,0.0000000,0.0000000,8361.720,0.000,0.000,0.000,0,00:00:00,0,0.000,0.000,0.000,0.000,0.000,0.000,0.000,0.000,0.000,0.000,0.000,0.000,0.000,0.000
44.910,3,0,-2.270,-0.043,8379.589,-2.417,0.033,151.467,-1.312,0.051,-15.439,70.000,60.000,0.0132435,9422.600,9144.000,0.500,3.478,336.663,-39.822,8380.426,8380.450,-15.490,-0.042,0.379,-0.020,0.004,0.010,0.000,0.000,0.000,-0.002,0.685,0.002,0.728,0.0000000,0.0000000,8377.054,0.000,0.000,0.000,0,00:00:00,0,0.000,0.000,0.000,0.000,0.000,0.000,0.000,0.000,0.000,0.000,0.000,0.000,0.000,0.000
45.011,3,0,-2.279,-0.035,8394.935,-2.440,0.059,150.014,-1.419,0.235,-15.319,70.000,61.000,0.0132435,9418.683,9144.000,0.496,3.454,335.912,-39.922,8395.684,8395.708,-15.378,0.109,0.498,-0.021,0.003,0.002,0.000,0.000,0.000,-0.002,0.686,0.003,0.728,0.0000000,0.0000000,8392.232,0.000,0.000,0.000,0,00:00:00,0,0.000,0.000,0.000,0.000,0.000,0.000,0.000,0.000,0.000,0.000,0.000,0.000,0.000,0.000
45.112,3,0,-2.289,-0.026,8410.145,-2.452,0.075,148.569,-1.330,0.151,-15.314,70.000,62.000,0.0132435,9414.577,9144.000,0.491,3.438,335.162,-40.021,8410.962,8410.986,-15.367,-0.002,0.415,-0.015,0.003,0.027,0.000,0.000,0.000,-0.002,0.686,0.005,0.728,0.0000000,0.0000000,8407.259,0.000,0.000,0.000,0,00:00:00,0,0.000,0.000,0.000,0.000,0.000,0.000,0.000,0.000,0.000,0.000,0.000,0.000,0.000,0.000
45.213,3,0,-2.299,-0.016,8425.138,-2.457,0.093,147.064,-1.252,0.167,-15.390,70.000,63.000,0.0132435,9413.406,9144.000,0.486,3.419,334.448,-40.117,8425.515,8425.539,-15.438,0.068,0.361,0.031,0.019,-0.054,0.000,0.000,0.000,-0.003,0.686,0.002,0.727,0.0000000,0.0000000,8422.133,0.000,0.000,0.000,0,00:00:00,0,0.000,0.000,0.000,0.000,0.000,0.000,0.000,0.000,0.000,0.000,0.000,0.000,0.000,0.000
45.314,3,0,-2.308,-0.005,8439.963,-2.454,0.098,145.575,-1.191,0.044,-15.097,70.000,64.000,0.0132435,9409.003,9144.000,0.482,3.309,333.728,-40.211,8440.240,8440.263,-15.140,-0.088,0.341,-0.025,0.016,-0.030,0.000,0.000,0.000,-0.005,0.687,0.002,0.727,0.0000000,0.0000000,8436.855,0.000,0.000,0.000,0,00:00:00,0,0.000,0.000,0.000,0.000,0.000,0.000,0.000,0.000,0.000,0.000,0.000,0.000,0.000,0.000
45.415,3,0,-2.316,0.005,8454.654,-2.455,0.120,144.088,-1.223,0.224,-15.208,70.000,65.000,0.0132435,9404.579,9144.000,0.477,3.217,333.005,-40.309,8455.029,8455.052,-15.256,0.096,0.311,0.003,-0.037,0.004,0.000,0.000,0.000,-0.005,0.686,0.002,0.728,0.0000000,0.0000000,8451.428,0.000,0.000,0.000,0,00:00:00,0,0.000,0.000,0.000,0.000,0.000,0.000,0.000,0.000,0.000,0.000,0.000,0.000,0.000,0.000
45.516,3,0,-2.324,0.017,8467.156,-2.461,0.141,141.078,-1.278,0.219,-15.204,70.000,66.000,0.0132435,9401.837,9144.000,0.472,3.426,333.005,-40.309,8455.029,8455.052,-15.256,0.096,0.311,0.003,-0.037,0.004,0.000,0.000,0.000,-0.004,0.684,0.002,0.729,0.0000000,0.0000000,8451.428,0.000,0.000,0.000,0,00:00:00,0,0.000,0.000,0.000,0.000,0.000,0.000,0.000,0.000,0.000,0.000,0.000,0.000,0.000,0.000
45.617,3,0,-2.330,0.028,8481.620,-2.448,0.137,139.791,-1.097,-0.033,-14.907,70.000,67.000,0.0132435,9375.613,9144.000,0.462,3.635,331.623,-40.496,8483.384,8483.408,-14.946,-0.105,0.122,0.032,-0.018,-0.011,0.000,0.000,0.000,-0.004,0.684,0.000,0.730,0.0000000,0.0000000,8480.123,0.000,0.000,0.000,0,00:00:00,0,0.000,0.000,0.000,0.000,0.000,0.000,0.000,0.000,0.000,0.000,0.000,0.000,0.000,0.000
45.718,3,0,-2.336,0.039,8495.989,-2.464,0.156,138.530,-1.388,0.212,-14.893,70.000,68.000,0.0132435,9373.505,9144.000,0.458,3.739,330.915,-40.588,8497.968,8497.991,-14.953,0.136,0.394,-0.003,-0.013,0.005,0.000,0.000,0.000,-0.003,0.683,0.000,0.730,0.0000000,0.0000000,8494.249,0.000,0.000,0.000,0,00:00:00,0,0.000,0.000,0.000,0.000,0.000,0.000,0.000,0.000,0.000,0.000,0.000,0.000,0.000,0.000
45.819,3,0,-2.343,0.050,8510.142,-2.467,0.176,137.209,-1.262,0.224,-14.823,70.000,69.000,0.0132435,9374.164,9144.000,0.454,3.811,330.255,-40.680,8511.567,8511.590,-14.875,0.161,0.253,0.008,-0.013,-0.005,0.000,0.000,0.000,-0.003,0.683,-0.000,0.731,0.0000000,0.0000000,8508.227,0.000,0.000,0.000,0,00:00:00,0,0.000,0.000,0.000,0.000,0.000,0.000,0.000,0.000,0.000,0.000,0.000,0.000,0.000,0.000
45.920,3,0,-2.350,0.061,8524.107,-2.504,0.164,135.875,-1.603,-0.087,-14.554,70.000,70.000,0.0132435,9371.919,9144.000,0.450,3.888,329.594,-40.770,8525.195,8525.219,-14.631,-0.107,0.575,0.030,-0.026,0.023,0.000,0.000,0.000,-0.001,0.682,-0.000,0.732,0.0000000,0.0000000,8522.059,0.000,0.000,0.000,0,00:00:00,0,0.000,0.000,0.000,0.000,0.000,0.000,0.000,0.000,0.000,0.000,0.000,0.000,0.000,0.000
46.021,3,0,-2.359,0.071,8537.935,-2.508,0.177,134.533,-1.280,0.165,-14.611,70.000,70.000,0.0132435,9369.146,9144.000,0.446,4.035,328.926,-40.859,8539.009,8539.032,-14.665,0.128,0.218,-0.010,-0.021,0.001,0.000,0.000,0.000,-0.002,0.681,0.000,0.732,0.0000000,0.0000000,8535.746,0.000,0.000,0.000,0,00:00:00,0,0.000,0.000,0.000,0.000,0.000,0.000,0.000,0.000,0.000,0.000,0.000,0.000,0.000,0.000
46.122,3,0,-2.368,0.080,8551.656,-2.521,0.171,133.231,-1.380,-0.021,-14.428,70.000,70.000,0.0132435,9366.166,9144.000,0.441,4.156,328.255,-40.947,8552.906,8552.929,-14.491,-0.086,0.302,-0.023,-0.020,-0.027,0.000,0.000,0.000,-0.004,0.680,-0.000,0.733,0.0000000,0.0000000,8549.289,0.000,0.000,0.000,0,00:00:00,0,0.000,0.000,0.000,0.000,0.000,0.000,0.000,0.000,0.000,0.000,0.000,0.000,0.000,0.000
46.223,3,0,-2.377,0.088,8565.261,-2.537,0.165,131.963,-1.409,-0.008,-14.191,70.000,70.000,0.0132435,9363.566,9144.000,0.437,4.269,327.595,-41.040,8566.595,8566.619,-14.256,-0.056,0.350,0.012,0.001,0.004,0.000,0.000,0.000,-0.003,0.680,-0.000,0.733,0.0000000,0.0000000,8562.688,0.000,0.000,0.000,0,00:00:00,0,0.000,0.000,0.000,0.000,0.000,0.000,0.000,0.000,0.000,0.000,0.000,0.000,0.000,0.000
46.324,3,0,-2.387,0.094,8578.692,-2.555,0.144,130.661,-1.430,-0.160,-14.177,70.000,70.000,0.0132435,9364.456,9144.000,0.433,4.263,326.963,-41.123,8579.737,8579.761,-14.244,-0.186,0.365,0.019,-0.005,0.040,0.000,0.000,0.000,-0.001,0.680,0.000,0.733,0.0000000,0.0000000,8575.946,0.000,0.000,0.000,0,00:00:00,0,0.000,0.000,0.000,0.000,0.000,0.000,0.000,0.000,0.000,0.000,0.000,0.000,0.000,0.000
46.425,3,0,-2.397,0.097,8591.905,-2.575,0.122,129.305,-1.456,-0.166,-14.082,70.000,70.000,0.0132435,9362.296,9144.000,0.429,4.293,326.353,-41.210,8592.428,8592.451,-14.153,-0.153,0.340,0.024,-0.041,-0.034,0.000,0.000,0.000,-0.001,0.679,-0.002,0.735,0.0000000,0.0000000,8589.063,0.000,0.000,0.000,0,00:00:00,0,0.000,0.000,0.000,0.000,0.000,0.000,0.000,0.000,0.000,0.000,0.000,0.000,0.000,0.000
46.526,3,0,-2.408,0.099,8605.000,-2.580,0.115,127.967,-1.316,-0.016,-14.042,70.000,70.000,0.0132435,9358.788,9144.000,0.424,4.531,325.719,-41.295,8605.632,8605.656,-14.102,-0.033,0.170,-0.018,-0.023,0.033,0.000,0.000,0.000,-0.001,0.678,0.000,0.735,0.0000000,0.0000000,8602.040,0.000,0.000,0.000,0,00:00:00,0,0.000,0.000,0.000,0.000,0.000,0.000,0.000,0.000,0.000,0.000,0.000,0.000,0.000,0.000
46.627,3,0,-2.420,0.100,8617.966,-2.612,0.118,126.640,-1.592,0.085,-13.970,70.000,70.000,0.0132435,9355.578,9144.000,0.420,4.661,325.096,-41.377,8618.633,8618.656,-14.054,0.088,0.444,0.013,-0.005,-0.014,0.000,0.000,0.000,-0.001,0.678,-0.001,0.735,0.0000000,0.0000000,8614.878,0.000,0.000,0.000,0,00:00:00,0,0.000,0.000,0.000,0.000,0.000,0.000,0.000,0.000,0.000,0.000,0.000,0.000,0.000,0.000
46.728,3,0,-2.433,0.102,8630.792,-2.629,0.120,125.322,-1.444,0.069,-13.823,70.000,70.000,0.0132435,9355.477,9144.000,0.416,4.690,324.485,-41.462,8631.415,8631.439,-13.895,0.081,0.302,0.007,-0.004,0.008,0.000,0.000,0.000,-0.000,0.677,-0.001,0.736,0.0000000,0.0000000,8627.577,0.000,0.000,0.000,0,00:00:00,0,0.000,0.000,0.000,0.000,0.000,0.000,0.000,0.000,0.000,0.000,0.000,0.000,0.000,0.000
46.829,3,0,-2.446,0.103,8643.479,-2.650,0.120,124.024,-1.501,0.055,-13.582,70.000,70.000,0.0132435,9353.047,9144.000,0.412,4.715,323.881,-41.545,8644.061,8644.085,-13.660,0.061,0.347,-0.007,-0.024,-0.025,0.000,0.000,0.000,-0.001,0.677,-0.001,0.736,0.0000000,0.0000000,8640.140,0.000,0.000,0.000,0,00:00:00,0,0.000,0.000,0.000,0.000,0.000,0.000,0.000,0.000,0.000,0.000,0.000,0.000,0.000,0.000
46.930,3,0,-2.460,0.105,8655.948,-2.684,0.121,122.645,-1.632,0.061,-13.753,70.000,70.000,0.0132435,9350.438,9144.000,0.407,4.851,323.311,-41.624,8656.004,8656.028,-13.843,0.045,0.422,-0.016,-0.029,0.001,0.000,0.000,0.000,-0.002,0.675,-0.001,0.737,0.0000000,0.0000000,8652.565,0.000,0.000,0.000,0,00:00:00,0,0.000,0.000,0.000,0.000,0.000,0.000,0.000,0.000,0.000,0.000,0.000,0.000,0.000,0.000
47.031,3,0,-2.476,0.106,8668.262,-2.704,0.121,121.280,-1.498,0.058,-13.483,70.000,70.000,0.0132435,9346.579,9144.000,0.403,5.017,322.730,-41.705,8668.212,8668.236,-13.561,0.028,0.349,-0.008,0.027,0.020,0.000,0.000,0.000,-0.001,0.676,0.000,0.736,0.0000000,0.0000000,8664.855,0.000,0.000,0.000,0,00:00:00,0,0.000,0.000,0.000,0.000,0.000,0.000,0.000,0.000,0.000,0.000,0.000,0.000,0.000,0.000
47.132,3,0,-2.493,0.106,8680.416,-2.742,0.103,119.893,-1.687,-0.120,-13.539,70.000,70.000,0.0132435,9346.273,9144.000,0.398,4.864,322.158,-41.786,8680.233,8680.256,-13.633,-0.141,0.524,0.008,-0.007,0.008,0.000,0.000,0.000,-0.001,0.676,0.000,0.737,0.0000000,0.0000000,8677.012,0.000,0.000,0.000,0,00:00:00,0,0.000,0.000,0.000,0.000,0.000,0.000,0.000,0.000,0.000,0.000,0.000,0.000,0.000,0.000
47.233,3,0,-2.511,0.106,8692.486,-2.771,0.114,118.580,-1.606,0.158,-13.203,70.000,70.000,0.0132435,9342.887,9144.000,0.394,4.904,321.570,-41.867,8692.630,8692.653,-13.292,0.122,0.479,-0.013,0.006,-0.006,0.000,0.000,0.000,-0.002,0.676,0.000,0.737,0.0000000,0.0000000,8689.033,0.000,0.000,0.000,0,00:00:00,0,0.000,0.000,0.000,0.000,0.000,0.000,0.000,0.000,0.000,0.000,0.000,0.000,0.000,0.000
47.334,3,0,-2.529,0.105,8704.438,-2.770,0.088,117.273,-1.317,-0.200,-13.259,70.000,70.000,0.0132435,9340.374,9144.000,0.390,4.872,320.998,-41.939,8704.681,8704.704,-13.322,-0.247,0.207,-0.005,0.016,0.023,0.000,0.000,0.000,-0.001,0.677,0.001,0.736,0.0000000,0.0000000,8700.923,0.000,0.000,0.000,0,00:00:00,0,0.000,0.000,0.000,0.000,0.000,0.000,0.000,0.000,0.000,0.000,0.000,0.000,0.000,0.000
47.435,3,0,-2.545,0.104,8716.250,-2.769,0.098,115.966,-1.333,0.153,-13.204,70.000,70.000,0.0132435,9337.905,9144.000,0.386,4.782,320.442,-42.018,8716.441,8716.464,-13.269,0.082,0.227,-0.017,-0.000,0.010,0.000,0.000,0.000,-0.001,0.677,0.002,0.736,0.0000000,0.0000000,8712.680,0.000,0.000,0.000,0,00:00:00,0,0.000,0.000,0.000,0.000,0.000,0.000,0.000,0.000,0.000,0.000,0.000,0.000,0.000,0.000
47.536,3,0,-2.559,0.103,8727.890,-2.764,0.099,114.631,-1.300,0.071,-13.176,70.000,70.000,0.0132435,9337.869,9144.000,0.381,4.783,319.903,-42.095,8727.831,8727.855,-13.239,0.024,0.173,0.018,-0.018,0.006,0.000,0.000,0.000,-0.000,0.676,0.002,0.737,0.0000000,0.0000000,8724.305,0.000,0.000,0.000,0,00:00:00,0,0.000,0.000,0.000,0.000,0.000,0.000,0.000,0.000,0.000,0.000,0.000,0.000,0.000,0.000
47.637,3,0,-2.573,0.102,8739.410,-2.775,0.094,113.320,-1.453,-0.003,-13.053,70.000,70.000,0.0132435,9334.957,9144.000,0.377,4.886,319.355,-42.169,8739.446,8739.469,-13.129,-0.045,0.356,0.005,0.015,0.009,0.000,0.000,0.000,0.000,0.677,0.002,0.736,0.0000000,0.0000000,8735.800,0.000,0.000,0.000,0,00:00:00,0,0.000,0.000,0.000,0.000,0.000,0.000,0.000,0.000,0.000,0.000,0.000,0.000,0.000,0.000
47.738,3,0,-2.586,0.102,8750.733,-2.797,0.098,111.975,-1.583,0.095,-12.894,70.000,70.000,0.0132435,9332.533,9144.000,0.373,4.800,318.840,-42.244,8750.358,8750.381,-12.981,0.078,0.519,0.021,0.016,0.011,0.000,0.000,0.000,0.001,0.677,0.002,0.736,0.0000000,0.0000000,8747.165,0.000,0.000,0.000,0,00:00:00,0,0.000,0.000,0.000,0.000,0.000,0.000,0.000,0.000,0.000,0.000,0.000,0.000,0.000,0.000
47.839,3,0,-2.599,0.101,8761.985,-2.799,0.105,110.692,-1.387,0.119,-12.756,70.000,70.000,0.0132435,9329.535,9144.000,0.368,4.708,318.291,-42.318,8762.009,8762.032,-12.826,0.109,0.351,0.004,0.012,-0.006,0.000,0.000,0.000,0.001,0.678,0.002,0.735,0.0000000,0.0000000,8758.400,0.000,0.000,0.000,0,00:00:00,0,0.000,0.000,0.000,0.000,0.000,0.000,0.000,0.000,0.000,0.000,0.000,0.000,0.000,0.000
47.940,3,0,-2.612,0.101,8773.148,-2.804,0.107,109.428,-1.421,0.073,-12.883,70.000,70.000,0.0132435,9329.805,9144.000,0.364,4.638,317.754,-42.392,8773.426,8773.450,-12.956,0.019,0.380,-0.033,0.004,0.003,0.000,0.000,0.000,0.000,0.678,0.003,0.735,0.0000000,0.0000000,8769.508,0.000,0.000,0.000,0,00:00:00,0,0.000,0.000,0.000,0.000,0.000,0.000,0.000,0.000,0.000,0.000,0.000,0.000,0.000,0.000
48.041,3,0,-2.623,0.101,8784.137,-2.804,0.095,108.132,-1.386,-0.058,-12.840,70.000,70.000,0.0132435,9327.932,9144.000,0.360,4.614,317.252,-42.462,8784.125,8784.149,-12.911,-0.102,0.320,0.005,-0.022,-0.018,0.000,0.000,0.000,-0.000,0.677,0.002,0.736,0.0000000,0.0000000,8780.488,0.000,0.000,0.000,0,00:00:00,0,0.000,0.000,0.000,0.000,0.000,0.000,0.000,0.000,0.000,0.000,0.000,0.000,0.000,0.000
48.142,3,0,-2.635,0.100,8794.970,-2.824,0.091,106.828,-1.583,0.013,-12.748,70.000,70.000,0.0132435,9325.295,9144.000,0.356,4.741,316.751,-42.534,8794.807,8794.831,-12.835,-0.047,0.526,-0.013,0.002,-0.009,0.000,0.000,0.000,-0.001,0.677,0.002,0.736,0.0000000,0.0000000,8791.341,0.000,0.000,0.000,0,00:00:00,0,0.000,0.000,0.000,0.000,0.000,0.000,0.000,0.000,0.000,0.000,0.000,0.000,0.000,0.000
48.243,3,0,-2.645,0.099,8805.706,-2.816,0.097,105.564,-1.307,0.109,-12.587,70.000,70.000,0.0132435,9322.632,9144.000,0.352,4.730,316.238,-42.605,8805.747,8805.770,-12.653,0.071,0.247,0.016,-0.014,-0.002,0.000,0.000,0.000,-0.001,0.677,0.001,0.736,0.0000000,0.0000000,8802.068,0.000,0.000,0.000,0,00:00:00,0,0.000,0.000,0.000,0.000,0.000,0.000,0.000,0.000,0.000,0.000,0.000,0.000,0.000,0.000
48.344,3,0,-2.655,0.100,8816.347,-2.822,0.115,104.332,-1.458,0.226,-12.516,70.000,70.000,0.0132435,9322.765,9144.000,0.348,4.813,315.731,-42.672,8816.585,8816.608,-12.595,0.200,0.407,0.015,0.002,0.047,0.000,0.000,0.000,0.001,0.677,0.003,0.736,0.0000000,0.0000000,8812.669,0.000,0.000,0.000,0,00:00:00,0,0.000,0.000,0.000,0.000,0.000,0.000,0.000,0.000,0.000,0.000,0.000,0.000,0.000,0.000
48.445,3,0,-2.663,0.100,8826.830,-2.804,0.102,103.094,-1.225,-0.074,-12.315,70.000,70.000,0.0132435,9321.197,9144.000,0.344,4.802,315.251,-42.741,8826.857,8826.881,-12.374,-0.064,0.210,0.030,0.017,0.010,0.000,0.000,0.000,0.003,0.677,0.002,0.736,0.0000000,0.0000000,8823.146,0.000,0.000,0.000,0,00:00:00,0,0.000,0.000,0.000,0.000,0.000,0.000,0.000,0.000,0.000,0.000,0.000,0.000,0.000,0.000
48.546,3,0,-2.670,0.099,8837.178,-2.809,0.081,101.831,-1.448,-0.151,-12.500,70.000,70.000,0.0132435,9319.536,9144.000,0.340,4.703,314.771,-42.810,8837.151,8837.175,-12.575,-0.130,0.452,0.012,0.028,0.018,0.000,0.000,0.000,0.004,0.679,0.002,0.735,0.0000000,0.0000000,8833.498,0.000,0.000,0.000,0,00:00:00,0,0.000,0.000,0.000,0.000,0.000,0.000,0.000,0.000,0.000,0.000,0.000,0.000,0.000,0.000
48.647,3,0,-2.677,0.096,8845.966,-2.809,0.060,99.498,-1.413,-0.163,-12.504,70.000,70.000,0.0132435,9317.568,9144.000,0.335,4.542,314.771,-42.810,8837.151,8837.175,-12.575,-0.130,0.452,0.012,0.028,0.018,0.000,0.000,0.000,0.005,0.680,0.003,0.734,0.0000000,0.0000000,8833.498,0.000,0.000,0.000,0,00:00:00,0,0.000,0.000,0.000,0.000,0.000,0.000,0.000,0.000,0.000,0.000,0.000,0.000,0.000,0.000
48.748,3,0,-2.683,0.093,8856.194,-2.819,0.059,98.438,-1.511,0.042,-12.280,70.000,70.000,0.0132435,9306.296,9144.000,0.328,4.380,313.816,-42.944,8857.650,8857.673,-12.362,0.079,0.525,0.007,-0.036,0.016,0.000,0.000,0.000,0.006,0.678,0.003,0.735,0.0000000,0.0000000,8853.832,0.000,0.000,0.000,0,00:00:00,0,0.000,0.000,0.000,0.000,0.000,0.000,0.000,0.000,0.000,0.000,0.000,0.000,0.000,0.000
48.849,3,0,-2.688,0.088,8866.254,-2.793,0.037,97.345,-1.157,-0.168,-12.150,70.000,70.000,0.0132435,9306.173,9144.000,0.324,4.588,313.366,-43.007,8867.331,8867.355,-12.203,-0.124,0.194,0.005,0.012,0.022,0.000,0.000,0.000,0.007,0.679,0.004,0.734,0.0000000,0.0000000,8863.815,0.000,0.000,0.000,0,00:00:00,0,0.000,0.000,0.000,0.000,0.000,0.000,0.000,0.000,0.000,0.000,0.000,0.000,0.000,0.000
48.950,3,0,-2.690,0.083,8874.809,-2.766,0.016,95.210,-1.143,-0.171,-12.151,70.000,70.000,0.0132435,9305.921,9144.000,0.321,4.518,313.366,-43.007,8867.331,8867.355,-12.203,-0.124,0.194,0.005,0.012,0.022,0.000,0.000,0.000,0.008,0.679,0.004,0.734,0.0000000,0.0000000,8863.815,0.000,0.000,0.000,0,00:00:00,0,0.000,0.000,0.000,0.000,0.000,0.000,0.000,0.000,0.000,0.000,0.000,0.000,0.000,0.000
49.051,3,0,-2.691,0.076,8884.784,-2.768,0.009,94.304,-1.435,-0.026,-12.079,70.000,70.000,0.0132435,9296.736,9144.000,0.314,4.449,312.438,-43.137,8887.340,8887.363,-12.154,0.021,0.485,0.004,-0.007,0.005,0.000,0.000,0.000,0.008,0.679,0.004,0.734,0.0000000,0.0000000,8883.417,0.000,0.000,0.000,0,00:00:00,0,0.000,0.000,0.000,0.000,0.000,0.000,0.000,0.000,0.000,0.000,0.000,0.000,0.000,0.000
49.152,3,0,-2.692,0.069,8894.516,-2.767,-0.005,93.286,-1.407,-0.098,-12.069,70.000,70.000,0.0132435,9298.456,9144.000,0.311,4.487,312.030,-43.201,8896.144,8896.168,-12.144,-0.061,0.432,-0.009,-0.021,-0.005,0.000,0.000,0.000,0.007,0.678,0.004,0.735,0.0000000,0.0000000,8893.037,0.000,0.000,0.000,0,00:00:00,0,0.000,0.000,0.000,0.000,0.000,0.000,0.000,0.000,0.000,0.000,0.000,0.000,0.000,0.000
49.253,3,0,-2.692,0.061,8904.242,-2.757,-0.023,92.349,-1.317,-0.150,-11.976,70.000,70.000,0.0132435,9298.808,9144.000,0.308,4.607,311.552,-43.262,8906.459,8906.482,-12.044,-0.111,0.350,0.002,0.002,0.003,0.000,0.000,0.000,0.008,0.678,0.004,0.735,0.0000000,0.0000000,8902.537,0.000,0.000,0.000,0,00:00:00,0,0.000,0.000,0.000,0.000,0.000,0.000,0.000,0.000,0.000,0.000,0.000,0.000,0.000,0.000
49.354,3,0,-2.691,0.053,8913.794,-2.754,-0.029,91.351,-1.387,-0.035,-11.994,70.000,70.000,0.0132435,9300.047,9144.000,0.305,4.594,311.133,-43.321,8915.523,8915.546,-12.066,0.024,0.433,0.019,0.009,0.012,0.000,0.000,0.000,0.009,0.678,0.004,0.735,0.0000000,0.0000000,8911.918,0.000,0.000,0.000,0,00:00:00,0,0.000,0.000,0.000,0.000,0.000,0.000,0.000,0.000,0.000,0.000,0.000,0.000,0.000,0.000
49.455,3,0,-2.690,0.046,8923.202,-2.744,-0.024,90.360,-1.312,0.078,-11.605,70.000,70.000,0.0132435,9300.597,9144.000,0.301,4.540,310.711,-43.383,8924.661,8924.685,-11.671,0.156,0.410,0.014,-0.005,-0.030,0.000,0.000,0.000,0.008,0.679,0.003,0.734,0.0000000,0.0000000,8921.179,0.000,0.000,0.000,0,00:00:00,0,0.000,0.000,0.000,0.000,0.000,0.000,0.000,0.000,0.000,0.000,0.000,0.000,0.000,0.000
49.556,3,0,-2.688,0.039,8932.473,-2.721,-0.029,89.320,-1.187,-0.024,-11.805,70.000,70.000,0.0132435,9301.099,9144.000,0.298,4.445,310.294,-43.444,8933.707,8933.731,-11.861,0.059,0.301,0.001,0.028,-0.006,0.000,0.000,0.000,0.008,0.680,0.002,0.733,0.0000000,0.0000000,8930.322,0.000,0.000,0.000,0,00:00:00,0,0.000,0.000,0.000,0.000,0.000,0.000,0.000,0.000,0.000,0.000,0.000,0.000,0.000,0.000
49.657,3,0,-2.683,0.032,8941.628,-2.687,-0.045,88.291,-1.068,-0.147,-11.614,70.000,70.000,0.0132435,9303.920,9144.000,0.295,4.288,309.876,-43.501,8942.785,8942.808,-11.661,-0.073,0.256,-0.008,0.024,-0.008,0.000,0.000,0.000,0.007,0.682,0.002,0.731,0.0000000,0.0000000,8939.348,0.000,0.000,0.000,0,00:00:00,0,0.000,0.000,0.000,0.000,0.000,0.000,0.000,0.000,0.000,0.000,0.000,0.000,0.000,0.000
49.758,3,0,-2.676,0.024,8950.691,-2.659,-0.056,87.268,-1.135,-0.094,-11.644,70.000,70.000,0.0132435,9304.473,9144.000,0.291,3.990,309.455,-43.560,8951.926,8951.950,-11.695,0.018,0.320,0.033,-0.018,-0.007,0.000,0.000,0.000,0.008,0.682,0.000,0.731,0.0000000,0.0000000,8948.256,0.000,0.000,0.000,0,00:00:00,0,0.000,0.000,0.000,0.000,0.000,0.000,0.000,0.000,0.000,0.000,0.000,0.000,0.000,0.000
49.859,3,0,-2.667,0.016,8959.631,-2.640,-0.073,86.227,-1.213,-0.162,-11.683,70.000,70.000,0.0132435,9304.682,9144.000,0.288,3.996,309.050,-43.615,8960.745,8960.769,-11.739,-0.072,0.423,-0.021,0.021,-0.017,0.000,0.000,0.000,0.006,0.683,0.000,0.730,0.0000000,0.0000000,8957.047,0.000,0.000,0.000,0,00:00:00,0,0.000,0.000,0.000,0.000,0.000,0.000,0.000,0.000,0.000,0.000,0.000,0.000,0.000,0.000
49.960,3,0,-2.657,0.008,8968.470,-2.597,-0.075,85.180,-0.976,-0.015,-11.774,70.000,70.000,0.0132435,9304.736,9144.000,0.285,3.856,308.642,-43.677,8969.615,8969.638,-11.813,0.085,0.190,0.006,0.007,0.008,0.000,0.000,0.000,0.007,0.683,0.001,0.730,0.0000000,0.0000000,8965.722,0.000,0.000,0.000,0,00:00:00,0,0.000,0.000,0.000,0.000,0.000,0.000,0.000,0.000,0.000,0.000,0.000,0.000,0.000,0.000
50.061,3,0,-2.643,-0.001,8977.123,-2.550,-0.098,84.110,-0.918,-0.228,-11.395,70.000,70.000,0.0132435,9304.534,9144.000,0.281,3.815,308.269,-43.732,8977.761,8977.785,-11.431,-0.138,0.258,-0.007,0.016,-0.010,0.000,0.000,0.000,0.005,0.686,-0.001,0.727,0.0000000,0.0000000,8974.281,0.000,0.000,0.000,0,00:00:00,0,0.000,0.000,0.000,0.000,0.000,0.000,0.000,0.000,0.000,0.000,0.000,0.000,0.000,0.000
50.162,3,0,-2.625,-0.011,8985.681,-2.488,-0.117,83.039,-0.771,-0.196,-11.499,70.000,70.000,0.0132435,9307.118,9144.000,0.278,3.307,307.873,-43.788,8986.401,8986.424,-11.524,-0.073,0.183,0.026,0.016,-0.004,0.000,0.000,0.000,0.005,0.689,-0.002,0.725,0.0000000,0.0000000,8982.725,0.000,0.000,0.000,0,00:00:00,0,0.000,0.000,0.000,0.000,0.000,0.000,0.000,0.000,0.000,0.000,0.000,0.000,0.000,0.000
50.263,3,0,-2.604,-0.021,8994.107,-2.444,-0.140,81.972,-0.928,-0.232,-11.286,70.000,70.000,0.0132435,9307.133,9144.000,0.274,2.925,307.494,-43.842,8994.682,8994.705,-11.319,-0.085,0.401,0.021,0.010,-0.034,0.000,0.000,0.000,0.004,0.690,-0.005,0.723,0.0000000,0.0000000,8991.054,0.000,0.000,0.000,0,00:00:00,0,0.000,0.000,0.000,0.000,0.000,0.000,0.000,0.000,0.000,0.000,0.000,0.000,0.000,0.000
50.364,3,0,-2.581,-0.033,9002.418,-2.387,-0.159,80.894,-0.797,-0.210,-11.333,70.000,70.000,0.0132435,9306.934,9144.000,0.271,2.676,307.116,-43.896,9002.942,9002.965,-11.358,-0.040,0.312,0.021,-0.000,0.014,0.000,0.000,0.000,0.005,0.692,-0.006,0.722,0.0000000,0.0000000,8999.269,0.000,0.000,0.000,0,00:00:00,0,0.000,0.000,0.000,0.000,0.000,0.000,0.000,0.000,0.000,0.000,0.000,0.000,0.000,0.000
50.465,3,0,-2.555,-0.046,9010.584,-2.332,-0.185,79.758,-0.799,-0.285,-11.652,70.000,70.000,0.0132435,9306.494,9144.000,0.267,2.447,306.752,-43.948,9010.897,9010.921,-11.678,-0.124,0.317,-0.011,0.007,0.013,0.000,0.000,0.000,0.005,0.692,-0.005,0.722,0.0000000,0.0000000,9007.369,0.000,0.000,0.000,0,00:00:00,0,0.000,0.000,0.000,0.000,0.000,0.000,0.000,0.000,0.000,0.000,0.000,0.000,0.000,0.000
50.566,3,0,-2.526,-0.060,9017.506,-2.277,-0.210,77.779,-0.785,-0.272,-11.653,70.000,70.000,0.0132435,9305.343,9144.000,0.263,2.370,306.752,-43.948,9010.897,9010.921,-11.678,-0.124,0.317,-0.011,0.007,0.013,0.000,0.000,0.000,0.005,0.693,-0.004,0.721,0.0000000,0.0000000,9007.369,0.000,0.000,0.000,0,00:00:00,0,0.000,0.000,0.000,0.000,0.000,0.000,0.000,0.000,0.000,0.000,0.000,0.000,0.000,0.000
50.667,3,0,-2.495,-0.074,9025.455,-2.231,-0.225,76.734,-0.859,-0.190,-11.472,70.000,70.000,0.0132435,9299.331,9144.000,0.257,2.296,306.047,-44.051,9026.364,9026.387,-11.499,-0.007,0.402,0.033,-0.004,0.017,0.000,0.000,0.000,0.006,0.693,-0.005,0.721,0.0000000,0.0000000,9023.230,0.000,0.000,0.000,0,00:00:00,0,0.000,0.000,0.000,0.000,0.000,0.000,0.000,0.000,0.000,0.000,0.000,0.000,0.000,0.000
50.768,3,0,-2.462,-0.089,9033.365,-2.169,-0.251,75.754,-0.674,-0.301,-11.304,70.000,70.000,0.0132435,9299.165,9144.000,0.253,2.278,305.668,-44.102,9034.672,9034.696,-11.324,-0.134,0.267,-0.011,0.002,0.028,0.000,0.000,0.000,0.006,0.694,-0.005,0.720,0.0000000,0.0000000,9030.992,0.000,0.000,0.000,0,00:00:00,0,0.000,0.000,0.000,0.000,0.000,0.000,0.000,0.000,0.000,0.000,0.000,0.000,0.000,0.000
