State - Time (s),State - Stage,State - Stage,State - PX (m),State - PY (m),State - PZ (m),State - VX (m/s),State - VY (m/s),State - VZ (m/s),State - AX (m/s/s),State - AY (m/s/s),State - AZ (m/s/s),State - Actuation Angle (deg),State - Acutal Angle (deg),State - CdA,State - Est Apo (m),State - Target Apogee (m),State - Mach Number,State - Tilt [deg],MockBarometer - Pres (hPa),MockBarometer - Temp (C),MockBarometer - Alt ASL (m),MockBarometer - Alt AGL (m),MockIMU - AccX (m/s^2),MockIMU - AccY (m/s^2),MockIMU - AccZ (m/s^2),MockIMU - GyroX (rad/s),MockIMU - GyroY (rad/s),MockIMU - GyroZ (rad/s),MockIMU - MagX (uT),MockIMU - MagY (uT),MockIMU - MagZ (uT),MockIMU - OriX,MockIMU - OriY,MockIMU - OriZ,MockIMU - OriW,MockGPS - Lat,MockGPS - Lon,MockGPS - Alt (m),MockGPS - Disp X (m),MockGPS - Disp Y (m),MockGPS - Disp Z (m),MockGPS - Fix Quality,MockGPS - Time of Day,E5 - Rel Steps,BR - Battery Voltage (V),BR - ALT (m),BR - PRES (Pa),BR - TEMP (C),BR - VEL (m/s),BR - ANG (deg),BR - ACCX (m/s^2),BR - ACCY (m/s^2),BR - ACCZ (m/s^2),BR - GYROX (rad/s),BR - GYROY (rad/s),BR - GYROZ (rad/s),BR - ROLL (deg),BR - TILT (deg)
30.420,1,0,-1.202,0.538,-10.609,-0.948,0.299,-1.827,3.730,-3.083,96.550,0.000,0.000,0.0103675,0.000,7500.000,0.039,2.453,1013.091,15.040,1.323,1.342,96.671,-0.145,0.332,0.004,0.008,0.002,0.000,0.000,0.000,-0.011,0.692,0.011,0.722,0.0000000,0.0000000,1.451,0.000,0.000,0.000,0,00:00:00,0,0.000,0.000,0.000,0.000,0.000,0.000,0.000,0.000,0.000,0.000,0.000,0.000,0.000,0.000
30.521,1,0,-1.156,0.501,-8.343,-0.513,0.008,9.475,3.695,-2.620,97.454,0.000,0.000,0.0103675,0.000,7500.000,0.006,2.409,1012.815,15.025,3.619,3.639,97.558,-0.001,0.413,0.036,-0.001,0.019,0.000,0.000,0.000,-0.009,0.692,0.010,0.722,0.0000000,0.0000000,3.883,0.000,0.000,0.000,0,00:00:00,0,0.000,0.000,0.000,0.000,0.000,0.000,0.000,0.000,0.000,0.000,0.000,0.000,0.000,0.000
30.622,1,0,-1.074,0.442,-4.867,-0.057,-0.268,20.941,3.951,-2.499,98.605,0.000,0.000,0.0103675,0.000,7500.000,0.028,2.417,1012.350,15.000,7.488,7.508,98.715,-0.152,0.200,0.030,0.001,-0.009,0.000,0.000,0.000,-0.008,0.692,0.009,0.722,0.0000000,0.0000000,7.305,0.000,0.000,0.000,0,00:00:00,0,0.000,0.000,0.000,0.000,0.000,0.000,0.000,0.000,0.000,0.000,0.000,0.000,0.000,0.000
30.723,1,0,-0.959,0.365,-0.272,0.368,-0.517,32.456,3.701,-2.278,99.417,0.000,0.000,0.0103675,0.000,7500.000,0.062,2.412,1011.831,14.975,11.814,11.834,99.511,0.093,0.315,0.000,0.017,0.018,0.000,0.000,0.000,-0.007,0.693,0.010,0.721,0.0000000,0.0000000,11.727,0.000,0.000,0.000,0,00:00:00,0,0.000,0.000,0.000,0.000,0.000,0.000,0.000,0.000,0.000,0.000,0.000,0.000,0.000,0.000
30.824,1,0,-0.816,0.272,5.484,0.779,-0.764,44.064,3.646,-2.296,100.392,0.000,0.000,0.0103675,0.000,7500.000,0.096,2.317,1011.146,14.937,17.523,17.542,100.484,0.040,0.465,0.006,-0.006,0.007,0.000,0.000,0.000,-0.007,0.692,0.010,0.721,0.0000000,0.0000000,17.158,0.000,0.000,0.000,0,00:00:00,0,0.000,0.000,0.000,0.000,0.000,0.000,0.000,0.000,0.000,0.000,0.000,0.000,0.000,0.000
30.925,1,0,-0.648,0.165,12.298,1.219,-1.017,55.678,4.017,-2.415,101.329,0.000,0.000,0.0103675,0.000,7500.000,0.130,2.350,1010.416,14.895,23.610,23.630,101.436,-0.002,0.487,-0.006,-0.034,-0.029,0.000,0.000,0.000,-0.008,0.691,0.009,0.723,0.0000000,0.0000000,23.608,0.000,0.000,0.000,0,00:00:00,0,0.000,0.000,0.000,0.000,0.000,0.000,0.000,0.000,0.000,0.000,0.000,0.000,0.000,0.000
31.026,1,0,-0.455,0.045,19.166,1.685,-1.268,66.454,4.370,-2.468,101.313,0.000,0.000,0.0103675,0.000,7500.000,0.164,2.546,1010.416,14.895,23.610,23.630,101.436,-0.002,0.487,-0.006,-0.034,-0.029,0.000,0.000,0.000,-0.009,0.690,0.008,0.724,0.0000000,0.0000000,23.608,0.000,0.000,0.000,0,00:00:00,0,0.000,0.000,0.000,0.000,0.000,0.000,0.000,0.000,0.000,0.000,0.000,0.000,0.000,0.000
31.127,1,0,-0.236,-0.087,28.274,2.166,-1.522,78.248,4.643,-2.560,102.931,0.000,0.000,0.0103675,0.000,7500.000,0.196,2.741,1008.484,14.791,39.736,39.756,103.066,0.077,0.471,-0.013,-0.018,0.004,0.000,0.000,0.000,-0.010,0.689,0.009,0.724,0.0000000,0.0000000,39.598,0.000,0.000,0.000,0,00:00:00,0,0.000,0.000,0.000,0.000,0.000,0.000,0.000,0.000,0.000,0.000,0.000,0.000,0.000,0.000
31.228,1,0,0.006,-0.232,38.474,2.629,-1.827,90.079,4.590,-3.146,104.067,0.000,0.000,0.0103675,0.000,7500.000,0.231,2.842,1007.340,14.729,49.289,49.309,104.215,-0.093,0.371,-0.035,0.019,0.051,0.000,0.000,0.000,-0.009,0.690,0.012,0.724,0.0000000,0.0000000,49.157,0.000,0.000,0.000,0,00:00:00,0,0.000,0.000,0.000,0.000,0.000,0.000,0.000,0.000,0.000,0.000,0.000,0.000,0.000,0.000
31.329,1,0,0.268,-0.390,49.782,3.113,-2.103,101.931,4.933,-2.935,104.965,0.000,0.000,0.0103675,0.000,7500.000,0.265,2.735,1006.055,14.660,60.038,60.058,105.121,-0.011,0.261,0.016,-0.019,0.019,0.000,0.000,0.000,-0.008,0.689,0.012,0.724,0.0000000,0.0000000,59.771,0.000,0.000,0.000,0,00:00:00,0,0.000,0.000,0.000,0.000,0.000,0.000,0.000,0.000,0.000,0.000,0.000,0.000,0.000,0.000
31.430,1,0,0.551,-0.559,62.150,3.613,-2.383,113.763,5.239,-3.069,105.805,0.000,0.000,0.0103675,0.000,7500.000,0.300,2.841,1004.682,14.581,71.535,71.555,105.979,-0.124,0.171,-0.000,-0.016,-0.008,0.000,0.000,0.000,-0.008,0.689,0.011,0.725,0.0000000,0.0000000,71.447,0.000,0.000,0.000,0,00:00:00,0,0.000,0.000,0.000,0.000,0.000,0.000,0.000,0.000,0.000,0.000,0.000,0.000,0.000,0.000
31.531,1,0,0.853,-0.737,75.618,4.124,-2.645,125.610,5.509,-2.973,106.695,0.000,0.000,0.0103675,0.000,7500.000,0.335,2.934,1003.148,14.497,84.395,84.415,106.878,0.036,0.250,-0.002,-0.029,0.032,0.000,0.000,0.000,-0.007,0.688,0.013,0.726,0.0000000,0.0000000,84.197,0.000,0.000,0.000,0,00:00:00,0,0.000,0.000,0.000,0.000,0.000,0.000,0.000,0.000,0.000,0.000,0.000,0.000,0.000,0.000
31.632,1,0,1.172,-0.922,90.117,4.589,-2.915,137.412,5.217,-3.165,107.496,0.000,0.000,0.0103675,0.000,7500.000,0.370,3.101,1001.545,14.407,97.856,97.876,107.669,0.012,0.367,-0.015,0.021,-0.027,0.000,0.000,0.000,-0.009,0.688,0.012,0.725,0.0000000,0.0000000,98.027,0.000,0.000,0.000,0,00:00:00,0,0.000,0.000,0.000,0.000,0.000,0.000,0.000,0.000,0.000,0.000,0.000,0.000,0.000,0.000
31.733,1,0,1.503,-1.114,105.739,5.048,-3.186,149.243,5.333,-3.270,108.327,0.000,0.000,0.0103675,0.000,7500.000,0.405,2.982,999.740,14.308,113.023,113.042,108.507,-0.019,0.248,-0.005,0.005,-0.011,0.000,0.000,0.000,-0.009,0.689,0.012,0.725,0.0000000,0.0000000,112.947,0.000,0.000,0.000,0,00:00:00,0,0.000,0.000,0.000,0.000,0.000,0.000,0.000,0.000,0.000,0.000,0.000,0.000,0.000,0.000
31.834,1,0,1.842,-1.311,122.444,5.450,-3.405,161.089,4.954,-2.856,109.348,0.000,0.000,0.0103675,0.000,7500.000,0.440,2.955,997.841,14.205,129.015,129.035,109.496,-0.049,0.535,0.043,0.013,-0.007,0.000,0.000,0.000,-0.008,0.689,0.010,0.725,0.0000000,0.0000000,128.965,0.000,0.000,0.000,0,00:00:00,0,0.000,0.000,0.000,0.000,0.000,0.000,0.000,0.000,0.000,0.000,0.000,0.000,0.000,0.000
31.935,1,0,2.185,-1.507,140.236,5.816,-3.568,172.942,4.765,-2.405,110.255,0.000,0.000,0.0103675,0.000,7500.000,0.475,2.878,995.814,14.092,146.105,146.124,110.384,-0.076,0.359,0.046,0.037,0.003,0.000,0.000,0.000,-0.006,0.690,0.009,0.723,0.0000000,0.0000000,146.090,0.000,0.000,0.000,0,00:00:00,0,0.000,0.000,0.000,0.000,0.000,0.000,0.000,0.000,0.000,0.000,0.000,0.000,0.000,0.000
32.036,1,0,2.527,-1.698,159.155,6.143,-3.687,184.820,4.571,-2.069,111.050,0.000,0.000,0.0103675,0.000,7500.000,0.510,2.666,993.628,13.972,164.565,164.585,111.163,-0.027,0.299,0.027,0.026,-0.003,0.000,0.000,0.000,-0.005,0.691,0.008,0.722,0.0000000,0.0000000,164.330,0.000,0.000,0.000,0,00:00:00,0,0.000,0.000,0.000,0.000,0.000,0.000,0.000,0.000,0.000,0.000,0.000,0.000,0.000,0.000
32.137,1,0,2.866,-1.880,179.127,6.449,-3.776,196.670,4.537,-1.877,111.895,0.000,0.000,0.0103675,0.000,7500.000,0.545,2.515,991.377,13.847,183.613,183.633,112.002,0.130,0.305,0.004,0.006,-0.007,0.000,0.000,0.000,-0.005,0.692,0.007,0.722,0.0000000,0.0000000,183.693,0.000,0.000,0.000,0,00:00:00,0,0.000,0.000,0.000,0.000,0.000,0.000,0.000,0.000,0.000,0.000,0.000,0.000,0.000,0.000
32.238,1,0,3.202,-2.052,200.266,6.764,-3.831,208.574,4.806,-1.624,112.683,0.000,0.000,0.0103675,0.000,7500.000,0.581,2.480,988.908,13.712,204.548,204.568,112.796,0.163,0.292,0.021,-0.020,-0.004,0.000,0.000,0.000,-0.005,0.691,0.006,0.723,0.0000000,0.0000000,204.187,0.000,0.000,0.000,0,00:00:00,0,0.000,0.000,0.000,0.000,0.000,0.000,0.000,0.000,0.000,0.000,0.000,0.000,0.000,0.000
32.339,1,0,3.534,-2.212,222.451,7.060,-3.890,220.438,4.784,-1.741,113.463,0.000,0.000,0.0103675,0.000,7500.000,0.616,2.593,986.412,13.571,225.745,225.765,113.577,-0.000,0.331,0.005,0.002,0.004,0.000,0.000,0.000,-0.004,0.691,0.006,0.723,0.0000000,0.0000000,225.821,0.000,0.000,0.000,0,00:00:00,0,0.000,0.000,0.000,0.000,0.000,0.000,0.000,0.000,0.000,0.000,0.000,0.000,0.000,0.000
32.440,1,0,3.860,-2.360,245.770,7.310,-3.879,232.326,4.504,-1.133,114.209,0.000,0.000,0.0103675,0.000,7500.000,0.651,2.584,983.722,13.420,248.649,248.669,114.303,0.090,0.225,0.046,0.037,-0.002,0.000,0.000,0.000,-0.003,0.692,0.005,0.722,0.0000000,0.0000000,248.602,0.000,0.000,0.000,0,00:00:00,0,0.000,0.000,0.000,0.000,0.000,0.000,0.000,0.000,0.000,0.000,0.000,0.000,0.000,0.000
32.541,1,0,4.177,-2.493,270.256,7.549,-3.855,244.269,4.565,-1.074,115.043,0.000,0.000,0.0103675,0.000,7500.000,0.686,2.373,980.880,13.262,272.896,272.916,115.138,-0.037,0.221,0.017,-0.002,0.001,0.000,0.000,0.000,-0.002,0.692,0.004,0.722,0.0000000,0.0000000,272.537,0.000,0.000,0.000,0,00:00:00,0,0.000,0.000,0.000,0.000,0.000,0.000,0.000,0.000,0.000,0.000,0.000,0.000,0.000,0.000
32.642,1,0,4.486,-2.611,295.844,7.763,-3.850,256.207,4.482,-1.329,115.782,0.000,0.000,0.0103675,0.000,7500.000,0.722,2.384,977.965,13.098,297.829,297.848,115.874,-0.189,0.575,-0.009,-0.021,-0.004,0.000,0.000,0.000,-0.003,0.691,0.004,0.722,0.0000000,0.0000000,297.634,0.000,0.000,0.000,0,00:00:00,0,0.000,0.000,0.000,0.000,0.000,0.000,0.000,0.000,0.000,0.000,0.000,0.000,0.000,0.000
32.743,1,0,4.786,-2.719,318.883,7.986,-3.850,265.338,4.722,-1.426,115.771,0.000,0.000,0.0103675,0.000,7500.000,0.757,2.503,977.965,13.098,297.829,297.848,115.874,-0.189,0.575,-0.009,-0.021,-0.004,0.000,0.000,0.000,-0.003,0.691,0.004,0.723,0.0000000,0.0000000,297.634,0.000,0.000,0.000,0,00:00:00,0,0.000,0.000,0.000,0.000,0.000,0.000,0.000,0.000,0.000,0.000,0.000,0.000,0.000,0.000
32.844,1,0,5.080,-2.816,347.012,8.259,-3.863,277.731,5.375,-1.612,117.285,0.000,0.000,0.0103675,0.000,7500.000,0.784,2.621,971.716,12.747,351.479,351.499,117.419,-0.183,0.162,-0.015,-0.014,-0.003,0.000,0.000,0.000,-0.004,0.690,0.005,0.724,0.0000000,0.0000000,351.345,0.000,0.000,0.000,0,00:00:00,0,0.000,0.000,0.000,0.000,0.000,0.000,0.000,0.000,0.000,0.000,0.000,0.000,0.000,0.000
32.945,1,0,5.372,-2.903,376.327,8.540,-3.807,290.131,5.604,-0.970,117.868,0.000,0.000,0.0103675,0.000,7500.000,0.821,2.704,968.363,12.559,380.376,380.396,118.005,-0.026,0.247,0.042,-0.024,-0.001,0.000,0.000,0.000,-0.002,0.689,0.003,0.724,0.0000000,0.0000000,379.973,0.000,0.000,0.000,0,00:00:00,0,0.000,0.000,0.000,0.000,0.000,0.000,0.000,0.000,0.000,0.000,0.000,0.000,0.000,0.000
33.046,1,0,5.661,-2.976,406.797,8.805,-3.746,302.554,5.607,-0.964,118.848,0.000,0.000,0.0103675,0.000,7500.000,0.858,2.842,964.911,12.365,410.221,410.241,118.984,0.026,0.331,-0.003,-0.003,0.008,0.000,0.000,0.000,-0.002,0.689,0.004,0.725,0.0000000,0.0000000,409.791,0.000,0.000,0.000,0,00:00:00,0,0.000,0.000,0.000,0.000,0.000,0.000,0.000,0.000,0.000,0.000,0.000,0.000,0.000,0.000
33.147,1,0,5.948,-3.036,438.360,9.071,-3.658,314.900,5.760,-0.728,119.310,0.000,0.000,0.0103675,0.000,7500.000,0.895,2.861,961.387,12.157,440.767,440.787,119.451,0.044,0.164,0.019,0.003,0.005,0.000,0.000,0.000,-0.001,0.689,0.003,0.724,0.0000000,0.0000000,440.806,0.000,0.000,0.000,0,00:00:00,0,0.000,0.000,0.000,0.000,0.000,0.000,0.000,0.000,0.000,0.000,0.000,0.000,0.000,0.000
33.248,1,0,6.231,-3.080,466.570,9.318,-3.546,323.810,5.723,-0.505,119.313,0.000,0.000,0.0103675,0.000,7500.000,0.932,2.844,961.387,12.157,440.767,440.787,119.451,0.044,0.164,0.019,0.003,0.005,0.000,0.000,0.000,-0.000,0.689,0.003,0.724,0.0000000,0.0000000,440.806,0.000,0.000,0.000,0,00:00:00,0,0.000,0.000,0.000,0.000,0.000,0.000,0.000,0.000,0.000,0.000,0.000,0.000,0.000,0.000
33.349,1,0,6.509,-3.112,500.794,9.547,-3.463,336.672,5.688,-0.815,120.662,0.000,0.000,0.0103675,0.000,7500.000,0.959,2.826,953.862,11.731,506.317,506.337,120.798,0.011,0.315,-0.022,-0.004,0.021,0.000,0.000,0.000,-0.000,0.689,0.004,0.724,0.0000000,0.0000000,506.455,0.000,0.000,0.000,0,00:00:00,0,0.000,0.000,0.000,0.000,0.000,0.000,0.000,0.000,0.000,0.000,0.000,0.000,0.000,0.000
33.450,1,0,6.783,-3.132,536.270,9.792,-3.353,349.557,5.991,-0.559,121.258,0.000,0.000,0.0103675,0.000,7500.000,0.997,2.851,949.843,11.504,541.489,541.509,121.407,0.030,0.165,0.020,-0.010,-0.005,0.000,0.000,0.000,0.000,0.689,0.004,0.725,0.0000000,0.0000000,541.101,0.000,0.000,0.000,0,00:00:00,0,0.000,0.000,0.000,0.000,0.000,0.000,0.000,0.000,0.000,0.000,0.000,0.000,0.000,0.000
33.551,1,0,7.054,-3.139,572.873,10.041,-3.237,362.375,6.180,-0.498,121.903,0.000,0.000,0.0103675,0.000,7500.000,1.036,2.908,945.800,11.270,577.001,577.021,122.060,0.189,0.376,-0.007,-0.030,0.011,0.000,0.000,0.000,0.000,0.688,0.004,0.726,0.0000000,0.0000000,576.968,0.000,0.000,0.000,0,00:00:00,0,0.000,0.000,0.000,0.000,0.000,0.000,0.000,0.000,0.000,0.000,0.000,0.000,0.000,0.000
33.652,1,0,7.322,-3.136,610.666,10.277,-3.131,375.163,6.181,-0.605,122.422,0.000,0.000,0.0103675,0.000,7500.000,1.074,3.080,941.587,11.024,614.130,614.150,122.578,-0.109,0.443,0.017,-0.004,0.016,0.000,0.000,0.000,0.001,0.688,0.004,0.726,0.0000000,0.0000000,614.064,0.000,0.000,0.000,0,00:00:00,0,0.000,0.000,0.000,0.000,0.000,0.000,0.000,0.000,0.000,0.000,0.000,0.000,0.000,0.000
33.753,1,0,7.585,-3.125,649.678,10.497,-3.064,387.959,6.167,-0.981,123.038,0.000,0.000,0.0103675,0.000,7500.000,1.113,3.100,937.229,10.776,652.687,652.707,123.195,-0.031,0.520,-0.036,-0.002,0.019,0.000,0.000,0.000,0.001,0.688,0.006,0.726,0.0000000,0.0000000,652.393,0.000,0.000,0.000,0,00:00:00,0,0.000,0.000,0.000,0.000,0.000,0.000,0.000,0.000,0.000,0.000,0.000,0.000,0.000,0.000
33.854,1,0,7.844,-3.110,689.898,10.710,-3.013,400.725,6.235,-1.124,123.383,0.000,0.000,0.0103675,0.000,7500.000,1.151,3.115,932.760,10.516,692.376,692.395,123.544,-0.108,0.358,-0.006,0.009,-0.021,0.000,0.000,0.000,-0.000,0.688,0.006,0.726,0.0000000,0.0000000,691.960,0.000,0.000,0.000,0,00:00:00,0,0.000,0.000,0.000,0.000,0.000,0.000,0.000,0.000,0.000,0.000,0.000,0.000,0.000,0.000
33.955,1,0,8.096,-3.092,731.278,10.887,-2.982,413.451,6.016,-1.325,123.972,0.000,0.000,0.0103675,0.000,7500.000,1.189,3.063,928.209,10.248,732.943,732.963,124.124,0.047,0.332,-0.029,0.023,-0.024,0.000,0.000,0.000,-0.002,0.689,0.006,0.725,0.0000000,0.0000000,732.772,0.000,0.000,0.000,0,00:00:00,0,0.000,0.000,0.000,0.000,0.000,0.000,0.000,0.000,0.000,0.000,0.000,0.000,0.000,0.000
34.056,1,0,8.339,-3.071,773.836,11.030,-2.893,426.155,5.797,-0.734,124.573,0.000,0.000,0.0103675,0.000,7500.000,1.228,2.935,923.531,9.971,774.823,774.843,124.709,0.051,0.319,0.048,0.021,0.009,0.000,0.000,0.000,-0.000,0.690,0.004,0.724,0.0000000,0.0000000,774.832,0.000,0.000,0.000,0,00:00:00,0,0.000,0.000,0.000,0.000,0.000,0.000,0.000,0.000,0.000,0.000,0.000,0.000,0.000,0.000
34.157,1,0,8.570,-3.043,817.658,11.129,-2.805,438.889,5.488,-0.727,125.030,0.000,0.000,0.0103675,0.000,7500.000,1.266,2.813,918.671,9.690,818.507,818.527,125.152,0.084,0.314,-0.004,0.027,-0.043,0.000,0.000,0.000,-0.002,0.691,0.003,0.723,0.0000000,0.0000000,818.145,0.000,0.000,0.000,0,00:00:00,0,0.000,0.000,0.000,0.000,0.000,0.000,0.000,0.000,0.000,0.000,0.000,0.000,0.000,0.000
34.258,1,0,8.790,-3.010,862.677,11.252,-2.702,451.622,5.844,-0.568,125.691,0.000,0.000,0.0103675,0.000,7500.000,1.305,2.657,913.746,9.396,862.969,862.988,125.828,0.074,0.294,0.014,-0.024,0.007,0.000,0.000,0.000,-0.001,0.690,0.003,0.724,0.0000000,0.0000000,862.717,0.000,0.000,0.000,0,00:00:00,0,0.000,0.000,0.000,0.000,0.000,0.000,0.000,0.000,0.000,0.000,0.000,0.000,0.000,0.000
34.359,1,0,9.000,-2.971,908.933,11.368,-2.613,464.358,5.877,-0.674,126.112,0.000,0.000,0.0103675,0.000,7500.000,1.343,2.796,908.680,9.097,908.904,908.923,126.250,-0.027,0.298,-0.001,-0.001,-0.019,0.000,0.000,0.000,-0.002,0.690,0.002,0.724,0.0000000,0.0000000,908.550,0.000,0.000,0.000,0,00:00:00,0,0.000,0.000,0.000,0.000,0.000,0.000,0.000,0.000,0.000,0.000,0.000,0.000,0.000,0.000
34.460,1,0,9.200,-2.927,956.390,11.458,-2.533,477.062,5.734,-0.745,126.433,0.000,0.000,0.0103675,0.000,7500.000,1.382,2.803,903.528,8.788,955.832,955.851,126.565,0.053,0.158,-0.012,0.024,-0.009,0.000,0.000,0.000,-0.002,0.690,0.002,0.723,0.0000000,0.0000000,955.650,0.000,0.000,0.000,0,00:00:00,0,0.000,0.000,0.000,0.000,0.000,0.000,0.000,0.000,0.000,0.000,0.000,0.000,0.000,0.000
34.561,1,0,9.389,-2.880,1005.123,11.536,-2.451,489.777,5.712,-0.708,126.595,0.000,0.000,0.0103675,0.000,7500.000,1.420,2.668,898.208,8.473,1004.516,1004.536,126.725,0.233,0.395,-0.011,-0.016,0.003,0.000,0.000,0.000,-0.003,0.690,0.003,0.724,0.0000000,0.0000000,1004.020,0.000,0.000,0.000,0,00:00:00,0,0.000,0.000,0.000,0.000,0.000,0.000,0.000,0.000,0.000,0.000,0.000,0.000,0.000,0.000
34.662,1,0,9.566,-2.834,1055.126,11.605,-2.432,502.534,5.709,-1.297,127.143,0.000,0.000,0.0103675,0.000,7500.000,1.459,2.762,892.783,8.145,1054.411,1054.431,127.277,-0.059,0.219,-0.024,0.016,-0.014,0.000,0.000,0.000,-0.004,0.690,0.003,0.723,0.0000000,0.0000000,1053.664,0.000,0.000,0.000,0,00:00:00,0,0.000,0.000,0.000,0.000,0.000,0.000,0.000,0.000,0.000,0.000,0.000,0.000,0.000,0.000
34.763,1,0,9.733,-2.789,1106.297,11.654,-2.414,515.230,5.607,-1.292,127.442,0.000,0.000,0.0103675,0.000,7500.000,1.498,2.668,887.326,7.815,1104.836,1104.856,127.571,-0.075,0.410,0.000,-0.005,-0.039,0.000,0.000,0.000,-0.005,0.690,0.002,0.724,0.0000000,0.0000000,1104.585,0.000,0.000,0.000,0,00:00:00,0,0.000,0.000,0.000,0.000,0.000,0.000,0.000,0.000,0.000,0.000,0.000,0.000,0.000,0.000
34.864,1,0,9.887,-2.747,1158.734,11.674,-2.393,527.953,5.393,-1.240,127.850,0.000,0.000,0.0103675,0.000,7500.000,1.537,2.700,881.694,7.470,1157.158,1157.178,127.970,-0.044,0.296,0.002,0.027,-0.009,0.000,0.000,0.000,-0.006,0.691,0.001,0.723,0.0000000,0.0000000,1156.787,0.000,0.000,0.000,0,00:00:00,0,0.000,0.000,0.000,0.000,0.000,0.000,0.000,0.000,0.000,0.000,0.000,0.000,0.000,0.000
34.965,1,0,10.026,-2.708,1204.927,11.651,-2.372,535.053,5.047,-1.215,127.865,0.000,0.000,0.0103675,0.000,7500.000,1.575,2.544,881.694,7.470,1157.158,1157.178,127.970,-0.044,0.296,0.002,0.027,-0.009,0.000,0.000,0.000,-0.006,0.692,0.001,0.722,0.0000000,0.0000000,1156.787,0.000,0.000,0.000,0,00:00:00,0,0.000,0.000,0.000,0.000,0.000,0.000,0.000,0.000,0.000,0.000,0.000,0.000,0.000,0.000
35.066,1,0,10.150,-2.669,1260.484,11.624,-2.346,548.673,5.068,-1.149,128.483,0.000,0.000,0.0103675,0.000,7500.000,1.597,2.389,870.095,6.761,1265.751,1265.771,128.588,-0.062,0.248,0.007,0.004,0.003,0.000,0.000,0.000,-0.005,0.692,0.001,0.722,0.0000000,0.0000000,1265.043,0.000,0.000,0.000,0,00:00:00,0,0.000,0.000,0.000,0.000,0.000,0.000,0.000,0.000,0.000,0.000,0.000,0.000,0.000,0.000
35.167,1,0,10.259,-2.632,1309.438,11.586,-2.314,556.333,5.016,-1.061,128.486,0.000,0.000,0.0103675,0.000,7500.000,1.639,2.366,870.095,6.761,1265.751,1265.771,128.588,-0.062,0.248,0.007,0.004,0.003,0.000,0.000,0.000,-0.005,0.692,0.000,0.721,0.0000000,0.0000000,1265.043,0.000,0.000,0.000,0,00:00:00,0,0.000,0.000,0.000,0.000,0.000,0.000,0.000,0.000,0.000,0.000,0.000,0.000,0.000,0.000
35.268,2,0,10.320,-2.588,1366.955,10.780,-2.120,552.012,-2.551,0.561,-54.657,0.000,0.000,0.0103675,0.000,7500.000,1.662,2.343,858.363,6.036,1376.788,1376.808,-54.719,-0.010,0.296,-0.028,-0.003,-0.011,0.000,0.000,0.000,-0.006,0.692,0.001,0.722,0.0000000,0.0000000,1375.701,0.000,0.000,0.000,0,00:00:00,0,0.000,0.000,0.000,0.000,0.000,0.000,0.000,0.000,0.000,0.000,0.000,0.000,0.000,0.000
35.369,2,0,10.301,-2.531,1423.561,9.976,-1.937,547.436,-2.544,0.479,-53.645,0.000,0.000,0.0127933,0.000,7500.000,1.651,2.358,852.740,5.680,1430.451,1430.470,-53.707,-0.023,0.229,0.012,-0.019,0.020,0.000,0.000,0.000,-0.005,0.692,0.001,0.722,0.0000000,0.0000000,1429.767,0.000,0.000,0.000,0,00:00:00,0,0.000,0.000,0.000,0.000,0.000,0.000,0.000,0.000,0.000,0.000,0.000,0.000,0.000,0.000
35.470,2,0,10.209,-2.462,1479.333,9.147,-1.749,542.711,-2.839,0.566,-52.313,0.000,0.000,0.0128167,0.000,7500.000,1.639,2.468,847.168,5.330,1483.900,1483.920,-52.391,-0.016,0.484,-0.019,-0.018,-0.029,0.000,0.000,0.000,-0.007,0.691,0.001,0.723,0.0000000,0.0000000,1483.313,0.000,0.000,0.000,0,00:00:00,0,0.000,0.000,0.000,0.000,0.000,0.000,0.000,0.000,0.000,0.000,0.000,0.000,0.000,0.000
35.571,2,0,10.052,-2.382,1534.399,8.351,-1.563,537.906,-2.588,0.587,-51.382,0.000,0.000,0.0128165,0.000,7500.000,1.626,2.571,841.607,4.982,1537.538,1537.558,-51.450,-0.059,0.184,-0.014,-0.018,-0.002,0.000,0.000,0.000,-0.008,0.690,0.001,0.723,0.0000000,0.0000000,1536.350,0.000,0.000,0.000,0,00:00:00,0,0.000,0.000,0.000,0.000,0.000,0.000,0.000,0.000,0.000,0.000,0.000,0.000,0.000,0.000
35.672,2,0,9.836,-2.293,1588.595,7.551,-1.375,532.887,-2.748,0.657,-50.620,0.000,0.000,0.0128329,0.000,7500.000,1.612,2.672,836.263,4.638,1589.346,1589.366,-50.698,0.073,0.317,0.011,-0.012,0.010,0.000,0.000,0.000,-0.007,0.690,0.001,0.724,0.0000000,0.0000000,1588.887,0.000,0.000,0.000,0,00:00:00,0,0.000,0.000,0.000,0.000,0.000,0.000,0.000,0.000,0.000,0.000,0.000,0.000,0.000,0.000
35.773,2,0,9.568,-2.196,1642.150,6.765,-1.215,527.890,-2.751,0.429,-49.370,0.000,0.000,0.0128672,0.000,7500.000,1.598,2.742,830.856,4.298,1642.040,1642.059,-49.447,-0.095,0.307,0.010,-0.015,0.013,0.000,0.000,0.000,-0.006,0.689,0.002,0.724,0.0000000,0.0000000,1640.934,0.000,0.000,0.000,0,00:00:00,0,0.000,0.000,0.000,0.000,0.000,0.000,0.000,0.000,0.000,0.000,0.000,0.000,0.000,0.000
35.874,2,0,9.252,-2.095,1694.979,5.965,-1.070,522.813,-3.055,0.330,-48.486,0.000,0.000,0.0128885,0.000,7500.000,1.584,2.830,825.605,3.961,1693.482,1693.502,-48.581,-0.156,0.497,0.005,-0.032,-0.013,0.000,0.000,0.000,-0.006,0.688,0.001,0.725,0.0000000,0.0000000,1692.500,0.000,0.000,0.000,0,00:00:00,0,0.000,0.000,0.000,0.000,0.000,0.000,0.000,0.000,0.000,0.000,0.000,0.000,0.000,0.000
35.975,2,0,8.894,-1.990,1747.103,5.183,-0.930,517.668,-3.073,0.340,-47.707,0.000,0.000,0.0129167,0.000,7500.000,1.570,3.016,820.433,3.622,1744.407,1744.427,-47.805,-0.165,0.401,-0.006,-0.032,-0.002,0.000,0.000,0.000,-0.007,0.687,0.001,0.727,0.0000000,0.0000000,1743.595,0.000,0.000,0.000,0,00:00:00,0,0.000,0.000,0.000,0.000,0.000,0.000,0.000,0.000,0.000,0.000,0.000,0.000,0.000,0.000
36.076,2,0,8.499,-1.882,1798.565,4.429,-0.786,512.516,-2.992,0.436,-46.689,0.000,0.000,0.0129525,0.000,7500.000,1.555,3.201,815.325,3.290,1794.961,1794.981,-46.785,-0.079,0.484,-0.004,0.023,0.016,0.000,0.000,0.000,-0.006,0.688,0.002,0.726,0.0000000,0.0000000,1794.226,0.000,0.000,0.000,0,00:00:00,0,0.000,0.000,0.000,0.000,0.000,0.000,0.000,0.000,0.000,0.000,0.000,0.000,0.000,0.000
36.177,2,0,8.073,-1.770,1849.404,3.691,-0.643,507.371,-3.064,0.489,-45.822,0.000,0.000,0.0129856,0.000,7500.000,1.541,3.070,810.280,2.963,1845.138,1845.158,-45.923,-0.033,0.602,-0.004,-0.000,-0.001,0.000,0.000,0.000,-0.006,0.688,0.002,0.726,0.0000000,0.0000000,1844.403,0.000,0.000,0.000,0,00:00:00,0,0.000,0.000,0.000,0.000,0.000,0.000,0.000,0.000,0.000,0.000,0.000,0.000,0.000,0.000
36.278,2,0,7.622,-1.656,1899.615,3.014,-0.491,502.227,-2.690,0.631,-44.982,0.000,0.000,0.0130210,0.000,7500.000,1.526,3.070,805.326,2.640,1894.664,1894.683,-45.066,0.071,0.232,-0.009,-0.009,0.010,0.000,0.000,0.000,-0.006,0.688,0.002,0.726,0.0000000,0.0000000,1894.133,0.000,0.000,0.000,0,00:00:00,0,0.000,0.000,0.000,0.000,0.000,0.000,0.000,0.000,0.000,0.000,0.000,0.000,0.000,0.000
36.379,2,0,7.153,-1.539,1942.343,2.359,-0.341,491.881,-2.730,0.676,-44.979,0.000,0.000,0.0130580,0.000,7500.000,1.511,3.122,805.326,2.640,1894.664,1894.683,-45.066,0.071,0.232,-0.009,-0.009,0.010,0.000,0.000,0.000,-0.006,0.687,0.003,0.726,0.0000000,0.0000000,1894.133,0.000,0.000,0.000,0,00:00:00,0,0.000,0.000,0.000,0.000,0.000,0.000,0.000,0.000,0.000,0.000,0.000,0.000,0.000,0.000
36.480,2,0,6.668,-1.419,1991.970,1.727,-0.199,487.622,-2.749,0.662,-43.408,0.000,0.000,0.0131413,0.000,7500.000,1.480,3.174,795.563,1.996,1992.983,1993.003,-43.498,-0.060,0.444,-0.032,0.024,-0.001,0.000,0.000,0.000,-0.008,0.688,0.004,0.726,0.0000000,0.0000000,1992.284,0.000,0.000,0.000,0,00:00:00,0,0.000,0.000,0.000,0.000,0.000,0.000,0.000,0.000,0.000,0.000,0.000,0.000,0.000,0.000
36.581,2,0,6.172,-1.297,2041.100,1.109,-0.035,483.400,-2.869,0.939,-42.521,0.000,0.000,0.0131979,0.000,7500.000,1.469,3.033,790.764,1.677,2041.678,2041.698,-42.625,0.118,0.429,-0.029,-0.042,-0.035,0.000,0.000,0.000,-0.010,0.687,0.004,0.727,0.0000000,0.0000000,2040.721,0.000,0.000,0.000,0,00:00:00,0,0.000,0.000,0.000,0.000,0.000,0.000,0.000,0.000,0.000,0.000,0.000,0.000,0.000,0.000
36.682,2,0,5.668,-1.172,2089.755,0.533,0.105,479.205,-2.727,0.774,-41.877,0.000,0.000,0.0132485,0.000,7500.000,1.457,3.272,786.023,1.360,2090.015,2090.035,-41.972,-0.107,0.273,-0.016,-0.013,0.013,0.000,0.000,0.000,-0.010,0.686,0.005,0.727,0.0000000,0.0000000,2088.740,0.000,0.000,0.000,0,00:00:00,0,0.000,0.000,0.000,0.000,0.000,0.000,0.000,0.000,0.000,0.000,0.000,0.000,0.000,0.000
36.783,2,0,5.159,-1.046,2131.227,-0.022,0.246,469.959,-2.780,0.845,-41.872,0.000,0.000,0.0132986,0.000,7500.000,1.445,3.345,786.023,1.360,2090.015,2090.035,-41.972,-0.107,0.273,-0.016,-0.013,0.013,0.000,0.000,0.000,-0.010,0.686,0.006,0.728,0.0000000,0.0000000,2088.740,0.000,0.000,0.000,0,00:00:00,0,0.000,0.000,0.000,0.000,0.000,0.000,0.000,0.000,0.000,0.000,0.000,0.000,0.000,0.000
36.884,2,0,4.649,-0.918,2179.395,-0.549,0.395,466.536,-2.775,0.998,-40.614,0.000,0.000,0.0133811,0.000,7500.000,1.418,3.418,776.778,0.741,2184.951,2184.970,-40.720,0.010,0.290,-0.014,-0.013,0.021,0.000,0.000,0.000,-0.010,0.685,0.007,0.728,0.0000000,0.0000000,2183.558,0.000,0.000,0.000,0,00:00:00,0,0.000,0.000,0.000,0.000,0.000,0.000,0.000,0.000,0.000,0.000,0.000,0.000,0.000,0.000
36.985,2,0,4.139,-0.789,2220.515,-1.055,0.545,458.106,-2.827,1.062,-40.609,0.000,0.000,0.0134447,0.000,7500.000,1.409,3.494,776.778,0.741,2184.951,2184.970,-40.720,0.010,0.290,-0.014,-0.013,0.021,0.000,0.000,0.000,-0.010,0.685,0.008,0.729,0.0000000,0.0000000,2183.558,0.000,0.000,0.000,0,00:00:00,0,0.000,0.000,0.000,0.000,0.000,0.000,0.000,0.000,0.000,0.000,0.000,0.000,0.000,0.000
37.086,2,0,3.633,-0.659,2268.159,-1.522,0.683,455.321,-2.722,1.025,-39.238,0.000,0.000,0.0103675,0.000,7500.000,1.383,3.570,767.821,0.131,2277.810,2277.830,-39.345,0.002,0.242,-0.003,-0.007,-0.018,0.000,0.000,0.000,-0.011,0.684,0.008,0.729,0.0000000,0.0000000,2276.790,0.000,0.000,0.000,0,00:00:00,0,0.000,0.000,0.000,0.000,0.000,0.000,0.000,0.000,0.000,0.000,0.000,0.000,0.000,0.000
37.187,2,0,3.131,-0.528,2315.394,-1.983,0.820,452.513,-2.918,1.080,-38.483,0.000,0.000,0.0106009,0.000,7500.000,1.376,3.609,763.375,-0.173,2324.231,2324.251,-38.605,0.072,0.482,-0.002,-0.000,-0.015,0.000,0.000,0.000,-0.011,0.684,0.007,0.729,0.0000000,0.0000000,2322.827,0.000,0.000,0.000,0,00:00:00,0,0.000,0.000,0.000,0.000,0.000,0.000,0.000,0.000,0.000,0.000,0.000,0.000,0.000,0.000
37.288,2,0,2.637,-0.398,2362.131,-2.403,0.944,449.600,-2.764,1.020,-37.913,0.000,0.000,0.0108096,0.000,7500.000,1.369,3.610,759.046,-0.472,2369.634,2369.653,-38.027,-0.000,0.269,-0.007,-0.025,0.001,0.000,0.000,0.000,-0.011,0.683,0.008,0.730,0.0000000,0.0000000,2368.487,0.000,0.000,0.000,0,00:00:00,0,0.000,0.000,0.000,0.000,0.000,0.000,0.000,0.000,0.000,0.000,0.000,0.000,0.000,0.000
37.389,2,0,2.151,-0.269,2408.403,-2.797,1.062,446.616,-2.771,1.019,-37.335,0.000,0.000,0.0110002,0.000,7500.000,1.361,3.755,754.756,-0.767,2414.848,2414.868,-37.449,0.020,0.389,0.000,0.020,-0.012,0.000,0.000,0.000,-0.012,0.684,0.007,0.729,0.0000000,0.0000000,2413.774,0.000,0.000,0.000,0,00:00:00,0,0.000,0.000,0.000,0.000,0.000,0.000,0.000,0.000,0.000,0.000,0.000,0.000,0.000,0.000
37.490,2,0,1.677,-0.141,2454.279,-3.156,1.174,443.608,-2.670,1.034,-36.855,0.000,0.000,0.0111753,0.000,7500.000,1.352,3.638,750.479,-1.062,2460.124,2460.144,-36.965,-0.035,0.205,-0.022,-0.031,0.000,0.000,0.000,0.000,-0.013,0.683,0.008,0.730,0.0000000,0.0000000,2458.696,0.000,0.000,0.000,0,00:00:00,0,0.000,0.000,0.000,0.000,0.000,0.000,0.000,0.000,0.000,0.000,0.000,0.000,0.000,0.000
37.591,2,0,1.215,-0.015,2499.717,-3.503,1.284,440.546,-2.805,1.084,-36.370,0.000,0.000,0.0113385,0.000,7500.000,1.344,3.814,746.285,-1.352,2504.718,2504.738,-36.493,0.024,0.268,-0.000,-0.029,0.020,0.000,0.000,0.000,-0.012,0.682,0.009,0.731,0.0000000,0.0000000,2503.256,0.000,0.000,0.000,0,00:00:00,0,0.000,0.000,0.000,0.000,0.000,0.000,0.000,0.000,0.000,0.000,0.000,0.000,0.000,0.000
37.692,2,0,0.765,0.107,2544.671,-3.842,1.360,437.424,-2.952,0.810,-35.645,0.000,0.000,0.0114916,0.000,7500.000,1.335,3.979,742.179,-1.645,2548.582,2548.602,-35.773,-0.145,0.455,0.023,-0.003,-0.001,0.000,0.000,0.000,-0.011,0.682,0.008,0.731,0.0000000,0.0000000,2547.461,0.000,0.000,0.000,0,00:00:00,0,0.000,0.000,0.000,0.000,0.000,0.000,0.000,0.000,0.000,0.000,0.000,0.000,0.000,0.000
37.793,2,0,0.327,0.225,2589.251,-4.149,1.447,434.326,-2.866,0.984,-34.958,0.000,0.000,0.0116318,0.000,7500.000,1.327,3.998,738.060,-1.931,2592.779,2592.798,-35.086,0.020,0.473,-0.009,0.017,-0.016,0.000,0.000,0.000,-0.012,0.683,0.008,0.731,0.0000000,0.0000000,2591.316,0.000,0.000,0.000,0,00:00:00,0,0.000,0.000,0.000,0.000,0.000,0.000,0.000,0.000,0.000,0.000,0.000,0.000,0.000,0.000
37.894,2,0,-0.096,0.340,2633.370,-4.419,1.518,431.149,-2.719,0.883,-34.620,0.000,0.000,0.0117609,0.000,7500.000,1.318,3.903,734.052,-2.214,2635.980,2636.000,-34.736,-0.083,0.334,-0.004,-0.004,-0.015,0.000,0.000,0.000,-0.013,0.682,0.007,0.731,0.0000000,0.0000000,2634.826,0.000,0.000,0.000,0,00:00:00,0,0.000,0.000,0.000,0.000,0.000,0.000,0.000,0.000,0.000,0.000,0.000,0.000,0.000,0.000
37.995,2,0,-0.502,0.450,2677.111,-4.671,1.582,427.975,-2.760,0.861,-34.161,0.000,0.000,0.0118854,0.000,7500.000,1.309,3.926,730.046,-2.498,2679.357,2679.376,-34.280,-0.021,0.462,0.023,0.015,0.034,0.000,0.000,0.000,-0.011,0.683,0.008,0.730,0.0000000,0.0000000,2677.996,0.000,0.000,0.000,0,00:00:00,0,0.000,0.000,0.000,0.000,0.000,0.000,0.000,0.000,0.000,0.000,0.000,0.000,0.000,0.000
38.096,2,0,-0.894,0.556,2720.427,-4.905,1.652,424.748,-2.795,0.990,-33.901,0.000,0.000,0.0120044,0.000,7500.000,1.300,3.839,726.122,-2.777,2722.025,2722.045,-34.027,0.004,0.475,-0.028,-0.013,0.055,0.000,0.000,0.000,-0.010,0.682,0.011,0.731,0.0000000,0.0000000,2720.830,0.000,0.000,0.000,0,00:00:00,0,0.000,0.000,0.000,0.000,0.000,0.000,0.000,0.000,0.000,0.000,0.000,0.000,0.000,0.000
38.197,2,0,-1.267,0.657,2763.313,-5.086,1.698,421.503,-2.453,0.796,-33.292,0.000,0.000,0.0121215,0.000,7500.000,1.291,3.915,722.255,-3.056,2764.255,2764.275,-33.391,-0.160,0.174,0.002,0.000,-0.015,0.000,0.000,0.000,-0.010,0.682,0.010,0.731,0.0000000,0.0000000,2763.334,0.000,0.000,0.000,0,00:00:00,0,0.000,0.000,0.000,0.000,0.000,0.000,0.000,0.000,0.000,0.000,0.000,0.000,0.000,0.000
38.298,2,0,-1.622,0.753,2805.859,-5.273,1.760,418.306,-2.703,1.012,-32.690,0.000,0.000,0.0122312,0.000,7500.000,1.282,3.914,718.385,-3.333,2806.703,2806.723,-32.813,0.004,0.535,-0.019,0.021,0.026,0.000,0.000,0.000,-0.010,0.683,0.012,0.730,0.0000000,0.0000000,2805.512,0.000,0.000,0.000,0,00:00:00,0,0.000,0.000,0.000,0.000,0.000,0.000,0.000,0.000,0.000,0.000,0.000,0.000,0.000,0.000
38.399,2,0,-1.959,0.846,2848.076,-5.414,1.817,415.144,-2.428,1.015,-32.288,0.000,0.000,0.0123350,0.000,7500.000,1.273,3.794,714.557,-3.608,2848.872,2848.892,-32.393,-0.018,0.339,-0.014,0.017,-0.034,0.000,0.000,0.000,-0.012,0.684,0.011,0.729,0.0000000,0.0000000,2847.368,0.000,0.000,0.000,0,00:00:00,0,0.000,0.000,0.000,0.000,0.000,0.000,0.000,0.000,0.000,0.000,0.000,0.000,0.000,0.000
38.500,2,0,-2.277,0.936,2889.889,-5.562,1.874,411.964,-2.663,1.054,-31.830,0.000,0.000,0.0124354,0.000,7500.000,1.264,3.696,710.826,-3.877,2890.150,2890.170,-31.953,-0.027,0.620,-0.020,0.005,0.006,0.000,0.000,0.000,-0.012,0.684,0.012,0.729,0.0000000,0.0000000,2888.907,0.000,0.000,0.000,0,00:00:00,0,0.000,0.000,0.000,0.000,0.000,0.000,0.000,0.000,0.000,0.000,0.000,0.000,0.000,0.000
38.601,2,0,-2.577,1.023,2931.395,-5.662,1.949,408.828,-2.352,1.284,-31.472,0.000,0.000,0.0125326,0.000,7500.000,1.255,3.667,707.084,-4.147,2931.728,2931.748,-31.583,0.293,0.267,0.025,-0.021,0.004,0.000,0.000,0.000,-0.011,0.683,0.011,0.730,0.0000000,0.0000000,2930.133,0.000,0.000,0.000,0,00:00:00,0,0.000,0.000,0.000,0.000,0.000,0.000,0.000,0.000,0.000,0.000,0.000,0.000,0.000,0.000
38.702,2,0,-2.858,1.107,2972.508,-5.763,1.987,405.687,-2.500,0.950,-30.949,0.000,0.000,0.0126277,0.000,7500.000,1.246,3.786,703.443,-4.415,2972.362,2972.382,-31.062,-0.052,0.429,-0.010,-0.007,-0.008,0.000,0.000,0.000,-0.012,0.683,0.011,0.730,0.0000000,0.0000000,2971.049,0.000,0.000,0.000,0,00:00:00,0,0.000,0.000,0.000,0.000,0.000,0.000,0.000,0.000,0.000,0.000,0.000,0.000,0.000,0.000
38.803,2,0,-3.120,1.187,3013.255,-5.833,2.037,402.553,-2.333,1.127,-30.502,0.000,0.000,0.0127188,0.000,7500.000,1.237,3.824,699.834,-4.685,3012.799,3012.819,-30.610,0.021,0.324,-0.035,0.009,0.044,0.000,0.000,0.000,-0.012,0.683,0.014,0.730,0.0000000,0.0000000,3011.661,0.000,0.000,0.000,0,00:00:00,0,0.000,0.000,0.000,0.000,0.000,0.000,0.000,0.000,0.000,0.000,0.000,0.000,0.000,0.000
38.904,2,0,-3.365,1.265,3053.732,-5.902,2.095,399.468,-2.456,1.231,-30.342,0.000,0.000,0.0128069,0.000,7500.000,1.228,3.771,696.212,-4.948,3053.547,3053.567,-30.463,0.066,0.378,-0.022,-0.026,-0.007,0.000,0.000,0.000,-0.013,0.682,0.014,0.731,0.0000000,0.0000000,3051.972,0.000,0.000,0.000,0,00:00:00,0,0.000,0.000,0.000,0.000,0.000,0.000,0.000,0.000,0.000,0.000,0.000,0.000,0.000,0.000
39.005,2,0,-3.592,1.341,3088.267,-5.968,2.154,392.179,-2.536,1.295,-30.332,0.000,0.000,0.0128967,0.000,7500.000,1.219,3.920,696.212,-4.948,3053.547,3053.567,-30.463,0.066,0.378,-0.022,-0.026,-0.007,0.000,0.000,0.000,-0.014,0.681,0.015,0.732,0.0000000,0.0000000,3051.972,0.000,0.000,0.000,0,00:00:00,0,0.000,0.000,0.000,0.000,0.000,0.000,0.000,0.000,0.000,0.000,0.000,0.000,0.000,0.000
39.147,2,0,-4.034,1.500,3136.571,-6.089,2.256,382.634,-2.365,1.281,-29.946,0.000,0.000,0.0129993,0.000,7500.000,1.197,4.068,692.713,-5.212,3093.085,3093.105,-30.066,-0.079,0.202,-0.049,-0.011,-0.002,0.000,0.000,0.000,-0.015,0.681,0.017,0.732,0.0000000,0.0000000,3091.986,0.000,0.000,0.000,0,00:00:00,0,0.000,0.000,0.000,0.000,0.000,0.000,0.000,0.000,0.000,0.000,0.000,0.000,0.000,0.000
39.248,2,0,-4.197,1.561,3174.688,-6.101,2.293,379.411,-2.416,1.223,-29.085,0.000,0.000,0.0131146,0.000,7500.000,1.168,4.131,685.729,-5.727,3172.471,3172.491,-29.209,-0.127,0.324,-0.011,0.004,-0.020,0.000,0.000,0.000,-0.017,0.681,0.016,0.732,0.0000000,0.0000000,3171.136,0.000,0.000,0.000,0,00:00:00,0,0.000,0.000,0.000,0.000,0.000,0.000,0.000,0.000,0.000,0.000,0.000,0.000,0.000,0.000
39.349,2,0,-4.346,1.621,3212.668,-6.094,2.331,376.385,-2.301,1.254,-28.521,0.000,0.000,0.0132207,0.000,7500.000,1.160,4.107,682.316,-5.986,3211.514,3211.534,-28.640,0.012,0.255,0.028,0.002,0.004,0.000,0.000,0.000,-0.015,0.681,0.015,0.732,0.0000000,0.0000000,3210.280,0.000,0.000,0.000,0,00:00:00,0,0.000,0.000,0.000,0.000,0.000,0.000,0.000,0.000,0.000,0.000,0.000,0.000,0.000,0.000
39.450,2,0,-4.481,1.678,3250.540,-6.098,2.371,373.531,-2.486,1.317,-28.268,0.000,0.000,0.0133217,0.000,7500.000,1.151,4.098,678.919,-6.238,3250.527,3250.546,-28.403,0.083,0.492,0.002,0.011,0.022,0.000,0.000,0.000,-0.015,0.682,0.016,0.731,0.0000000,0.0000000,3249.141,0.000,0.000,0.000,0,00:00:00,0,0.000,0.000,0.000,0.000,0.000,0.000,0.000,0.000,0.000,0.000,0.000,0.000,0.000,0.000
39.551,2,0,-4.604,1.733,3288.310,-6.073,2.387,370.848,-2.254,1.094,-27.943,0.000,0.000,0.0134225,0.000,7500.000,1.143,4.034,675.548,-6.493,3289.389,3289.409,-28.053,-0.052,0.313,0.024,0.011,-0.021,0.000,0.000,0.000,-0.014,0.682,0.015,0.731,0.0000000,0.0000000,3287.723,0.000,0.000,0.000,0,00:00:00,0,0.000,0.000,0.000,0.000,0.000,0.000,0.000,0.000,0.000,0.000,0.000,0.000,0.000,0.000
39.652,2,0,-4.715,1.786,3325.891,-6.059,2.409,368.242,-2.410,1.190,-27.780,0.000,0.000,0.0103675,0.000,7500.000,1.135,3.971,672.260,-6.744,3327.451,3327.471,-27.907,0.035,0.392,-0.010,-0.029,-0.049,0.000,0.000,0.000,-0.016,0.681,0.013,0.732,0.0000000,0.0000000,3326.029,0.000,0.000,0.000,0,00:00:00,0,0.000,0.000,0.000,0.000,0.000,0.000,0.000,0.000,0.000,0.000,0.000,0.000,0.000,0.000
39.753,2,0,-4.815,1.835,3357.841,-6.048,2.431,361.613,-2.497,1.205,-27.772,0.000,0.000,0.0105383,0.000,7500.000,1.128,4.138,672.260,-6.744,3327.451,3327.471,-27.907,0.035,0.392,-0.010,-0.029,-0.049,0.000,0.000,0.000,-0.018,0.680,0.012,0.733,0.0000000,0.0000000,3326.029,0.000,0.000,0.000,0,00:00:00,0,0.000,0.000,0.000,0.000,0.000,0.000,0.000,0.000,0.000,0.000,0.000,0.000,0.000,0.000
39.854,2,0,-4.905,1.882,3395.476,-6.036,2.442,359.812,-2.525,1.124,-27.118,0.000,0.000,0.0107176,0.000,7500.000,1.107,4.305,665.779,-7.240,3402.931,3402.951,-27.255,-0.030,0.472,-0.003,0.000,0.015,0.000,0.000,0.000,-0.018,0.680,0.012,0.733,0.0000000,0.0000000,3401.825,0.000,0.000,0.000,0,00:00:00,0,0.000,0.000,0.000,0.000,0.000,0.000,0.000,0.000,0.000,0.000,0.000,0.000,0.000,0.000
39.955,2,0,-4.987,1.924,3432.975,-6.020,2.425,358.086,-2.529,0.867,-26.693,0.000,0.000,0.0108852,0.000,7500.000,1.103,4.304,662.553,-7.486,3440.714,3440.734,-26.821,-0.187,0.508,0.031,-0.000,0.003,0.000,0.000,0.000,-0.017,0.680,0.011,0.733,0.0000000,0.0000000,3439.321,0.000,0.000,0.000,0,00:00:00,0,0.000,0.000,0.000,0.000,0.000,0.000,0.000,0.000,0.000,0.000,0.000,0.000,0.000,0.000
40.056,2,0,-5.059,1.961,3470.356,-5.987,2.415,356.414,-2.392,0.960,-26.558,0.000,0.000,0.0110447,0.000,7500.000,1.098,4.308,659.344,-7.730,3478.449,3478.469,-26.680,-0.055,0.408,0.011,0.011,-0.023,0.000,0.000,0.000,-0.017,0.680,0.010,0.733,0.0000000,0.0000000,3476.554,0.000,0.000,0.000,0,00:00:00,0,0.000,0.000,0.000,0.000,0.000,0.000,0.000,0.000,0.000,0.000,0.000,0.000,0.000,0.000
40.157,2,0,-5.122,1.995,3507.488,-5.956,2.411,354.735,-2.444,1.032,-26.032,0.000,0.000,0.0112006,0.000,7500.000,1.093,4.247,656.239,-7.972,3515.108,3515.128,-26.162,0.001,0.508,-0.015,0.004,-0.011,0.000,0.000,0.000,-0.018,0.680,0.010,0.733,0.0000000,0.0000000,3513.526,0.000,0.000,0.000,0,00:00:00,0,0.000,0.000,0.000,0.000,0.000,0.000,0.000,0.000,0.000,0.000,0.000,0.000,0.000,0.000
40.258,2,0,-5.175,2.025,3544.401,-5.888,2.401,353.046,-2.093,0.977,-25.741,0.000,0.000,0.0113477,0.000,7500.000,1.089,4.221,653.149,-8.214,3551.729,3551.749,-25.844,0.009,0.194,0.022,0.005,0.014,0.000,0.000,0.000,-0.017,0.681,0.010,0.732,0.0000000,0.0000000,3550.240,0.000,0.000,0.000,0,00:00:00,0,0.000,0.000,0.000,0.000,0.000,0.000,0.000,0.000,0.000,0.000,0.000,0.000,0.000,0.000
40.359,2,0,-5.218,2.050,3581.102,-5.825,2.380,351.342,-2.171,0.897,-25.565,0.000,0.000,0.0114894,0.000,7500.000,1.084,4.195,650.084,-8.451,3588.187,3588.206,-25.671,-0.089,0.326,-0.010,0.015,0.006,0.000,0.000,0.000,-0.017,0.681,0.011,0.732,0.0000000,0.0000000,3586.700,0.000,0.000,0.000,0,00:00:00,0,0.000,0.000,0.000,0.000,0.000,0.000,0.000,0.000,0.000,0.000,0.000,0.000,0.000,0.000
40.460,2,0,-5.252,2.073,3617.582,-5.756,2.373,349.641,-2.125,1.029,-25.166,0.000,0.000,0.0116279,0.000,7500.000,1.079,4.106,647.055,-8.690,3624.369,3624.388,-25.275,0.075,0.311,0.009,0.001,0.028,0.000,0.000,0.000,-0.016,0.681,0.011,0.732,0.0000000,0.0000000,3622.907,0.000,0.000,0.000,0,00:00:00,0,0.000,0.000,0.000,0.000,0.000,0.000,0.000,0.000,0.000,0.000,0.000,0.000,0.000,0.000
40.561,2,0,-5.276,2.092,3648.754,-5.686,2.362,344.096,-2.121,1.013,-25.167,0.000,0.000,0.0117605,0.000,7500.000,1.075,4.103,647.055,-8.690,3624.369,3624.388,-25.275,0.075,0.311,0.009,0.001,0.028,0.000,0.000,0.000,-0.014,0.681,0.012,0.732,0.0000000,0.0000000,3622.907,0.000,0.000,0.000,0,00:00:00,0,0.000,0.000,0.000,0.000,0.000,0.000,0.000,0.000,0.000,0.000,0.000,0.000,0.000,0.000
40.662,2,0,-5.293,2.109,3685.171,-5.619,2.333,342.922,-2.154,0.834,-24.879,0.000,0.000,0.0119005,0.000,7500.000,1.058,4.101,641.087,-9.158,3696.029,3696.049,-24.983,0.004,0.389,0.039,0.010,-0.002,0.000,0.000,0.000,-0.013,0.682,0.011,0.732,0.0000000,0.0000000,3694.575,0.000,0.000,0.000,0,00:00:00,0,0.000,0.000,0.000,0.000,0.000,0.000,0.000,0.000,0.000,0.000,0.000,0.000,0.000,0.000
40.763,2,0,-5.301,2.121,3721.365,-5.535,2.315,341.697,-1.991,0.948,-24.598,0.000,0.000,0.0120350,0.000,7500.000,1.055,4.047,638.142,-9.392,3731.599,3731.619,-24.696,0.088,0.192,-0.014,-0.023,0.025,0.000,0.000,0.000,-0.013,0.681,0.012,0.732,0.0000000,0.0000000,3730.042,0.000,0.000,0.000,0,00:00:00,0,0.000,0.000,0.000,0.000,0.000,0.000,0.000,0.000,0.000,0.000,0.000,0.000,0.000,0.000
40.864,2,0,-5.303,2.131,3757.318,-5.476,2.281,340.433,-2.233,0.800,-24.092,0.000,0.000,0.0121644,0.000,7500.000,1.052,4.178,635.236,-9.622,3766.829,3766.848,-24.203,-0.050,0.514,-0.003,0.018,0.002,0.000,0.000,0.000,-0.013,0.681,0.012,0.732,0.0000000,0.0000000,3765.267,0.000,0.000,0.000,0,00:00:00,0,0.000,0.000,0.000,0.000,0.000,0.000,0.000,0.000,0.000,0.000,0.000,0.000,0.000,0.000
40.965,2,0,-5.299,2.136,3793.012,-5.409,2.252,339.085,-2.148,0.851,-23.952,0.000,0.000,0.0122862,0.000,7500.000,1.048,4.075,632.367,-9.849,3801.729,3801.748,-24.059,0.004,0.461,-0.002,0.010,-0.012,0.000,0.000,0.000,-0.013,0.682,0.012,0.731,0.0000000,0.0000000,3800.252,0.000,0.000,0.000,0,00:00:00,0,0.000,0.000,0.000,0.000,0.000,0.000,0.000,0.000,0.000,0.000,0.000,0.000,0.000,0.000
41.066,2,0,-5.289,2.139,3828.521,-5.336,2.220,337.734,-2.085,0.812,-23.600,0.000,0.000,0.0124056,0.000,7500.000,1.044,4.020,629.484,-10.076,3836.935,3836.954,-23.703,-0.053,0.365,-0.011,-0.025,0.017,0.000,0.000,0.000,-0.013,0.681,0.013,0.732,0.0000000,0.0000000,3835.000,0.000,0.000,0.000,0,00:00:00,0,0.000,0.000,0.000,0.000,0.000,0.000,0.000,0.000,0.000,0.000,0.000,0.000,0.000,0.000
41.167,2,0,-5.273,2.139,3863.720,-5.254,2.200,336.271,-1.987,0.944,-23.423,0.000,0.000,0.0125199,0.000,7500.000,1.041,4.162,626.698,-10.303,3871.073,3871.093,-23.525,0.070,0.242,-0.005,-0.017,0.021,0.000,0.000,0.000,-0.013,0.680,0.014,0.733,0.0000000,0.0000000,3869.514,0.000,0.000,0.000,0,00:00:00,0,0.000,0.000,0.000,0.000,0.000,0.000,0.000,0.000,0.000,0.000,0.000,0.000,0.000,0.000
41.268,2,0,-5.252,2.137,3898.698,-5.179,2.180,334.764,-2.045,0.929,-23.301,0.000,0.000,0.0126318,0.000,7500.000,1.037,4.260,623.891,-10.529,3905.606,3905.626,-23.406,0.015,0.345,-0.017,0.015,0.021,0.000,0.000,0.000,-0.012,0.681,0.015,0.732,0.0000000,0.0000000,3903.796,0.000,0.000,0.000,0,00:00:00,0,0.000,0.000,0.000,0.000,0.000,0.000,0.000,0.000,0.000,0.000,0.000,0.000,0.000,0.000
41.369,2,0,-5.226,2.134,3933.411,-5.088,2.156,333.205,-1.864,0.891,-22.969,0.000,0.000,0.0127424,0.000,7500.000,1.032,4.177,621.135,-10.752,3939.619,3939.638,-23.060,-0.033,0.293,-0.011,0.046,-0.013,0.000,0.000,0.000,-0.013,0.682,0.015,0.731,0.0000000,0.0000000,3937.848,0.000,0.000,0.000,0,00:00:00,0,0.000,0.000,0.000,0.000,0.000,0.000,0.000,0.000,0.000,0.000,0.000,0.000,0.000,0.000
41.470,2,0,-5.195,2.129,3967.875,-5.010,2.140,331.565,-1.982,0.977,-23.107,0.000,0.000,0.0128488,0.000,7500.000,1.028,3.912,618.398,-10.973,3973.531,3973.550,-23.210,0.064,0.319,0.005,-0.034,-0.031,0.000,0.000,0.000,-0.014,0.681,0.014,0.732,0.0000000,0.0000000,3971.672,0.000,0.000,0.000,0,00:00:00,0,0.000,0.000,0.000,0.000,0.000,0.000,0.000,0.000,0.000,0.000,0.000,0.000,0.000,0.000
41.571,2,0,-5.160,2.123,4002.061,-4.931,2.125,329.883,-1.941,0.971,-22.669,0.000,0.000,0.0129580,0.000,7500.000,1.023,4.108,615.705,-11.192,4007.021,4007.041,-22.771,0.082,0.310,0.003,0.000,0.001,0.000,0.000,0.000,-0.014,0.681,0.014,0.732,0.0000000,0.0000000,4005.271,0.000,0.000,0.000,0,00:00:00,0,0.000,0.000,0.000,0.000,0.000,0.000,0.000,0.000,0.000,0.000,0.000,0.000,0.000,0.000
41.672,2,0,-5.121,2.116,4036.012,-4.856,2.102,328.177,-1.964,0.894,-22.412,0.000,0.000,0.0130621,0.000,7500.000,1.019,4.108,613.016,-11.412,4040.564,4040.584,-22.514,0.027,0.291,0.008,-0.028,0.026,0.000,0.000,0.000,-0.013,0.680,0.014,0.733,0.0000000,0.0000000,4038.646,0.000,0.000,0.000,0,00:00:00,0,0.000,0.000,0.000,0.000,0.000,0.000,0.000,0.000,0.000,0.000,0.000,0.000,0.000,0.000
41.773,2,0,-5.079,2.108,4069.630,-4.774,2.067,326.381,-1.877,0.764,-22.106,0.000,0.000,0.0131637,0.000,7500.000,1.014,4.267,610.410,-11.629,4073.191,4073.211,-22.198,-0.089,0.192,-0.001,-0.015,-0.027,0.000,0.000,0.000,-0.014,0.680,0.013,0.733,0.0000000,0.0000000,4071.800,0.000,0.000,0.000,0,00:00:00,0,0.000,0.000,0.000,0.000,0.000,0.000,0.000,0.000,0.000,0.000,0.000,0.000,0.000,0.000
41.874,2,0,-5.035,2.098,4103.035,-4.722,2.056,324.575,-2.143,0.999,-21.976,0.000,0.000,0.0132623,0.000,7500.000,1.009,4.352,607.767,-11.844,4106.406,4106.426,-22.098,0.120,0.407,-0.012,-0.028,0.019,0.000,0.000,0.000,-0.014,0.679,0.014,0.734,0.0000000,0.0000000,4104.735,0.000,0.000,0.000,0,00:00:00,0,0.000,0.000,0.000,0.000,0.000,0.000,0.000,0.000,0.000,0.000,0.000,0.000,0.000,0.000
41.975,2,0,-4.991,2.087,4136.172,-4.675,2.020,322.718,-2.171,0.749,-21.837,0.000,0.000,0.0133610,0.000,7500.000,1.004,4.512,605.181,-12.059,4139.009,4139.029,-21.953,-0.143,0.408,-0.010,-0.017,-0.013,0.000,0.000,0.000,-0.014,0.678,0.014,0.735,0.0000000,0.0000000,4137.452,0.000,0.000,0.000,0,00:00:00,0,0.000,0.000,0.000,0.000,0.000,0.000,0.000,0.000,0.000,0.000,0.000,0.000,0.000,0.000
42.076,2,0,-4.946,2.074,4169.061,-4.620,2.001,320.857,-2.058,0.905,-21.409,0.000,0.000,0.0134592,0.000,7500.000,0.998,4.609,602.612,-12.273,4171.511,4171.530,-21.525,0.116,0.294,0.039,-0.016,-0.011,0.000,0.000,0.000,-0.013,0.677,0.013,0.735,0.0000000,0.0000000,4169.955,0.000,0.000,0.000,0,00:00:00,0,0.000,0.000,0.000,0.000,0.000,0.000,0.000,0.000,0.000,0.000,0.000,0.000,0.000,0.000
42.177,2,0,-4.901,2.060,4201.747,-4.573,1.949,318.991,-2.123,0.569,-21.347,0.000,0.000,0.0103675,0.000,7500.000,0.993,4.701,600.044,-12.482,4204.106,4204.126,-21.456,-0.189,0.347,0.013,-0.008,-0.012,0.000,0.000,0.000,-0.013,0.677,0.012,0.736,0.0000000,0.0000000,4202.244,0.000,0.000,0.000,0,00:00:00,0,0.000,0.000,0.000,0.000,0.000,0.000,0.000,0.000,0.000,0.000,0.000,0.000,0.000,0.000
42.278,2,0,-4.856,2.043,4234.215,-4.530,1.916,317.122,-2.132,0.754,-21.147,0.000,0.000,0.0105084,0.000,7500.000,0.988,4.747,597.510,-12.695,4236.389,4236.408,-21.264,-0.055,0.387,-0.029,0.007,-0.010,0.000,0.000,0.000,-0.015,0.677,0.012,0.735,0.0000000,0.0000000,4234.321,0.000,0.000,0.000,0,00:00:00,0,0.000,0.000,0.000,0.000,0.000,0.000,0.000,0.000,0.000,0.000,0.000,0.000,0.000,0.000
42.379,2,0,-4.812,2.025,4266.422,-4.490,1.889,315.228,-2.144,0.795,-20.858,0.000,0.000,0.0106470,0.000,7500.000,0.982,4.705,595.026,-12.901,4268.149,4268.169,-20.979,0.035,0.429,0.016,0.005,-0.026,0.000,0.000,0.000,-0.015,0.677,0.011,0.735,0.0000000,0.0000000,4266.189,0.000,0.000,0.000,0,00:00:00,0,0.000,0.000,0.000,0.000,0.000,0.000,0.000,0.000,0.000,0.000,0.000,0.000,0.000,0.000
42.480,2,0,-4.768,2.005,4298.427,-4.444,1.852,313.336,-2.059,0.692,-20.756,0.000,0.000,0.0107823,0.000,7500.000,0.977,4.679,592.536,-13.111,4300.080,4300.100,-20.866,-0.078,0.363,-0.008,0.005,-0.016,0.000,0.000,0.000,-0.016,0.678,0.011,0.735,0.0000000,0.0000000,4297.849,0.000,0.000,0.000,0,00:00:00,0,0.000,0.000,0.000,0.000,0.000,0.000,0.000,0.000,0.000,0.000,0.000,0.000,0.000,0.000
42.581,2,0,-4.724,1.986,4330.132,-4.384,1.836,311.387,-1.895,0.883,-20.496,0.000,0.000,0.0109166,0.000,7500.000,0.971,4.652,590.125,-13.315,4331.107,4331.126,-20.601,0.120,0.255,0.000,0.017,0.010,0.000,0.000,0.000,-0.016,0.678,0.011,0.735,0.0000000,0.0000000,4329.303,0.000,0.000,0.000,0,00:00:00,0,0.000,0.000,0.000,0.000,0.000,0.000,0.000,0.000,0.000,0.000,0.000,0.000,0.000,0.000
42.682,2,0,-4.678,1.966,4361.605,-4.321,1.810,309.403,-1.835,0.783,-20.589,0.000,0.000,0.0110481,0.000,7500.000,0.966,4.552,587.704,-13.516,4362.372,4362.392,-20.684,-0.102,0.245,-0.054,0.026,0.039,0.000,0.000,0.000,-0.016,0.679,0.014,0.734,0.0000000,0.0000000,4360.553,0.000,0.000,0.000,0,00:00:00,0,0.000,0.000,0.000,0.000,0.000,0.000,0.000,0.000,0.000,0.000,0.000,0.000,0.000,0.000
42.783,2,0,-4.631,1.946,4392.856,-4.263,1.798,307.427,-1.869,0.911,-20.344,0.000,0.000,0.0111817,0.000,7500.000,0.960,4.403,585.302,-13.722,4393.482,4393.502,-20.448,0.056,0.267,0.010,-0.015,0.002,0.000,0.000,0.000,-0.016,0.679,0.014,0.734,0.0000000,0.0000000,4391.601,0.000,0.000,0.000,0,00:00:00,0,0.000,0.000,0.000,0.000,0.000,0.000,0.000,0.000,0.000,0.000,0.000,0.000,0.000,0.000
42.884,2,0,-4.584,1.927,4423.912,-4.216,1.776,305.481,-1.947,0.792,-20.070,0.000,0.000,0.0113131,0.000,7500.000,0.954,4.489,582.911,-13.926,4424.558,4424.578,-20.176,-0.018,0.349,0.015,-0.008,-0.018,0.000,0.000,0.000,-0.016,0.678,0.013,0.734,0.0000000,0.0000000,4422.447,0.000,0.000,0.000,0,00:00:00,0,0.000,0.000,0.000,0.000,0.000,0.000,0.000,0.000,0.000,0.000,0.000,0.000,0.000,0.000
42.985,2,0,-4.537,1.907,4454.705,-4.166,1.746,303.499,-1.899,0.708,-19.930,0.000,0.000,0.0114417,0.000,7500.000,0.948,4.536,580.582,-14.125,4454.938,4454.957,-20.031,-0.116,0.259,-0.009,-0.027,0.006,0.000,0.000,0.000,-0.016,0.677,0.013,0.735,0.0000000,0.0000000,4453.095,0.000,0.000,0.000,0,00:00:00,0,0.000,0.000,0.000,0.000,0.000,0.000,0.000,0.000,0.000,0.000,0.000,0.000,0.000,0.000
43.086,2,0,-4.489,1.887,4485.277,-4.114,1.727,301.520,-1.847,0.801,-19.732,0.000,0.000,0.0115695,0.000,7500.000,0.943,4.690,578.256,-14.327,4485.372,4485.392,-19.832,0.001,0.261,0.008,0.019,-0.001,0.000,0.000,0.000,-0.016,0.678,0.013,0.735,0.0000000,0.0000000,4483.545,0.000,0.000,0.000,0,00:00:00,0,0.000,0.000,0.000,0.000,0.000,0.000,0.000,0.000,0.000,0.000,0.000,0.000,0.000,0.000
43.187,2,0,-4.442,1.866,4515.615,-4.080,1.699,299.536,-1.999,0.706,-19.522,0.000,0.000,0.0116957,0.000,7500.000,0.937,4.580,575.960,-14.522,4515.501,4515.521,-19.633,-0.088,0.388,-0.002,-0.021,-0.005,0.000,0.000,0.000,-0.016,0.677,0.013,0.735,0.0000000,0.0000000,4513.799,0.000,0.000,0.000,0,00:00:00,0,0.000,0.000,0.000,0.000,0.000,0.000,0.000,0.000,0.000,0.000,0.000,0.000,0.000,0.000
43.288,2,0,-4.397,1.845,4545.793,-4.050,1.683,297.597,-2.015,0.813,-19.377,0.000,0.000,0.0118205,0.000,7500.000,0.931,4.700,573.650,-14.720,4545.914,4545.934,-19.495,0.014,0.362,-0.005,-0.028,0.005,0.000,0.000,0.000,-0.016,0.676,0.013,0.736,0.0000000,0.0000000,4543.859,0.000,0.000,0.000,0,00:00:00,0,0.000,0.000,0.000,0.000,0.000,0.000,0.000,0.000,0.000,0.000,0.000,0.000,0.000,0.000
43.389,2,0,-4.353,1.824,4575.755,-4.008,1.642,295.649,-1.881,0.561,-19.313,0.000,0.000,0.0119447,0.000,7500.000,0.925,4.860,571.391,-14.916,4575.756,4575.776,-19.409,-0.212,0.247,0.011,0.007,-0.012,0.000,0.000,0.000,-0.016,0.677,0.012,0.736,0.0000000,0.0000000,4573.726,0.000,0.000,0.000,0,00:00:00,0,0.000,0.000,0.000,0.000,0.000,0.000,0.000,0.000,0.000,0.000,0.000,0.000,0.000,0.000
43.490,2,0,-4.309,1.802,4605.514,-3.973,1.620,293.709,-1.923,0.729,-19.171,0.000,0.000,0.0120690,0.000,7500.000,0.920,4.822,569.149,-15.112,4605.471,4605.491,-19.279,-0.033,0.287,0.003,-0.006,-0.001,0.000,0.000,0.000,-0.016,0.676,0.012,0.736,0.0000000,0.0000000,4603.401,0.000,0.000,0.000,0,00:00:00,0,0.000,0.000,0.000,0.000,0.000,0.000,0.000,0.000,0.000,0.000,0.000,0.000,0.000,0.000
43.591,2,0,-4.266,1.780,4635.052,-3.934,1.596,291.788,-1.853,0.692,-18.800,0.000,0.000,0.0121929,0.000,7500.000,0.914,4.859,566.940,-15.305,4634.845,4634.865,-18.902,-0.061,0.284,-0.003,0.018,0.003,0.000,0.000,0.000,-0.016,0.677,0.013,0.736,0.0000000,0.0000000,4632.887,0.000,0.000,0.000,0,00:00:00,0,0.000,0.000,0.000,0.000,0.000,0.000,0.000,0.000,0.000,0.000,0.000,0.000,0.000,0.000
43.692,2,0,-4.224,1.758,4664.392,-3.908,1.581,289.867,-1.964,0.782,-18.755,0.000,0.000,0.0123128,0.000,7500.000,0.908,4.755,564.742,-15.495,4664.158,4664.178,-18.869,0.068,0.444,0.018,0.025,-0.015,0.000,0.000,0.000,-0.016,0.678,0.011,0.735,0.0000000,0.0000000,4662.185,0.000,0.000,0.000,0,00:00:00,0,0.000,0.000,0.000,0.000,0.000,0.000,0.000,0.000,0.000,0.000,0.000,0.000,0.000,0.000
43.793,2,0,-4.184,1.737,4693.528,-3.877,1.553,287.955,-1.893,0.635,-18.603,0.000,0.000,0.0124338,0.000,7500.000,0.903,4.612,562.569,-15.686,4693.230,4693.250,-18.707,-0.060,0.330,0.007,-0.030,0.006,0.000,0.000,0.000,-0.015,0.677,0.011,0.736,0.0000000,0.0000000,4691.295,0.000,0.000,0.000,0,00:00:00,0,0.000,0.000,0.000,0.000,0.000,0.000,0.000,0.000,0.000,0.000,0.000,0.000,0.000,0.000
43.894,2,0,-4.145,1.716,4722.471,-3.856,1.557,286.045,-1.982,0.937,-18.572,0.000,0.000,0.0125540,0.000,7500.000,0.897,4.785,560.412,-15.874,4722.172,4722.192,-18.695,0.191,0.441,-0.027,0.011,0.009,0.000,0.000,0.000,-0.016,0.677,0.013,0.736,0.0000000,0.0000000,4720.220,0.000,0.000,0.000,0,00:00:00,0,0.000,0.000,0.000,0.000,0.000,0.000,0.000,0.000,0.000,0.000,0.000,0.000,0.000,0.000
43.995,2,0,-4.107,1.697,4751.300,-3.826,1.557,284.214,-1.857,0.902,-18.357,0.000,0.000,0.0126756,0.000,7500.000,0.891,4.720,558.236,-16.066,4751.473,4751.492,-18.470,0.117,0.324,-0.024,-0.006,0.015,0.000,0.000,0.000,-0.016,0.677,0.014,0.736,0.0000000,0.0000000,4748.960,0.000,0.000,0.000,0,00:00:00,0,0.000,0.000,0.000,0.000,0.000,0.000,0.000,0.000,0.000,0.000,0.000,0.000,0.000,0.000
44.096,2,0,-4.070,1.680,4779.855,-3.781,1.560,282.315,-1.693,0.911,-18.377,0.000,0.000,0.0127955,0.000,7500.000,0.886,4.756,556.161,-16.249,4779.485,4779.505,-18.477,0.140,0.129,0.008,-0.016,-0.001,0.000,0.000,0.000,-0.016,0.676,0.014,0.736,0.0000000,0.0000000,4777.518,0.000,0.000,0.000,0,00:00:00,0,0.000,0.000,0.000,0.000,0.000,0.000,0.000,0.000,0.000,0.000,0.000,0.000,0.000,0.000
44.197,2,0,-4.032,1.666,4804.243,-3.740,1.562,277.447,-1.723,0.896,-18.375,0.000,0.000,0.0129170,0.000,7500.000,0.880,4.848,556.161,-16.249,4779.485,4779.505,-18.477,0.140,0.129,0.008,-0.016,-0.001,0.000,0.000,0.000,-0.016,0.676,0.013,0.737,0.0000000,0.0000000,4777.518,0.000,0.000,0.000,0,00:00:00,0,0.000,0.000,0.000,0.000,0.000,0.000,0.000,0.000,0.000,0.000,0.000,0.000,0.000,0.000
44.298,2,0,-3.995,1.653,4832.759,-3.726,1.572,276.057,-1.958,0.970,-18.099,0.000,0.000,0.0130458,0.000,7500.000,0.865,4.940,551.970,-16.622,4836.338,4836.358,-18.226,0.202,0.357,-0.012,-0.017,0.014,0.000,0.000,0.000,-0.016,0.675,0.014,0.737,0.0000000,0.0000000,4834.091,0.000,0.000,0.000,0,00:00:00,0,0.000,0.000,0.000,0.000,0.000,0.000,0.000,0.000,0.000,0.000,0.000,0.000,0.000,0.000
44.399,2,0,-3.960,1.641,4861.056,-3.719,1.554,274.647,-2.016,0.678,-17.695,0.000,0.000,0.0131717,0.000,7500.000,0.861,5.039,549.930,-16.805,4864.135,4864.155,-17.817,-0.030,0.425,0.022,-0.014,-0.021,0.000,0.000,0.000,-0.016,0.675,0.013,0.738,0.0000000,0.0000000,4862.108,0.000,0.000,0.000,0,00:00:00,0,0.000,0.000,0.000,0.000,0.000,0.000,0.000,0.000,0.000,0.000,0.000,0.000,0.000,0.000
44.500,2,0,-3.930,1.628,4889.211,-3.733,1.532,273.246,-2.202,0.641,-17.622,0.000,0.000,0.0132923,0.000,7500.000,0.857,5.118,547.870,-16.987,4892.297,4892.317,-17.762,-0.091,0.534,-0.013,-0.047,0.013,0.000,0.000,0.000,-0.016,0.673,0.014,0.739,0.0000000,0.0000000,4889.948,0.000,0.000,0.000,0,00:00:00,0,0.000,0.000,0.000,0.000,0.000,0.000,0.000,0.000,0.000,0.000,0.000,0.000,0.000,0.000
44.601,2,0,-3.902,1.614,4917.178,-3.735,1.510,271.817,-2.077,0.633,-17.533,0.000,0.000,0.0134130,0.000,7500.000,0.853,5.387,545.852,-17.168,4919.971,4919.991,-17.662,-0.080,0.412,0.005,-0.003,-0.031,0.000,0.000,0.000,-0.016,0.673,0.012,0.740,0.0000000,0.0000000,4917.611,0.000,0.000,0.000,0,00:00:00,0,0.000,0.000,0.000,0.000,0.000,0.000,0.000,0.000,0.000,0.000,0.000,0.000,0.000,0.000
44.702,2,0,-3.878,1.601,4944.920,-3.731,1.521,270.334,-1.995,0.953,-17.480,0.000,0.000,0.0103675,0.000,7500.000,0.849,5.404,543.870,-17.347,4947.218,4947.238,-17.615,0.261,0.285,0.008,-0.025,-0.032,0.000,0.000,0.000,-0.017,0.672,0.011,0.740,0.0000000,0.0000000,4945.099,0.000,0.000,0.000,0,00:00:00,0,0.000,0.000,0.000,0.000,0.000,0.000,0.000,0.000,0.000,0.000,0.000,0.000,0.000,0.000
44.803,2,0,-3.855,1.589,4972.487,-3.735,1.503,268.834,-2.066,0.652,-17.461,0.000,0.000,0.0105217,0.000,7500.000,0.845,5.549,541.883,-17.526,4974.629,4974.649,-17.592,-0.005,0.334,0.023,-0.016,0.035,0.000,0.000,0.000,-0.015,0.671,0.012,0.741,0.0000000,0.0000000,4972.413,0.000,0.000,0.000,0,00:00:00,0,0.000,0.000,0.000,0.000,0.000,0.000,0.000,0.000,0.000,0.000,0.000,0.000,0.000,0.000
44.904,2,0,-3.835,1.577,4999.801,-3.736,1.497,267.297,-2.034,0.768,-17.055,0.000,0.000,0.0106760,0.000,7500.000,0.840,5.644,539.954,-17.705,5001.309,5001.328,-17.189,0.120,0.358,-0.001,0.009,0.019,0.000,0.000,0.000,-0.015,0.672,0.012,0.741,0.0000000,0.0000000,4999.554,0.000,0.000,0.000,0,00:00:00,0,0.000,0.000,0.000,0.000,0.000,0.000,0.000,0.000,0.000,0.000,0.000,0.000,0.000,0.000
45.005,2,0,-3.817,1.565,5027.032,-3.723,1.473,265.800,-1.877,0.586,-17.198,0.000,0.000,0.0108249,0.000,7500.000,0.836,5.591,537.959,-17.881,5028.982,5029.002,-17.308,-0.077,0.204,-0.005,0.008,0.009,0.000,0.000,0.000,-0.014,0.672,0.013,0.740,0.0000000,0.0000000,5026.524,0.000,0.000,0.000,0,00:00:00,0,0.000,0.000,0.000,0.000,0.000,0.000,0.000,0.000,0.000,0.000,0.000,0.000,0.000,0.000
45.106,2,0,-3.799,1.552,5054.032,-3.717,1.446,264.263,-1.942,0.548,-17.006,0.000,0.000,0.0109761,0.000,7500.000,0.831,5.544,536.053,-18.059,5055.494,5055.514,-17.123,-0.094,0.268,0.007,-0.011,-0.010,0.000,0.000,0.000,-0.015,0.672,0.012,0.741,0.0000000,0.0000000,5053.323,0.000,0.000,0.000,0,00:00:00,0,0.000,0.000,0.000,0.000,0.000,0.000,0.000,0.000,0.000,0.000,0.000,0.000,0.000,0.000
45.207,2,0,-3.782,1.538,5080.844,-3.718,1.429,262.701,-1.996,0.645,-17.005,0.000,0.000,0.0111252,0.000,7500.000,0.827,5.608,534.147,-18.231,5082.098,5082.117,-17.130,0.016,0.330,0.009,0.005,0.012,0.000,0.000,0.000,-0.014,0.672,0.012,0.741,0.0000000,0.0000000,5079.953,0.000,0.000,0.000,0,00:00:00,0,0.000,0.000,0.000,0.000,0.000,0.000,0.000,0.000,0.000,0.000,0.000,0.000,0.000,0.000
45.308,2,0,-3.768,1.524,5107.510,-3.732,1.420,261.193,-2.123,0.713,-16.539,0.000,0.000,0.0112753,0.000,7500.000,0.822,5.581,532.237,-18.404,5108.829,5108.849,-16.685,0.081,0.423,-0.007,-0.049,0.036,0.000,0.000,0.000,-0.013,0.670,0.014,0.742,0.0000000,0.0000000,5106.414,0.000,0.000,0.000,0,00:00:00,0,0.000,0.000,0.000,0.000,0.000,0.000,0.000,0.000,0.000,0.000,0.000,0.000,0.000,0.000
45.409,2,0,-3.757,1.510,5133.951,-3.744,1.405,259.614,-2.089,0.645,-16.709,0.000,0.000,0.0114194,0.000,7500.000,0.818,5.863,530.384,-18.577,5134.825,5134.845,-16.848,-0.026,0.370,-0.018,-0.001,0.016,0.000,0.000,0.000,-0.013,0.670,0.015,0.742,0.0000000,0.0000000,5132.708,0.000,0.000,0.000,0,00:00:00,0,0.000,0.000,0.000,0.000,0.000,0.000,0.000,0.000,0.000,0.000,0.000,0.000,0.000,0.000
45.510,2,0,-3.747,1.496,5160.220,-3.753,1.385,258.067,-2.064,0.594,-16.290,0.000,0.000,0.0115669,0.000,7500.000,0.813,5.869,528.524,-18.749,5161.004,5161.024,-16.426,-0.050,0.390,0.006,0.001,-0.001,0.000,0.000,0.000,-0.013,0.670,0.015,0.742,0.0000000,0.0000000,5158.836,0.000,0.000,0.000,0,00:00:00,0,0.000,0.000,0.000,0.000,0.000,0.000,0.000,0.000,0.000,0.000,0.000,0.000,0.000,0.000
45.611,2,0,-3.739,1.482,5186.329,-3.747,1.382,256.514,-1.904,0.746,-16.312,0.000,0.000,0.0117088,0.000,7500.000,0.809,5.862,526.676,-18.920,5187.089,5187.108,-16.437,0.132,0.274,0.019,0.027,0.004,0.000,0.000,0.000,-0.012,0.671,0.014,0.741,0.0000000,0.0000000,5184.799,0.000,0.000,0.000,0,00:00:00,0,0.000,0.000,0.000,0.000,0.000,0.000,0.000,0.000,0.000,0.000,0.000,0.000,0.000,0.000
45.712,2,0,-3.731,1.470,5212.237,-3.753,1.386,254.918,-2.024,0.810,-16.423,0.000,0.000,0.0118519,0.000,7500.000,0.804,5.707,524.864,-19.086,5212.732,5212.752,-16.560,0.235,0.424,0.026,0.025,-0.005,0.000,0.000,0.000,-0.011,0.672,0.013,0.740,0.0000000,0.0000000,5210.598,0.000,0.000,0.000,0,00:00:00,0,0.000,0.000,0.000,0.000,0.000,0.000,0.000,0.000,0.000,0.000,0.000,0.000,0.000,0.000
45.813,3,0,-3.725,1.457,5237.951,-3.762,1.350,253.330,-2.048,0.415,-16.092,0.000,0.000,0.0119982,0.000,7500.000,0.799,5.564,523.068,-19.254,5238.232,5238.252,-16.220,-0.089,0.486,0.036,0.004,-0.001,0.000,0.000,0.000,-0.010,0.672,0.012,0.740,0.0000000,0.0000000,5236.234,0.000,0.000,0.000,0,00:00:00,0,0.000,0.000,0.000,0.000,0.000,0.000,0.000,0.000,0.000,0.000,0.000,0.000,0.000,0.000
45.914,3,0,-3.728,1.445,5263.425,-3.951,1.381,249.872,-3.835,1.066,-34.712,70.000,0.000,0.0119982,7650.058,7500.000,0.795,5.538,521.271,-19.419,5263.803,5263.822,-34.937,-0.007,0.454,0.002,-0.004,-0.010,0.000,0.000,0.000,-0.010,0.672,0.012,0.740,0.0000000,0.0000000,5261.428,0.000,0.000,0.000,0,00:00:00,0,0.000,0.000,0.000,0.000,0.000,0.000,0.000,0.000,0.000,0.000,0.000,0.000,0.000,0.000
46.015,3,0,-3.748,1.438,5288.504,-4.132,1.420,246.458,-3.757,1.139,-33.914,70.000,0.000,0.0119982,7625.472,7500.000,0.784,5.561,519.535,-19.583,5288.574,5288.594,-34.139,0.057,0.386,-0.008,-0.021,0.018,0.000,0.000,0.000,-0.010,0.671,0.013,0.741,0.0000000,0.0000000,5286.284,0.000,0.000,0.000,0,00:00:00,0,0.000,0.000,0.000,0.000,0.000,0.000,0.000,0.000,0.000,0.000,0.000,0.000,0.000,0.000
46.116,3,0,-3.781,1.433,5313.208,-4.290,1.434,243.086,-3.555,0.896,-33.247,70.000,0.000,0.0119982,7597.952,7500.000,0.774,5.679,517.823,-19.745,5313.075,5313.095,-33.447,-0.203,0.247,-0.014,-0.000,-0.021,0.000,0.000,0.000,-0.011,0.671,0.012,0.741,0.0000000,0.0000000,5310.809,0.000,0.000,0.000,0,00:00:00,0,0.000,0.000,0.000,0.000,0.000,0.000,0.000,0.000,0.000,0.000,0.000,0.000,0.000,0.000
46.217,3,0,-3.826,1.432,5337.576,-4.449,1.467,239.781,-3.591,1.080,-32.601,70.000,0.000,0.0119982,7574.095,7500.000,0.763,5.681,516.124,-19.904,5337.453,5337.473,-32.814,0.027,0.315,0.007,-0.009,-0.006,0.000,0.000,0.000,-0.011,0.671,0.012,0.742,0.0000000,0.0000000,5335.009,0.000,0.000,0.000,0,00:00:00,0,0.000,0.000,0.000,0.000,0.000,0.000,0.000,0.000,0.000,0.000,0.000,0.000,0.000,0.000
46.318,3,0,-3.881,1.433,5361.580,-4.598,1.491,236.528,-3.510,0.992,-31.826,70.000,0.000,0.0119982,7548.463,7500.000,0.753,5.735,514.471,-20.058,5361.242,5361.261,-32.032,-0.053,0.410,-0.003,0.030,0.024,0.000,0.000,0.000,-0.010,0.672,0.013,0.740,0.0000000,0.0000000,5358.892,0.000,0.000,0.000,0,00:00:00,0,0.000,0.000,0.000,0.000,0.000,0.000,0.000,0.000,0.000,0.000,0.000,0.000,0.000,0.000
46.419,3,0,-3.943,1.435,5385.230,-4.720,1.497,233.313,-3.284,0.809,-31.244,70.000,0.000,0.0119982,7524.713,7500.000,0.743,5.565,512.843,-20.213,5384.723,5384.743,-31.425,-0.198,0.254,0.006,0.004,0.004,0.000,0.000,0.000,-0.010,0.672,0.013,0.740,0.0000000,0.0000000,5382.464,0.000,0.000,0.000,0,00:00:00,0,0.000,0.000,0.000,0.000,0.000,0.000,0.000,0.000,0.000,0.000,0.000,0.000,0.000,0.000
46.520,3,0,-4.009,1.438,5408.656,-4.796,1.511,230.812,-2.857,0.899,-24.659,35.000,0.000,0.0119982,7503.063,7500.000,0.733,5.540,511.194,-20.367,5408.556,5408.576,-24.837,0.081,0.382,-0.010,-0.033,-0.011,0.000,0.000,0.000,-0.011,0.671,0.013,0.741,0.0000000,0.0000000,5405.821,0.000,0.000,0.000,0,00:00:00,0,0.000,0.000,0.000,0.000,0.000,0.000,0.000,0.000,0.000,0.000,0.000,0.000,0.000,0.000
46.621,3,0,-4.075,1.442,5428.582,-4.876,1.528,225.886,-2.939,0.922,-24.649,0.000,0.000,0.0119982,7487.959,7500.000,0.726,5.729,511.194,-20.367,5408.556,5408.576,-24.837,0.081,0.382,-0.010,-0.033,-0.011,0.000,0.000,0.000,-0.011,0.670,0.013,0.743,0.0000000,0.0000000,5405.821,0.000,0.000,0.000,0,00:00:00,0,0.000,0.000,0.000,0.000,0.000,0.000,0.000,0.000,0.000,0.000,0.000,0.000,0.000,0.000
46.724,3,0,-4.152,1.450,5445.671,-4.967,1.548,218.831,-3.021,0.944,-24.638,0.000,0.000,0.0119982,7434.939,7500.000,0.710,5.918,511.194,-20.367,5408.556,5408.576,-24.837,0.081,0.382,-0.010,-0.033,-0.011,0.000,0.000,0.000,-0.012,0.668,0.013,0.744,0.0000000,0.0000000,5405.821,0.000,0.000,0.000,0,00:00:00,0,0.000,0.000,0.000,0.000,0.000,0.000,0.000,0.000,0.000,0.000,0.000,0.000,0.000,0.000
46.825,3,0,-4.214,1.455,5469.060,-4.926,1.528,218.354,-1.821,0.563,-14.803,0.000,0.000,0.0119982,7347.555,7500.000,0.688,6.106,506.460,-20.819,5477.374,5477.394,-14.923,-0.000,0.283,-0.026,0.031,0.032,0.000,0.000,0.000,-0.012,0.669,0.015,0.743,0.0000000,0.0000000,5475.138,0.000,0.000,0.000,0,00:00:00,0,0.000,0.000,0.000,0.000,0.000,0.000,0.000,0.000,0.000,0.000,0.000,0.000,0.000,0.000
46.926,3,0,-4.267,1.457,5492.302,-4.892,1.507,217.812,-1.906,0.567,-14.709,0.000,0.000,0.0119982,7366.034,7500.000,0.687,5.927,504.910,-20.970,5500.013,5500.033,-14.838,0.039,0.376,0.024,-0.002,0.012,0.000,0.000,0.000,-0.011,0.669,0.014,0.743,0.0000000,0.0000000,5497.946,0.000,0.000,0.000,0,00:00:00,0,0.000,0.000,0.000,0.000,0.000,0.000,0.000,0.000,0.000,0.000,0.000,0.000,0.000,0.000
47.027,3,0,-4.312,1.457,5515.390,-4.851,1.495,217.210,-1.864,0.642,-14.566,0.000,0.000,0.0119982,7382.020,7500.000,0.686,5.937,503.375,-21.117,5522.488,5522.507,-14.695,0.172,0.314,0.032,-0.023,-0.023,0.000,0.000,0.000,-0.010,0.669,0.012,0.743,0.0000000,0.0000000,5520.607,0.000,0.000,0.000,0,00:00:00,0,0.000,0.000,0.000,0.000,0.000,0.000,0.000,0.000,0.000,0.000,0.000,0.000,0.000,0.000
47.128,3,0,-4.349,1.456,5535.183,-4.811,1.477,214.192,-1.900,0.591,-14.564,0.000,0.000,0.0119982,7396.036,7500.000,0.684,6.070,503.375,-21.117,5522.488,5522.507,-14.695,0.172,0.314,0.032,-0.023,-0.023,0.000,0.000,0.000,-0.010,0.668,0.010,0.744,0.0000000,0.0000000,5520.607,0.000,0.000,0.000,0,00:00:00,0,0.000,0.000,0.000,0.000,0.000,0.000,0.000,0.000,0.000,0.000,0.000,0.000,0.000,0.000
47.229,3,0,-4.379,1.453,5558.302,-4.774,1.441,213.888,-1.940,0.408,-14.549,0.000,0.000,0.0119982,7370.328,7500.000,0.674,6.204,500.290,-21.411,5567.832,5567.851,-14.681,0.026,0.269,0.025,-0.060,-0.003,0.000,0.000,0.000,-0.009,0.666,0.009,0.746,0.0000000,0.0000000,5565.491,0.000,0.000,0.000,0,00:00:00,0,0.000,0.000,0.000,0.000,0.000,0.000,0.000,0.000,0.000,0.000,0.000,0.000,0.000,0.000
47.330,3,0,-4.403,1.446,5581.241,-4.749,1.387,213.488,-2.066,0.231,-14.392,0.000,0.000,0.0119982,7389.641,7500.000,0.674,6.546,498.797,-21.558,5589.862,5589.882,-14.535,-0.064,0.436,0.054,0.017,-0.025,0.000,0.000,0.000,-0.008,0.666,0.007,0.746,0.0000000,0.0000000,5587.714,0.000,0.000,0.000,0,00:00:00,0,0.000,0.000,0.000,0.000,0.000,0.000,0.000,0.000,0.000,0.000,0.000,0.000,0.000,0.000
47.431,3,0,-4.422,1.436,5604.068,-4.708,1.369,213.054,-1.929,0.580,-14.191,0.000,0.000,0.0119982,7408.259,7500.000,0.673,6.448,497.283,-21.702,5612.242,5612.262,-14.326,0.297,0.314,0.001,-0.004,-0.032,0.000,0.000,0.000,-0.009,0.666,0.005,0.746,0.0000000,0.0000000,5609.793,0.000,0.000,0.000,0,00:00:00,0,0.000,0.000,0.000,0.000,0.000,0.000,0.000,0.000,0.000,0.000,0.000,0.000,0.000,0.000
47.532,3,0,-4.435,1.425,5626.691,-4.667,1.340,212.492,-1.925,0.458,-14.266,0.000,0.000,0.0119982,7425.342,7500.000,0.672,6.471,495.823,-21.846,5633.885,5633.905,-14.398,0.137,0.325,-0.023,0.015,0.022,0.000,0.000,0.000,-0.009,0.667,0.007,0.745,0.0000000,0.0000000,5631.729,0.000,0.000,0.000,0,00:00:00,0,0.000,0.000,0.000,0.000,0.000,0.000,0.000,0.000,0.000,0.000,0.000,0.000,0.000,0.000
47.633,3,0,-4.444,1.413,5646.092,-4.623,1.315,209.566,-1.903,0.495,-14.268,0.000,0.000,0.0119982,7441.124,7500.000,0.670,6.385,495.823,-21.846,5633.885,5633.905,-14.398,0.137,0.325,-0.023,0.015,0.022,0.000,0.000,0.000,-0.009,0.667,0.009,0.745,0.0000000,0.0000000,5631.729,0.000,0.000,0.000,0,00:00:00,0,0.000,0.000,0.000,0.000,0.000,0.000,0.000,0.000,0.000,0.000,0.000,0.000,0.000,0.000
47.734,3,0,-4.447,1.399,5668.711,-4.570,1.289,209.269,-1.820,0.482,-14.218,0.000,0.000,0.0119982,7418.540,7500.000,0.661,6.299,492.855,-22.130,5678.042,5678.062,-14.339,0.125,0.253,-0.002,0.004,-0.012,0.000,0.000,0.000,-0.010,0.667,0.008,0.745,0.0000000,0.0000000,5675.172,0.000,0.000,0.000,0,00:00:00,0,0.000,0.000,0.000,0.000,0.000,0.000,0.000,0.000,0.000,0.000,0.000,0.000,0.000,0.000
47.835,3,0,-4.446,1.384,5691.098,-4.543,1.251,208.866,-2.075,0.345,-13.770,0.000,0.000,0.0119982,7437.691,7500.000,0.660,6.277,491.440,-22.270,5699.180,5699.200,-13.918,0.016,0.563,0.009,0.006,-0.023,0.000,0.000,0.000,-0.010,0.667,0.007,0.745,0.0000000,0.0000000,5696.681,0.000,0.000,0.000,0,00:00:00,0,0.000,0.000,0.000,0.000,0.000,0.000,0.000,0.000,0.000,0.000,0.000,0.000,0.000,0.000
47.936,3,0,-4.442,1.367,5713.294,-4.491,1.210,208.324,-1.822,0.320,-14.030,0.000,0.000,0.0119982,7455.090,7500.000,0.659,6.244,490.018,-22.410,5720.458,5720.478,-14.148,0.006,0.322,0.020,0.027,0.037,0.000,0.000,0.000,-0.008,0.668,0.008,0.744,0.0000000,0.0000000,5718.049,0.000,0.000,0.000,0,00:00:00,0,0.000,0.000,0.000,0.000,0.000,0.000,0.000,0.000,0.000,0.000,0.000,0.000,0.000,0.000
48.037,3,0,-4.434,1.347,5735.295,-4.453,1.171,207.687,-1.950,0.321,-13.940,0.000,0.000,0.0119982,7471.038,7500.000,0.658,6.092,488.608,-22.552,5741.604,5741.623,-14.072,-0.062,0.455,-0.053,-0.003,-0.019,0.000,0.000,0.000,-0.011,0.668,0.009,0.744,0.0000000,0.0000000,5739.276,0.000,0.000,0.000,0,00:00:00,0,0.000,0.000,0.000,0.000,0.000,0.000,0.000,0.000,0.000,0.000,0.000,0.000,0.000,0.000
48.138,3,0,-4.423,1.326,5757.087,-4.395,1.123,206.953,-1.759,0.223,-13.827,0.000,0.000,0.0119982,7484.195,7500.000,0.656,6.107,487.219,-22.687,5762.500,5762.520,-13.937,-0.132,0.243,0.017,-0.024,-0.006,0.000,0.000,0.000,-0.010,0.667,0.008,0.745,0.0000000,0.0000000,5760.364,0.000,0.000,0.000,0,00:00:00,0,0.000,0.000,0.000,0.000,0.000,0.000,0.000,0.000,0.000,0.000,0.000,0.000,0.000,0.000
48.239,3,0,-4.412,1.303,5778.733,-4.442,1.099,205.487,-2.788,0.447,-20.799,35.000,0.000,0.0119982,7494.807,7500.000,0.654,6.246,485.797,-22.824,5783.925,5783.945,-20.986,-0.150,0.401,-0.033,-0.050,-0.026,0.000,0.000,0.000,-0.012,0.666,0.008,0.746,0.0000000,0.0000000,5781.204,0.000,0.000,0.000,0,00:00:00,0,0.000,0.000,0.000,0.000,0.000,0.000,0.000,0.000,0.000,0.000,0.000,0.000,0.000,0.000
48.340,3,0,-4.405,1.280,5800.048,-4.464,1.079,203.892,-2.536,0.471,-20.722,35.000,0.000,0.0119982,7496.016,7500.000,0.649,6.530,484.461,-22.960,5804.115,5804.135,-20.881,-0.093,0.196,0.013,0.018,-0.013,0.000,0.000,0.000,-0.012,0.666,0.007,0.746,0.0000000,0.0000000,5801.835,0.000,0.000,0.000,0,00:00:00,0,0.000,0.000,0.000,0.000,0.000,0.000,0.000,0.000,0.000,0.000,0.000,0.000,0.000,0.000
48.441,3,0,-4.402,1.258,5821.120,-4.511,1.065,202.258,-2.777,0.532,-20.494,35.000,0.000,0.0119982,7495.423,7500.000,0.644,6.429,483.102,-23.094,5824.679,5824.699,-20.683,-0.054,0.455,-0.015,-0.002,-0.001,0.000,0.000,0.000,-0.013,0.666,0.008,0.746,0.0000000,0.0000000,5822.261,0.000,0.000,0.000,0,00:00:00,0,0.000,0.000,0.000,0.000,0.000,0.000,0.000,0.000,0.000,0.000,0.000,0.000,0.000,0.000
48.542,3,0,-4.404,1.237,5841.958,-4.554,1.058,200.582,-2.738,0.582,-20.395,35.000,0.000,0.0119982,7493.155,7500.000,0.639,6.442,481.757,-23.224,5845.092,5845.112,-20.583,0.036,0.367,0.021,-0.030,0.016,0.000,0.000,0.000,-0.012,0.665,0.008,0.747,0.0000000,0.0000000,5842.483,0.000,0.000,0.000,0,00:00:00,0,0.000,0.000,0.000,0.000,0.000,0.000,0.000,0.000,0.000,0.000,0.000,0.000,0.000,0.000
48.643,3,0,-4.406,1.218,5862.556,-4.525,1.053,199.532,-2.039,0.590,-13.411,0.000,0.000,0.0119982,7488.853,7500.000,0.634,6.615,480.446,-23.356,5865.035,5865.055,-13.569,0.222,0.437,-0.011,-0.028,-0.020,0.000,0.000,0.000,-0.013,0.664,0.007,0.748,0.0000000,0.0000000,5862.604,0.000,0.000,0.000,0,00:00:00,0,0.000,0.000,0.000,0.000,0.000,0.000,0.000,0.000,0.000,0.000,0.000,0.000,0.000,0.000
48.744,3,0,-4.408,1.199,5882.919,-4.556,1.045,197.739,-2.623,0.545,-20.069,35.000,0.000,0.0119982,7493.498,7500.000,0.631,6.774,479.148,-23.488,5884.816,5884.836,-20.245,-0.063,0.288,-0.026,0.027,0.006,0.000,0.000,0.000,-0.013,0.665,0.008,0.747,0.0000000,0.0000000,5882.491,0.000,0.000,0.000,0,00:00:00,0,0.000,0.000,0.000,0.000,0.000,0.000,0.000,0.000,0.000,0.000,0.000,0.000,0.000,0.000
48.845,3,0,-4.412,1.182,5903.060,-4.580,1.037,195.950,-2.561,0.550,-19.708,35.000,0.000,0.0119982,7492.083,7500.000,0.626,6.618,477.847,-23.618,5904.697,5904.717,-19.880,-0.000,0.267,0.024,-0.001,0.003,0.000,0.000,0.000,-0.012,0.665,0.008,0.747,0.0000000,0.0000000,5902.181,0.000,0.000,0.000,0,00:00:00,0,0.000,0.000,0.000,0.000,0.000,0.000,0.000,0.000,0.000,0.000,0.000,0.000,0.000,0.000
48.946,3,0,-4.415,1.165,5923.017,-4.531,1.011,194.796,-1.835,0.349,-13.154,0.000,0.000,0.0119982,7486.974,7500.000,0.620,6.623,476.558,-23.745,5924.430,5924.450,-13.283,0.007,0.318,0.020,0.011,0.005,0.000,0.000,0.000,-0.011,0.665,0.007,0.746,0.0000000,0.0000000,5921.769,0.000,0.000,0.000,0,00:00:00,0,0.000,0.000,0.000,0.000,0.000,0.000,0.000,0.000,0.000,0.000,0.000,0.000,0.000,0.000
49.047,3,0,-4.416,1.147,5942.733,-4.560,0.997,192.957,-2.612,0.469,-19.241,35.000,0.000,0.0119982,7491.208,7500.000,0.617,6.559,475.310,-23.870,5943.572,5943.591,-19.421,-0.040,0.324,-0.004,-0.036,0.005,0.000,0.000,0.000,-0.011,0.664,0.007,0.748,0.0000000,0.0000000,5941.133,0.000,0.000,0.000,0,00:00:00,0,0.000,0.000,0.000,0.000,0.000,0.000,0.000,0.000,0.000,0.000,0.000,0.000,0.000,0.000
49.148,3,0,-4.417,1.130,5962.284,-4.518,0.969,191.734,-1.899,0.316,-13.064,0.000,0.000,0.0119982,7483.468,7500.000,0.611,6.764,474.043,-24.000,5963.057,5963.076,-13.200,-0.012,0.364,0.012,0.014,-0.004,0.000,0.000,0.000,-0.011,0.665,0.007,0.747,0.0000000,0.0000000,5960.395,0.000,0.000,0.000,0,00:00:00,0,0.000,0.000,0.000,0.000,0.000,0.000,0.000,0.000,0.000,0.000,0.000,0.000,0.000,0.000
49.249,3,0,-4.414,1.111,5978.989,-4.473,0.940,188.476,-1.881,0.299,-13.067,0.000,0.000,0.0119982,7488.948,7500.000,0.607,6.682,474.043,-24.000,5963.057,5963.076,-13.200,-0.012,0.364,0.012,0.014,-0.004,0.000,0.000,0.000,-0.011,0.665,0.006,0.747,0.0000000,0.0000000,5960.395,0.000,0.000,0.000,0,00:00:00,0,0.000,0.000,0.000,0.000,0.000,0.000,0.000,0.000,0.000,0.000,0.000,0.000,0.000,0.000
49.350,3,0,-4.407,1.091,5998.425,-4.439,0.909,187.510,-1.977,0.265,-13.008,0.000,0.000,0.0119982,7460.318,7500.000,0.597,6.599,471.566,-24.249,6001.264,6001.284,-13.151,-0.055,0.496,-0.009,0.022,-0.005,0.000,0.000,0.000,-0.011,0.666,0.006,0.746,0.0000000,0.0000000,5998.526,0.000,0.000,0.000,0,00:00:00,0,0.000,0.000,0.000,0.000,0.000,0.000,0.000,0.000,0.000,0.000,0.000,0.000,0.000,0.000
49.451,3,0,-4.397,1.070,6017.692,-4.370,0.872,186.496,-1.633,0.193,-12.963,0.000,0.000,0.0119982,7467.252,7500.000,0.594,6.471,470.349,-24.375,6020.093,6020.113,-13.066,-0.128,0.120,0.001,-0.030,0.008,0.000,0.000,0.000,-0.011,0.665,0.007,0.747,0.0000000,0.0000000,6017.395,0.000,0.000,0.000,0,00:00:00,0,0.000,0.000,0.000,0.000,0.000,0.000,0.000,0.000,0.000,0.000,0.000,0.000,0.000,0.000
49.552,3,0,-4.382,1.048,6036.859,-4.329,0.847,185.489,-1.902,0.303,-12.907,0.000,0.000,0.0119982,7471.417,7500.000,0.591,6.644,469.112,-24.492,6039.275,6039.295,-13.045,0.004,0.359,0.012,-0.026,-0.024,0.000,0.000,0.000,-0.011,0.664,0.005,0.748,0.0000000,0.0000000,6036.135,0.000,0.000,0.000,0,00:00:00,0,0.000,0.000,0.000,0.000,0.000,0.000,0.000,0.000,0.000,0.000,0.000,0.000,0.000,0.000
49.653,3,0,-4.365,1.027,6055.835,-4.291,0.838,184.436,-1.920,0.451,-12.690,0.000,0.000,0.0119982,7478.172,7500.000,0.588,6.792,467.926,-24.617,6057.695,6057.714,-12.835,0.127,0.422,-0.022,0.015,0.015,0.000,0.000,0.000,-0.012,0.664,0.007,0.747,0.0000000,0.0000000,6054.745,0.000,0.000,0.000,0,00:00:00,0,0.000,0.000,0.000,0.000,0.000,0.000,0.000,0.000,0.000,0.000,0.000,0.000,0.000,0.000
49.754,3,0,-4.346,1.007,6074.597,-4.253,0.824,183.286,-1.906,0.397,-12.860,0.000,0.000,0.0119982,7483.436,7500.000,0.585,6.703,466.764,-24.738,6075.800,6075.820,-13.001,0.058,0.368,-0.011,-0.015,-0.019,0.000,0.000,0.000,-0.013,0.664,0.006,0.748,0.0000000,0.0000000,6073.226,0.000,0.000,0.000,0,00:00:00,0,0.000,0.000,0.000,0.000,0.000,0.000,0.000,0.000,0.000,0.000,0.000,0.000,0.000,0.000
49.855,3,0,-4.326,0.986,6093.199,-4.223,0.789,182.098,-1.978,0.165,-12.915,0.000,0.000,0.0119982,7486.031,7500.000,0.581,6.789,465.588,-24.858,6094.135,6094.154,-13.059,-0.145,0.432,0.023,-0.003,-0.005,0.000,0.000,0.000,-0.012,0.664,0.006,0.748,0.0000000,0.0000000,6091.579,0.000,0.000,0.000,0,00:00:00,0,0.000,0.000,0.000,0.000,0.000,0.000,0.000,0.000,0.000,0.000,0.000,0.000,0.000,0.000
49.956,3,0,-4.305,0.966,6111.656,-4.189,0.786,180.904,-1.934,0.480,-12.795,0.000,0.000,0.0119982,7488.322,7500.000,0.578,6.805,464.418,-24.975,6112.439,6112.458,-12.943,0.154,0.386,-0.014,-0.011,0.008,0.000,0.000,0.000,-0.012,0.663,0.006,0.748,0.0000000,0.0000000,6109.804,0.000,0.000,0.000,0,00:00:00,0,0.000,0.000,0.000,0.000,0.000,0.000,0.000,0.000,0.000,0.000,0.000,0.000,0.000,0.000
50.057,3,0,-4.285,0.948,6129.891,-4.207,0.802,179.141,-2.426,0.662,-17.858,35.000,0.000,0.0119982,7490.053,7500.000,0.574,6.868,463.283,-25.093,6130.209,6130.229,-18.031,0.179,0.272,-0.013,0.003,0.004,0.000,0.000,0.000,-0.012,0.663,0.007,0.748,0.0000000,0.0000000,6127.823,0.000,0.000,0.000,0,00:00:00,0,0.000,0.000,0.000,0.000,0.000,0.000,0.000,0.000,0.000,0.000,0.000,0.000,0.000,0.000
50.158,3,0,-4.266,0.931,6148.034,-4.156,0.780,177.956,-1.742,0.274,-12.574,0.000,0.000,0.0119982,7484.044,7500.000,0.569,6.851,462.105,-25.211,6148.710,6148.729,-12.695,-0.071,0.244,-0.005,0.014,-0.004,0.000,0.000,0.000,-0.013,0.664,0.007,0.748,0.0000000,0.0000000,6145.741,0.000,0.000,0.000,0,00:00:00,0,0.000,0.000,0.000,0.000,0.000,0.000,0.000,0.000,0.000,0.000,0.000,0.000,0.000,0.000
50.259,3,0,-4.243,0.914,6165.951,-4.110,0.749,176.714,-1.778,0.167,-12.338,0.000,0.000,0.0119982,7489.120,7500.000,0.565,6.771,461.007,-25.328,6165.972,6165.992,-12.463,-0.128,0.276,0.035,-0.027,-0.006,0.000,0.000,0.000,-0.012,0.663,0.006,0.748,0.0000000,0.0000000,6163.532,0.000,0.000,0.000,0,00:00:00,0,0.000,0.000,0.000,0.000,0.000,0.000,0.000,0.000,0.000,0.000,0.000,0.000,0.000,0.000
50.360,3,0,-4.220,0.896,6183.780,-4.071,0.741,175.495,-1.833,0.391,-12.406,0.000,0.000,0.0119982,7489.466,7500.000,0.561,6.925,459.861,-25.444,6184.032,6184.051,-12.543,0.095,0.284,-0.004,-0.028,-0.025,0.000,0.000,0.000,-0.013,0.662,0.005,0.749,0.0000000,0.0000000,6181.198,0.000,0.000,0.000,0,00:00:00,0,0.000,0.000,0.000,0.000,0.000,0.000,0.000,0.000,0.000,0.000,0.000,0.000,0.000,0.000
50.461,3,0,-4.195,0.879,6201.391,-4.048,0.729,174.207,-1.979,0.342,-12.364,0.000,0.000,0.0119982,7489.930,7500.000,0.557,7.086,458.783,-25.558,6201.056,6201.076,-12.520,0.074,0.380,0.017,-0.042,-0.026,0.000,0.000,0.000,-0.013,0.660,0.003,0.751,0.0000000,0.0000000,6198.739,0.000,0.000,0.000,0,00:00:00,0,0.000,0.000,0.000,0.000,0.000,0.000,0.000,0.000,0.000,0.000,0.000,0.000,0.000,0.000
50.562,3,0,-4.170,0.863,6218.908,-4.014,0.715,172.950,-1.851,0.321,-12.342,0.000,0.000,0.0119982,7488.707,7500.000,0.553,7.329,457.661,-25.674,6218.799,6218.818,-12.480,0.070,0.294,0.014,0.031,-0.004,0.000,0.000,0.000,-0.013,0.661,0.003,0.750,0.0000000,0.0000000,6216.154,0.000,0.000,0.000,0,00:00:00,0,0.000,0.000,0.000,0.000,0.000,0.000,0.000,0.000,0.000,0.000,0.000,0.000,0.000,0.000
50.663,3,0,-4.144,0.847,6233.861,-3.977,0.701,169.871,-1.814,0.304,-12.348,35.000,0.000,0.0119982,7490.258,7500.000,0.550,7.156,457.661,-25.674,6218.799,6218.818,-12.480,0.070,0.294,0.014,0.031,-0.004,0.000,0.000,0.000,-0.012,0.663,0.002,0.749,0.0000000,0.0000000,6216.154,0.000,0.000,0.000,0,00:00:00,0,0.000,0.000,0.000,0.000,0.000,0.000,0.000,0.000,0.000,0.000,0.000,0.000,0.000,0.000
50.764,3,0,-4.118,0.830,6251.266,-3.937,0.675,168.867,-1.772,0.176,-12.234,0.000,0.000,0.0119982,7467.334,7500.000,0.540,6.982,455.496,-25.898,6253.152,6253.172,-12.360,-0.064,0.234,-0.007,-0.028,-0.002,0.000,0.000,0.000,-0.012,0.662,0.002,0.750,0.0000000,0.0000000,6250.493,0.000,0.000,0.000,0,00:00:00,0,0.000,0.000,0.000,0.000,0.000,0.000,0.000,0.000,0.000,0.000,0.000,0.000,0.000,0.000
50.865,3,0,-4.090,0.813,6266.145,-3.902,0.650,166.053,-1.806,0.183,-12.229,0.000,0.000,0.0119982,7470.615,7500.000,0.537,7.143,455.496,-25.898,6253.152,6253.172,-12.360,-0.064,0.234,-0.007,-0.028,-0.002,0.000,0.000,0.000,-0.013,0.661,0.002,0.751,0.0000000,0.0000000,6250.493,0.000,0.000,0.000,0,00:00:00,0,0.000,0.000,0.000,0.000,0.000,0.000,0.000,0.000,0.000,0.000,0.000,0.000,0.000,0.000
50.966,3,0,-4.062,0.795,6283.459,-3.877,0.620,165.255,-1.888,0.123,-12.379,0.000,0.000,0.0119982,7449.326,7500.000,0.528,7.303,453.361,-26.122,6287.157,6287.177,-12.518,-0.085,0.341,0.032,0.035,-0.003,0.000,0.000,0.000,-0.012,0.662,0.001,0.750,0.0000000,0.0000000,6284.361,0.000,0.000,0.000,0,00:00:00,0,0.000,0.000,0.000,0.000,0.000,0.000,0.000,0.000,0.000,0.000,0.000,0.000,0.000,0.000
51.067,3,0,-4.034,0.775,6298.277,-3.849,0.587,162.652,-1.844,0.083,-12.386,0.000,0.000,0.0119982,7457.489,7500.000,0.526,7.104,453.361,-26.122,6287.157,6287.177,-12.518,-0.085,0.341,0.032,0.035,-0.003,0.000,0.000,0.000,-0.011,0.663,-0.000,0.748,0.0000000,0.0000000,6284.361,0.000,0.000,0.000,0,00:00:00,0,0.000,0.000,0.000,0.000,0.000,0.000,0.000,0.000,0.000,0.000,0.000,0.000,0.000,0.000
51.168,3,0,-4.006,0.755,6310.793,-3.818,0.551,158.524,-1.801,0.042,-12.393,0.000,0.000,0.0119982,7439.258,7500.000,0.517,6.904,453.361,-26.122,6287.157,6287.177,-12.518,-0.085,0.341,0.032,0.035,-0.003,0.000,0.000,0.000,-0.009,0.664,-0.001,0.747,0.0000000,0.0000000,6284.361,0.000,0.000,0.000,0,00:00:00,0,0.000,0.000,0.000,0.000,0.000,0.000,0.000,0.000,0.000,0.000,0.000,0.000,0.000,0.000
51.269,3,0,-3.978,0.732,6328.137,-3.786,0.513,158.355,-1.774,0.000,-11.996,0.000,0.000,0.0119982,7401.206,7500.000,0.504,6.705,450.267,-26.448,6336.672,6336.692,-12.122,-0.026,0.354,0.079,-0.004,-0.010,0.000,0.000,0.000,-0.007,0.664,-0.004,0.747,0.0000000,0.0000000,6334.244,0.000,0.000,0.000,0,00:00:00,0,0.000,0.000,0.000,0.000,0.000,0.000,0.000,0.000,0.000,0.000,0.000,0.000,0.000,0.000
51.370,3,0,-3.950,0.709,6345.424,-3.758,0.471,158.153,-1.799,-0.037,-12.021,0.000,0.000,0.0119982,7416.432,7500.000,0.504,6.738,449.206,-26.553,6353.717,6353.736,-12.148,-0.101,0.391,-0.028,0.012,0.022,0.000,0.000,0.000,-0.007,0.665,-0.003,0.747,0.0000000,0.0000000,6350.627,0.000,0.000,0.000,0,00:00:00,0,0.000,0.000,0.000,0.000,0.000,0.000,0.000,0.000,0.000,0.000,0.000,0.000,0.000,0.000
51.471,3,0,-3.922,0.683,6362.455,-3.718,0.423,157.784,-1.661,-0.114,-11.923,0.000,0.000,0.0119982,7431.658,7500.000,0.503,6.669,448.238,-26.661,6369.294,6369.314,-12.033,-0.195,0.321,-0.014,0.045,0.011,0.000,0.000,0.000,-0.007,0.666,-0.002,0.746,0.0000000,0.0000000,6366.890,0.000,0.000,0.000,0,00:00:00,0,0.000,0.000,0.000,0.000,0.000,0.000,0.000,0.000,0.000,0.000,0.000,0.000,0.000,0.000
51.572,3,0,-3.892,0.655,6379.353,-3.674,0.372,157.328,-1.615,-0.167,-12.093,0.000,0.000,0.0119982,7445.316,7500.000,0.502,6.410,447.225,-26.763,6385.617,6385.637,-12.197,-0.210,0.271,0.033,0.012,-0.006,0.000,0.000,0.000,-0.006,0.667,-0.003,0.745,0.0000000,0.0000000,6383.032,0.000,0.000,0.000,0,00:00:00,0,0.000,0.000,0.000,0.000,0.000,0.000,0.000,0.000,0.000,0.000,0.000,0.000,0.000,0.000
51.673,3,0,-3.862,0.626,6396.101,-3.651,0.340,156.818,-1.806,0.015,-11.838,0.000,0.000,0.0119982,7456.814,7500.000,0.501,6.347,446.228,-26.870,6401.715,6401.735,-11.965,-0.044,0.477,-0.020,-0.008,-0.019,0.000,0.000,0.000,-0.008,0.667,-0.003,0.745,0.0000000,0.0000000,6399.053,0.000,0.000,0.000,0,00:00:00,0,0.000,0.000,0.000,0.000,0.000,0.000,0.000,0.000,0.000,0.000,0.000,0.000,0.000,0.000
51.774,3,0,-3.832,0.597,6412.655,-3.612,0.298,156.207,-1.621,-0.106,-11.782,0.000,0.000,0.0119982,7466.998,7500.000,0.500,6.391,445.259,-26.974,6417.392,6417.412,-11.887,-0.123,0.345,0.044,0.038,0.047,0.000,0.000,0.000,-0.004,0.668,-0.003,0.744,0.0000000,0.0000000,6414.954,0.000,0.000,0.000,0,00:00:00,0,0.000,0.000,0.000,0.000,0.000,0.000,0.000,0.000,0.000,0.000,0.000,0.000,0.000,0.000
51.875,3,0,-3.800,0.567,6429.065,-3.564,0.265,155.533,-1.529,-0.027,-11.806,0.000,0.000,0.0119982,7476.790,7500.000,0.498,6.174,444.278,-27.078,6433.296,6433.315,-11.902,0.000,0.269,0.040,0.016,0.010,0.000,0.000,0.000,-0.003,0.669,-0.004,0.744,0.0000000,0.0000000,6430.735,0.000,0.000,0.000,0,00:00:00,0,0.000,0.000,0.000,0.000,0.000,0.000,0.000,0.000,0.000,0.000,0.000,0.000,0.000,0.000
51.976,3,0,-3.768,0.536,6445.379,-3.518,0.229,154.829,-1.528,-0.071,-11.893,0.000,0.000,0.0119982,7485.027,7500.000,0.496,6.086,443.284,-27.181,6449.444,6449.464,-11.988,-0.011,0.271,0.025,0.009,-0.019,0.000,0.000,0.000,-0.002,0.669,-0.005,0.743,0.0000000,0.0000000,6446.397,0.000,0.000,0.000,0,00:00:00,0,0.000,0.000,0.000,0.000,0.000,0.000,0.000,0.000,0.000,0.000,0.000,0.000,0.000,0.000
52.077,3,0,-3.736,0.505,6461.456,-3.513,0.187,153.647,-1.913,-0.155,-15.539,35.000,0.000,0.0119982,7492.630,7500.000,0.493,6.033,442.350,-27.283,6464.621,6464.641,-15.655,-0.070,0.257,0.004,-0.009,-0.006,0.000,0.000,0.000,-0.002,0.669,-0.006,0.744,0.0000000,0.0000000,6461.885,0.000,0.000,0.000,0,00:00:00,0,0.000,0.000,0.000,0.000,0.000,0.000,0.000,0.000,0.000,0.000,0.000,0.000,0.000,0.000
52.178,3,0,-3.707,0.473,6477.301,-3.529,0.159,152.393,-2.107,-0.025,-15.412,35.000,0.000,0.0119982,7493.357,7500.000,0.490,6.084,441.421,-27.383,6479.765,6479.785,-15.548,0.015,0.467,-0.028,0.003,0.008,0.000,0.000,0.000,-0.003,0.669,-0.004,0.744,0.0000000,0.0000000,6477.217,0.000,0.000,0.000,0,00:00:00,0,0.000,0.000,0.000,0.000,0.000,0.000,0.000,0.000,0.000,0.000,0.000,0.000,0.000,0.000
52.279,3,0,-3.682,0.442,6492.993,-3.524,0.142,151.128,-1.890,0.062,-15.332,35.000,0.000,0.0119982,7495.933,7500.000,0.486,6.068,440.469,-27.481,6495.299,6495.319,-15.445,0.114,0.314,0.012,0.037,0.028,0.000,0.000,0.000,-0.002,0.670,-0.004,0.742,0.0000000,0.0000000,6492.396,0.000,0.000,0.000,0,00:00:00,0,0.000,0.000,0.000,0.000,0.000,0.000,0.000,0.000,0.000,0.000,0.000,0.000,0.000,0.000
52.380,3,0,-3.659,0.412,6508.471,-3.519,0.105,149.815,-1.869,-0.151,-15.156,35.000,0.000,0.0119982,7496.641,7500.000,0.482,5.859,439.555,-27.580,6510.239,6510.259,-15.268,-0.061,0.323,0.023,0.007,-0.019,0.000,0.000,0.000,-0.001,0.670,-0.005,0.742,0.0000000,0.0000000,6507.422,0.000,0.000,0.000,0,00:00:00,0,0.000,0.000,0.000,0.000,0.000,0.000,0.000,0.000,0.000,0.000,0.000,0.000,0.000,0.000
52.481,3,0,-3.637,0.381,6523.752,-3.514,0.065,148.465,-1.862,-0.187,-15.030,35.000,0.000,0.0119982,7495.834,7500.000,0.478,5.821,438.647,-27.677,6525.116,6525.136,-15.141,-0.116,0.334,-0.013,0.003,-0.004,0.000,0.000,0.000,-0.002,0.670,-0.005,0.742,0.0000000,0.0000000,6522.298,0.000,0.000,0.000,0,00:00:00,0,0.000,0.000,0.000,0.000,0.000,0.000,0.000,0.000,0.000,0.000,0.000,0.000,0.000,0.000
52.582,3,0,-3.617,0.350,6538.810,-3.498,0.036,147.060,-1.744,-0.110,-14.951,35.000,0.000,0.0119982,7494.253,7500.000,0.474,5.805,437.761,-27.774,6539.650,6539.669,-15.050,0.007,0.263,0.032,0.027,0.013,0.000,0.000,0.000,-0.000,0.671,-0.006,0.741,0.0000000,0.0000000,6537.023,0.000,0.000,0.000,0,00:00:00,0,0.000,0.000,0.000,0.000,0.000,0.000,0.000,0.000,0.000,0.000,0.000,0.000,0.000,0.000
52.683,3,0,-3.596,0.319,6553.676,-3.480,0.009,145.634,-1.717,-0.099,-14.770,35.000,0.000,0.0119982,7492.184,7500.000,0.469,5.653,436.876,-27.870,6554.195,6554.214,-14.867,0.019,0.277,0.004,0.015,0.019,0.000,0.000,0.000,0.000,0.672,-0.005,0.741,0.0000000,0.0000000,6551.600,0.000,0.000,0.000,0,00:00:00,0,0.000,0.000,0.000,0.000,0.000,0.000,0.000,0.000,0.000,0.000,0.000,0.000,0.000,0.000
52.784,3,0,-3.577,0.289,6568.392,-3.469,-0.019,144.213,-1.776,-0.123,-14.673,35.000,0.000,0.0119982,7492.382,7500.000,0.465,5.565,435.983,-27.965,6568.877,6568.897,-14.778,-0.014,0.306,-0.007,-0.027,-0.009,0.000,0.000,0.000,-0.000,0.671,-0.005,0.741,0.0000000,0.0000000,6566.029,0.000,0.000,0.000,0,00:00:00,0,0.000,0.000,0.000,0.000,0.000,0.000,0.000,0.000,0.000,0.000,0.000,0.000,0.000,0.000
52.885,3,0,-3.557,0.259,6582.914,-3.432,-0.052,143.073,-1.505,-0.192,-11.401,0.000,0.000,0.0119982,7489.226,7500.000,0.460,5.717,435.128,-28.059,6582.986,6583.006,-11.492,-0.105,0.456,0.001,-0.002,-0.003,0.000,0.000,0.000,-0.000,0.674,-0.005,0.739,0.0000000,0.0000000,6580.358,0.000,0.000,0.000,0,00:00:00,0,0.000,0.000,0.000,0.000,0.000,0.000,0.000,0.000,0.000,0.000,0.000,0.000,0.000,0.000
52.986,3,0,-3.536,0.227,6597.269,-3.411,-0.099,141.600,-1.646,-0.343,-14.424,35.000,0.000,0.0119982,7491.308,7500.000,0.457,5.253,434.272,-28.150,6597.116,6597.136,-14.517,-0.232,0.314,0.005,-0.005,0.025,0.000,0.000,0.000,0.001,0.674,-0.005,0.739,0.0000000,0.0000000,6594.526,0.000,0.000,0.000,0,00:00:00,0,0.000,0.000,0.000,0.000,0.000,0.000,0.000,0.000,0.000,0.000,0.000,0.000,0.000,0.000
53.087,3,0,-3.514,0.195,6611.481,-3.357,-0.134,140.416,-1.314,-0.242,-11.484,0.000,0.000,0.0119982,7487.486,7500.000,0.452,5.281,433.416,-28.242,6611.269,6611.289,-11.556,-0.147,0.347,0.005,0.016,0.001,0.000,0.000,0.000,0.001,0.677,-0.005,0.736,0.0000000,0.0000000,6608.595,0.000,0.000,0.000,0,00:00:00,0,0.000,0.000,0.000,0.000,0.000,0.000,0.000,0.000,0.000,0.000,0.000,0.000,0.000,0.000
53.188,3,0,-3.490,0.165,6625.498,-3.332,-0.138,138.904,-1.589,0.041,-14.283,35.000,0.000,0.0119982,7491.142,7500.000,0.449,4.818,432.592,-28.334,6624.908,6624.928,-14.366,0.098,0.390,-0.043,0.004,-0.003,0.000,0.000,0.000,-0.001,0.677,-0.004,0.736,0.0000000,0.0000000,6622.504,0.000,0.000,0.000,0,00:00:00,0,0.000,0.000,0.000,0.000,0.000,0.000,0.000,0.000,0.000,0.000,0.000,0.000,0.000,0.000
53.289,3,0,-3.465,0.136,6639.418,-3.267,-0.145,137.706,-1.177,0.002,-11.494,0.000,0.000,0.0119982,7487.205,7500.000,0.444,4.791,431.737,-28.426,6639.092,6639.111,-11.550,-0.017,0.301,-0.053,0.014,0.021,0.000,0.000,0.000,-0.002,0.680,-0.001,0.733,0.0000000,0.0000000,6636.313,0.000,0.000,0.000,0,00:00:00,0,0.000,0.000,0.000,0.000,0.000,0.000,0.000,0.000,0.000,0.000,0.000,0.000,0.000,0.000
53.390,3,0,-3.436,0.109,6653.204,-3.220,-0.160,136.508,-1.347,-0.089,-11.385,0.000,0.000,0.0119982,7487.926,7500.000,0.440,4.353,430.913,-28.513,6652.788,6652.808,-11.452,-0.096,0.515,0.009,-0.020,-0.001,0.000,0.000,0.000,-0.002,0.681,-0.001,0.732,0.0000000,0.0000000,6650.009,0.000,0.000,0.000,0,00:00:00,0,0.000,0.000,0.000,0.000,0.000,0.000,0.000,0.000,0.000,0.000,0.000,0.000,0.000,0.000
53.491,3,0,-3.406,0.085,6666.858,-3.165,-0.154,135.310,-1.238,0.104,-11.306,0.000,0.000,0.0119982,7487.806,7500.000,0.436,4.172,430.096,-28.603,6666.376,6666.396,-11.364,0.126,0.463,0.029,-0.025,0.015,0.000,0.000,0.000,0.000,0.683,-0.001,0.731,0.0000000,0.0000000,6663.591,0.000,0.000,0.000,0,00:00:00,0,0.000,0.000,0.000,0.000,0.000,0.000,0.000,0.000,0.000,0.000,0.000,0.000,0.000,0.000
53.592,3,0,-3.372,0.063,6680.419,-3.082,-0.141,134.136,-0.959,0.164,-11.272,0.000,0.000,0.0119982,7487.665,7500.000,0.433,3.914,429.273,-28.692,6680.105,6680.125,-11.308,0.200,0.290,0.012,-0.013,-0.009,0.000,0.000,0.000,0.002,0.686,-0.000,0.728,0.0000000,0.0000000,6677.060,0.000,0.000,0.000,0,00:00:00,0,0.000,0.000,0.000,0.000,0.000,0.000,0.000,0.000,0.000,0.000,0.000,0.000,0.000,0.000
53.693,3,0,-3.334,0.045,6691.977,-2.994,-0.128,131.553,-0.881,0.150,-11.278,35.000,0.000,0.0119982,7490.832,7500.000,0.429,3.400,429.273,-28.692,6680.105,6680.125,-11.308,0.200,0.290,0.012,-0.013,-0.009,0.000,0.000,0.000,0.004,0.688,0.000,0.725,0.0000000,0.0000000,6677.060,0.000,0.000,0.000,0,00:00:00,0,0.000,0.000,0.000,0.000,0.000,0.000,0.000,0.000,0.000,0.000,0.000,0.000,0.000,0.000
53.794,3,0,-3.291,0.029,6705.377,-2.910,-0.138,130.535,-0.902,-0.085,-11.335,0.000,0.000,0.0119982,7472.909,7500.000,0.421,3.005,427.698,-28.864,6706.401,6706.421,-11.366,0.001,0.340,0.033,-0.020,0.009,0.000,0.000,0.000,0.005,0.689,-0.001,0.724,0.0000000,0.0000000,6703.590,0.000,0.000,0.000,0,00:00:00,0,0.000,0.000,0.000,0.000,0.000,0.000,0.000,0.000,0.000,0.000,0.000,0.000,0.000,0.000
53.895,3,0,-3.245,0.013,6718.636,-2.834,-0.152,129.502,-0.951,-0.133,-11.214,0.000,0.000,0.0119982,7474.709,7500.000,0.417,2.833,426.920,-28.951,6719.429,6719.448,-11.247,-0.033,0.420,0.014,-0.014,0.020,0.000,0.000,0.000,0.005,0.690,-0.002,0.724,0.0000000,0.0000000,6716.693,0.000,0.000,0.000,0,00:00:00,0,0.000,0.000,0.000,0.000,0.000,0.000,0.000,0.000,0.000,0.000,0.000,0.000,0.000,0.000
53.996,3,0,-3.196,-0.002,6731.846,-2.748,-0.142,128.502,-0.829,0.104,-11.296,0.000,0.000,0.0119982,7476.086,7500.000,0.414,2.709,426.112,-29.033,6732.982,6733.002,-11.319,0.199,0.363,-0.005,0.033,-0.005,0.000,0.000,0.000,0.006,0.692,-0.001,0.722,0.0000000,0.0000000,6729.684,0.000,0.000,0.000,0,00:00:00,0,0.000,0.000,0.000,0.000,0.000,0.000,0.000,0.000,0.000,0.000,0.000,0.000,0.000,0.000
54.097,3,0,-3.143,-0.014,6744.880,-2.645,-0.132,127.435,-0.633,0.091,-11.396,0.000,0.000,0.0119982,7480.651,7500.000,0.411,2.364,425.363,-29.118,6745.557,6745.577,-11.411,0.135,0.222,-0.046,0.015,0.008,0.000,0.000,0.000,0.005,0.694,0.002,0.720,0.0000000,0.0000000,6742.562,0.000,0.000,0.000,0,00:00:00,0,0.000,0.000,0.000,0.000,0.000,0.000,0.000,0.000,0.000,0.000,0.000,0.000,0.000,0.000
54.198,3,0,-3.085,-0.025,6757.778,-2.548,-0.121,126.389,-0.656,0.092,-10.976,0.000,0.000,0.0119982,7481.974,7500.000,0.408,2.066,424.607,-29.203,6758.269,6758.289,-10.990,0.169,0.311,0.036,0.023,0.045,0.000,0.000,0.000,0.008,0.696,0.002,0.718,0.0000000,0.0000000,6755.329,0.000,0.000,0.000,0,00:00:00,0,0.000,0.000,0.000,0.000,0.000,0.000,0.000,0.000,0.000,0.000,0.000,0.000,0.000,0.000
54.299,3,0,-3.023,-0.034,6770.558,-2.429,-0.133,125.323,-0.414,-0.132,-11.081,0.000,0.000,0.0119982,7483.288,7500.000,0.404,1.809,423.853,-29.287,6770.971,6770.991,-11.089,-0.049,0.145,0.002,0.015,0.025,0.000,0.000,0.000,0.006,0.698,0.001,0.716,0.0000000,0.0000000,6767.984,0.000,0.000,0.000,0,00:00:00,0,0.000,0.000,0.000,0.000,0.000,0.000,0.000,0.000,0.000,0.000,0.000,0.000,0.000,0.000
54.400,3,0,-2.958,-0.042,6783.220,-2.342,-0.122,124.260,-0.697,0.088,-10.972,0.000,0.000,0.0119982,7484.315,7500.000,0.401,1.383,423.105,-29.368,6783.575,6783.594,-10.986,0.177,0.394,0.010,0.018,0.010,0.000,0.000,0.000,0.008,0.697,0.001,0.717,0.0000000,0.0000000,6780.529,0.000,0.000,0.000,0,00:00:00,0,0.000,0.000,0.000,0.000,0.000,0.000,0.000,0.000,0.000,0.000,0.000,0.000,0.000,0.000
54.501,3,0,-2.891,-0.050,6795.746,-2.269,-0.137,123.178,-0.795,-0.180,-10.943,0.000,0.000,0.0119982,7484.801,7500.000,0.398,1.588,422.374,-29.452,6795.920,6795.939,-10.963,-0.084,0.451,0.005,0.031,0.010,0.000,0.000,0.000,0.005,0.696,-0.001,0.718,0.0000000,0.0000000,6792.962,0.000,0.000,0.000,0,00:00:00,0,0.000,0.000,0.000,0.000,0.000,0.000,0.000,0.000,0.000,0.000,0.000,0.000,0.000,0.000
54.602,3,0,-2.824,-0.058,6808.165,-2.199,-0.142,122.107,-0.795,-0.079,-10.846,0.000,0.000,0.0119982,7484.899,7500.000,0.394,1.796,421.640,-29.532,6808.347,6808.366,-10.868,-0.003,0.407,-0.017,-0.030,0.013,0.000,0.000,0.000,0.004,0.694,-0.001,0.720,0.0000000,0.0000000,6805.284,0.000,0.000,0.000,0,00:00:00,0,0.000,0.000,0.000,0.000,0.000,0.000,0.000,0.000,0.000,0.000,0.000,0.000,0.000,0.000
54.703,3,0,-2.757,-0.067,6820.443,-2.131,-0.165,120.996,-0.776,-0.262,-11.013,0.000,0.000,0.0119982,7487.851,7500.000,0.391,2.048,420.926,-29.611,6820.432,6820.452,-11.035,-0.213,0.396,-0.028,0.020,0.014,0.000,0.000,0.000,-0.000,0.695,-0.003,0.719,0.0000000,0.0000000,6817.496,0.000,0.000,0.000,0,00:00:00,0,0.000,0.000,0.000,0.000,0.000,0.000,0.000,0.000,0.000,0.000,0.000,0.000,0.000,0.000
54.804,3,0,-2.691,-0.076,6832.599,-2.083,-0.170,119.891,-0.940,-0.093,-10.875,0.000,0.000,0.0119982,7488.039,7500.000,0.388,1.980,420.213,-29.687,6832.521,6832.540,-10.905,-0.047,0.498,-0.003,-0.022,0.021,0.000,0.000,0.000,0.000,0.693,-0.003,0.721,0.0000000,0.0000000,6829.597,0.000,0.000,0.000,0,00:00:00,0,0.000,0.000,0.000,0.000,0.000,0.000,0.000,0.000,0.000,0.000,0.000,0.000,0.000,0.000
54.905,3,0,-2.627,-0.084,6844.640,-2.020,-0.162,118.779,-0.753,0.035,-10.924,0.000,0.000,0.0119982,7487.776,7500.000,0.384,2.326,419.505,-29.767,6844.550,6844.570,-10.944,0.099,0.350,0.017,0.003,-0.028,0.000,0.000,0.000,0.002,0.694,-0.002,0.720,0.0000000,0.0000000,6841.588,0.000,0.000,0.000,0,00:00:00,0,0.000,0.000,0.000,0.000,0.000,0.000,0.000,0.000,0.000,0.000,0.000,0.000,0.000,0.000
55.006,3,0,-2.561,-0.090,6856.565,-1.924,-0.141,117.645,-0.401,0.158,-11.113,0.000,0.000,0.0119982,7487.835,7500.000,0.381,2.110,418.805,-29.846,6856.454,6856.473,-11.118,0.259,0.112,0.033,0.028,0.009,0.000,0.000,0.000,0.006,0.698,-0.000,0.716,0.0000000,0.0000000,6853.470,0.000,0.000,0.000,0,00:00:00,0,0.000,0.000,0.000,0.000,0.000,0.000,0.000,0.000,0.000,0.000,0.000,0.000,0.000,0.000
55.107,3,0,-2.493,-0.094,6868.400,-1.862,-0.136,116.548,-0.696,0.004,-10.928,0.000,0.000,0.0119982,7487.775,7500.000,0.377,1.496,418.101,-29.922,6868.432,6868.452,-10.943,0.119,0.380,0.018,0.013,0.007,0.000,0.000,0.000,0.007,0.697,-0.000,0.717,0.0000000,0.0000000,6865.242,0.000,0.000,0.000,0,00:00:00,0,0.000,0.000,0.000,0.000,0.000,0.000,0.000,0.000,0.000,0.000,0.000,0.000,0.000,0.000
55.208,3,0,-2.427,-0.099,6880.006,-1.807,-0.172,115.181,-0.728,-0.403,-12.794,35.000,0.000,0.0119982,7490.329,7500.000,0.374,1.658,417.460,-29.998,6879.371,6879.391,-12.814,-0.230,0.353,0.030,-0.000,-0.003,0.000,0.000,0.000,0.008,0.697,-0.002,0.717,0.0000000,0.0000000,6876.875,0.000,0.000,0.000,0,00:00:00,0,0.000,0.000,0.000,0.000,0.000,0.000,0.000,0.000,0.000,0.000,0.000,0.000,0.000,0.000
55.309,3,0,-2.362,-0.108,6889.867,-1.755,-0.210,112.613,-0.728,-0.441,-12.792,0.000,0.000,0.0119982,7487.480,7500.000,0.369,1.657,417.460,-29.998,6879.371,6879.391,-12.814,-0.230,0.353,0.030,-0.000,-0.003,0.000,0.000,0.000,0.009,0.697,-0.003,0.717,0.0000000,0.0000000,6876.875,0.000,0.000,0.000,0,00:00:00,0,0.000,0.000,0.000,0.000,0.000,0.000,0.000,0.000,0.000,0.000,0.000,0.000,0.000,0.000
55.410,3,0,-2.300,-0.117,6901.353,-1.718,-0.223,111.624,-0.849,-0.184,-11.046,0.000,0.000,0.0119982,7470.091,7500.000,0.361,1.657,416.113,-30.148,6902.372,6902.392,-11.070,0.011,0.482,0.012,0.015,-0.003,0.000,0.000,0.000,0.009,0.695,-0.004,0.719,0.0000000,0.0000000,6899.832,0.000,0.000,0.000,0,00:00:00,0,0.000,0.000,0.000,0.000,0.000,0.000,0.000,0.000,0.000,0.000,0.000,0.000,0.000,0.000
55.511,3,0,-2.239,-0.127,6912.793,-1.668,-0.229,110.699,-0.682,-0.131,-10.791,0.000,0.000,0.0119982,7473.565,7500.000,0.358,1.894,415.426,-30.225,6914.128,6914.148,-10.808,0.086,0.336,0.024,0.003,0.007,0.000,0.000,0.000,0.010,0.696,-0.005,0.718,0.0000000,0.0000000,6911.147,0.000,0.000,0.000,0,00:00:00,0,0.000,0.000,0.000,0.000,0.000,0.000,0.000,0.000,0.000,0.000,0.000,0.000,0.000,0.000
55.612,3,0,-2.179,-0.136,6922.549,-1.621,-0.238,108.586,-0.676,-0.157,-10.791,0.000,0.000,0.0119982,7475.645,7500.000,0.355,1.829,415.426,-30.225,6914.128,6914.148,-10.808,0.086,0.336,0.024,0.003,0.007,0.000,0.000,0.000,0.011,0.696,-0.005,0.718,0.0000000,0.0000000,6911.147,0.000,0.000,0.000,0,00:00:00,0,0.000,0.000,0.000,0.000,0.000,0.000,0.000,0.000,0.000,0.000,0.000,0.000,0.000,0.000
55.713,3,0,-2.120,-0.147,6933.849,-1.566,-0.264,107.777,-0.578,-0.334,-10.873,0.000,0.000,0.0119982,7463.854,7500.000,0.348,1.795,414.139,-30.371,6936.206,6936.226,-10.889,-0.085,0.280,0.002,0.026,-0.013,0.000,0.000,0.000,0.008,0.697,-0.008,0.717,0.0000000,0.0000000,6933.454,0.000,0.000,0.000,0,00:00:00,0,0.000,0.000,0.000,0.000,0.000,0.000,0.000,0.000,0.000,0.000,0.000,0.000,0.000,0.000
55.814,3,0,-2.062,-0.158,6945.084,-1.504,-0.284,106.971,-0.465,-0.279,-10.982,0.000,0.000,0.0119982,7467.043,7500.000,0.346,1.569,413.478,-30.440,6947.556,6947.576,-10.994,-0.045,0.198,-0.017,-0.012,-0.030,0.000,0.000,0.000,0.006,0.698,-0.009,0.716,0.0000000,0.0000000,6944.445,0.000,0.000,0.000,0,00:00:00,0,0.000,0.000,0.000,0.000,0.000,0.000,0.000,0.000,0.000,0.000,0.000,0.000,0.000,0.000
55.915,3,0,-2.005,-0.170,6956.183,-1.475,-0.300,106.164,-0.772,-0.252,-10.575,0.000,0.000,0.0119982,7470.141,7500.000,0.343,1.397,412.854,-30.513,6958.305,6958.325,-10.598,-0.004,0.420,0.021,-0.026,0.006,0.000,0.000,0.000,0.008,0.695,-0.009,0.719,0.0000000,0.0000000,6955.328,0.000,0.000,0.000,0,00:00:00,0,0.000,0.000,0.000,0.000,0.000,0.000,0.000,0.000,0.000,0.000,0.000,0.000,0.000,0.000
56.016,3,0,-1.950,-0.183,6967.169,-1.453,-0.332,105.338,-0.803,-0.410,-10.521,0.000,0.000,0.0119982,7475.339,7500.000,0.341,1.908,412.227,-30.585,6969.093,6969.113,-10.550,-0.191,0.423,-0.029,0.006,0.018,0.000,0.000,0.000,0.004,0.694,-0.010,0.720,0.0000000,0.0000000,6966.103,0.000,0.000,0.000,0,00:00:00,0,0.000,0.000,0.000,0.000,0.000,0.000,0.000,0.000,0.000,0.000,0.000,0.000,0.000,0.000
56.117,3,0,-1.899,-0.198,6977.999,-1.420,-0.366,104.437,-0.670,-0.449,-10.737,0.000,0.000,0.0119982,7478.137,7500.000,0.338,2.086,411.625,-30.654,6979.484,6979.504,-10.761,-0.204,0.324,0.021,0.010,0.009,0.000,0.000,0.000,0.003,0.695,-0.013,0.718,0.0000000,0.0000000,6976.771,0.000,0.000,0.000,0,00:00:00,0,0.000,0.000,0.000,0.000,0.000,0.000,0.000,0.000,0.000,0.000,0.000,0.000,0.000,0.000
56.218,3,0,-1.849,-0.214,6988.752,-1.388,-0.391,103.557,-0.659,-0.357,-10.630,0.000,0.000,0.0119982,7480.287,7500.000,0.335,1.877,410.997,-30.723,6990.324,6990.344,-10.651,-0.134,0.326,-0.018,-0.000,0.004,0.000,0.000,0.000,0.003,0.696,-0.012,0.718,0.0000000,0.0000000,6987.332,0.000,0.000,0.000,0,00:00:00,0,0.000,0.000,0.000,0.000,0.000,0.000,0.000,0.000,0.000,0.000,0.000,0.000,0.000,0.000
56.319,3,0,-1.801,-0.230,6999.400,-1.352,-0.408,102.664,-0.589,-0.289,-10.638,0.000,0.000,0.0119982,7482.462,7500.000,0.332,1.815,410.387,-30.791,7000.868,7000.888,-10.655,-0.038,0.279,0.028,-0.007,-0.000,0.000,0.000,0.000,0.005,0.697,-0.011,0.717,0.0000000,0.0000000,6997.786,0.000,0.000,0.000,0,00:00:00,0,0.000,0.000,0.000,0.000,0.000,0.000,0.000,0.000,0.000,0.000,0.000,0.000,0.000,0.000
56.420,3,0,-1.754,-0.247,7009.957,-1.314,-0.428,101.763,-0.548,-0.331,-10.721,0.000,0.000,0.0119982,7484.428,7500.000,0.330,1.680,409.777,-30.859,7011.428,7011.448,-10.736,-0.123,0.262,-0.041,-0.003,-0.001,0.000,0.000,0.000,0.003,0.697,-0.010,0.717,0.0000000,0.0000000,7008.132,0.000,0.000,0.000,0,00:00:00,0,0.000,0.000,0.000,0.000,0.000,0.000,0.000,0.000,0.000,0.000,0.000,0.000,0.000,0.000
56.521,3,0,-1.708,-0.264,7020.314,-1.284,-0.443,100.797,-0.602,-0.277,-10.543,0.000,0.000,0.0119982,7486.208,7500.000,0.327,1.546,409.218,-30.927,7021.107,7021.127,-10.559,-0.055,0.299,0.016,-0.026,-0.008,0.000,0.000,0.000,0.004,0.697,-0.010,0.717,0.0000000,0.0000000,7018.373,0.000,0.000,0.000,0,00:00:00,0,0.000,0.000,0.000,0.000,0.000,0.000,0.000,0.000,0.000,0.000,0.000,0.000,0.000,0.000
56.622,3,0,-1.663,-0.278,7030.597,-1.225,-0.420,99.835,-0.295,0.073,-10.688,0.000,0.000,0.0119982,7489.630,7500.000,0.324,1.659,408.617,-30.992,7031.544,7031.563,-10.687,0.316,0.099,0.020,0.014,0.018,0.000,0.000,0.000,0.012,0.700,-0.004,0.714,0.0000000,0.0000000,7028.506,0.000,0.000,0.000,0,00:00:00,0,0.000,0.000,0.000,0.000,0.000,0.000,0.000,0.000,0.000,0.000,0.000,0.000,0.000,0.000
56.723,3,0,-1.616,-0.290,7039.356,-1.164,-0.400,97.806,-0.238,0.052,-10.690,35.000,0.000,0.0119982,7491.131,7500.000,0.321,1.055,408.617,-30.992,7031.544,7031.563,-10.687,0.316,0.099,0.020,0.014,0.018,0.000,0.000,0.000,0.016,0.702,-0.001,0.712,0.0000000,0.0000000,7028.506,0.000,0.000,0.000,0,00:00:00,0,0.000,0.000,0.000,0.000,0.000,0.000,0.000,0.000,0.000,0.000,0.000,0.000,0.000,0.000
56.824,3,0,-1.570,-0.299,7049.470,-1.154,-0.400,96.952,-0.726,-0.160,-10.598,0.000,0.000,0.0119982,7480.875,7500.000,0.314,0.753,407.484,-31.122,7051.227,7051.246,-10.614,0.094,0.437,-0.000,0.002,0.013,0.000,0.000,0.000,0.014,0.697,-0.003,0.717,0.0000000,0.0000000,7048.418,0.000,0.000,0.000,0,00:00:00,0,0.000,0.000,0.000,0.000,0.000,0.000,0.000,0.000,0.000,0.000,0.000,0.000,0.000,0.000
56.925,3,0,-1.528,-0.308,7058.092,-1.153,-0.400,95.049,-0.799,-0.159,-10.592,0.000,0.000,0.0119982,7482.690,7500.000,0.311,1.549,407.484,-31.122,7051.227,7051.246,-10.614,0.094,0.437,-0.000,0.002,0.013,0.000,0.000,0.000,0.013,0.695,-0.004,0.719,0.0000000,0.0000000,7048.418,0.000,0.000,0.000,0,00:00:00,0,0.000,0.000,0.000,0.000,0.000,0.000,0.000,0.000,0.000,0.000,0.000,0.000,0.000,0.000
57.026,3,0,-1.491,-0.316,7068.085,-1.156,-0.412,94.322,-0.817,-0.285,-10.496,0.000,0.000,0.0119982,7475.967,7500.000,0.305,1.947,406.360,-31.251,7070.803,7070.823,-10.523,-0.017,0.429,0.014,0.012,0.007,0.000,0.000,0.000,0.011,0.694,-0.007,0.720,0.0000000,0.0000000,7067.913,0.000,0.000,0.000,0,00:00:00,0,0.000,0.000,0.000,0.000,0.000,0.000,0.000,0.000,0.000,0.000,0.000,0.000,0.000,0.000
57.127,3,0,-1.457,-0.324,7077.965,-1.164,-0.416,93.577,-0.846,-0.209,-10.389,0.000,0.000,0.0119982,7479.361,7500.000,0.303,2.107,405.808,-31.313,7080.441,7080.460,-10.416,0.011,0.425,-0.044,-0.032,-0.002,0.000,0.000,0.000,0.009,0.693,-0.006,0.721,0.0000000,0.0000000,7077.502,0.000,0.000,0.000,0,00:00:00,0,0.000,0.000,0.000,0.000,0.000,0.000,0.000,0.000,0.000,0.000,0.000,0.000,0.000,0.000
57.228,3,0,-1.427,-0.332,7087.738,-1.166,-0.429,92.794,-0.764,-0.306,-10.521,0.000,0.000,0.0119982,7482.437,7500.000,0.301,2.314,405.259,-31.373,7090.020,7090.040,-10.547,-0.072,0.361,0.009,-0.020,0.006,0.000,0.000,0.000,0.007,0.693,-0.008,0.720,0.0000000,0.0000000,7086.986,0.000,0.000,0.000,0,00:00:00,0,0.000,0.000,0.000,0.000,0.000,0.000,0.000,0.000,0.000,0.000,0.000,0.000,0.000,0.000
57.329,3,0,-1.399,-0.340,7097.349,-1.151,-0.431,91.953,-0.589,-0.203,-10.488,0.000,0.000,0.0119982,7485.260,7500.000,0.298,2.195,404.739,-31.438,7099.122,7099.142,-10.503,0.026,0.263,-0.003,0.012,-0.009,0.000,0.000,0.000,0.008,0.696,-0.008,0.718,0.0000000,0.0000000,7096.365,0.000,0.000,0.000,0,00:00:00,0,0.000,0.000,0.000,0.000,0.000,0.000,0.000,0.000,0.000,0.000,0.000,0.000,0.000,0.000
57.430,3,0,-1.372,-0.348,7106.851,-1.133,-0.436,91.092,-0.539,-0.231,-10.513,0.000,0.000,0.0119982,7487.531,7500.000,0.296,1.780,404.204,-31.497,7108.480,7108.500,-10.526,0.010,0.253,0.011,0.008,0.010,0.000,0.000,0.000,0.008,0.697,-0.008,0.717,0.0000000,0.0000000,7105.638,0.000,0.000,0.000,0,00:00:00,0,0.000,0.000,0.000,0.000,0.000,0.000,0.000,0.000,0.000,0.000,0.000,0.000,0.000,0.000
57.531,3,0,-1.346,-0.356,7116.267,-1.109,-0.441,90.217,-0.471,-0.240,-10.660,0.000,0.000,0.0119982,7489.384,7500.000,0.293,1.557,403.666,-31.557,7117.899,7117.919,-10.671,0.013,0.230,0.008,0.037,-0.012,0.000,0.000,0.000,0.008,0.699,-0.008,0.715,0.0000000,0.0000000,7114.807,0.000,0.000,0.000,0,00:00:00,0,0.000,0.000,0.000,0.000,0.000,0.000,0.000,0.000,0.000,0.000,0.000,0.000,0.000,0.000
57.632,3,0,-1.321,-0.363,7125.523,-1.115,-0.449,89.182,-0.761,-0.268,-11.764,35.000,0.000,0.0119982,7493.584,7500.000,0.290,1.291,403.161,-31.617,7126.759,7126.779,-11.780,-0.010,0.510,-0.017,0.012,-0.001,0.000,0.000,0.000,0.008,0.699,-0.008,0.715,0.0000000,0.0000000,7123.853,0.000,0.000,0.000,0,00:00:00,0,0.000,0.000,0.000,0.000,0.000,0.000,0.000,0.000,0.000,0.000,0.000,0.000,0.000,0.000
57.733,3,0,-1.299,-0.371,7134.737,-1.102,-0.462,88.210,-0.554,-0.323,-11.588,35.000,0.000,0.0119982,7494.011,7500.000,0.287,1.220,402.615,-31.675,7136.346,7136.365,-11.601,-0.053,0.316,0.014,0.014,0.014,0.000,0.000,0.000,0.009,0.700,-0.008,0.714,0.0000000,0.0000000,7132.782,0.000,0.000,0.000,0,00:00:00,0,0.000,0.000,0.000,0.000,0.000,0.000,0.000,0.000,0.000,0.000,0.000,0.000,0.000,0.000
57.834,3,0,-1.277,-0.379,7143.759,-1.091,-0.471,87.156,-0.560,-0.283,-11.717,35.000,0.000,0.0119982,7494.918,7500.000,0.284,1.175,402.134,-31.733,7144.802,7144.822,-11.730,-0.027,0.280,-0.014,-0.033,0.015,0.000,0.000,0.000,0.009,0.699,-0.007,0.715,0.0000000,0.0000000,7141.596,0.000,0.000,0.000,0,00:00:00,0,0.000,0.000,0.000,0.000,0.000,0.000,0.000,0.000,0.000,0.000,0.000,0.000,0.000,0.000
57.935,3,0,-1.258,-0.387,7152.601,-1.100,-0.488,86.076,-0.752,-0.374,-11.406,35.000,0.000,0.0119982,7494.853,7500.000,0.280,1.365,401.658,-31.789,7153.174,7153.194,-11.426,-0.156,0.468,-0.030,0.022,-0.023,0.000,0.000,0.000,0.006,0.698,-0.008,0.716,0.0000000,0.0000000,7150.295,0.000,0.000,0.000,0,00:00:00,0,0.000,0.000,0.000,0.000,0.000,0.000,0.000,0.000,0.000,0.000,0.000,0.000,0.000,0.000
58.036,3,0,-1.241,-0.395,7161.346,-1.111,-0.486,84.996,-0.763,-0.191,-11.505,35.000,0.000,0.0119982,7494.416,7500.000,0.277,1.428,401.157,-31.846,7162.001,7162.020,-11.523,0.016,0.441,-0.009,-0.016,0.019,0.000,0.000,0.000,0.006,0.697,-0.006,0.717,0.0000000,0.0000000,7158.879,0.000,0.000,0.000,0,00:00:00,0,0.000,0.000,0.000,0.000,0.000,0.000,0.000,0.000,0.000,0.000,0.000,0.000,0.000,0.000
58.137,3,0,-1.227,-0.402,7169.892,-1.135,-0.482,83.862,-0.884,-0.173,-11.373,35.000,0.000,0.0119982,7496.393,7500.000,0.273,1.601,400.704,-31.902,7169.994,7170.014,-11.396,0.033,0.530,-0.002,0.003,-0.045,0.000,0.000,0.000,0.005,0.696,-0.008,0.718,0.0000000,0.0000000,7167.349,0.000,0.000,0.000,0,00:00:00,0,0.000,0.000,0.000,0.000,0.000,0.000,0.000,0.000,0.000,0.000,0.000,0.000,0.000,0.000
58.238,3,0,-1.216,-0.408,7178.363,-1.129,-0.473,82.767,-0.572,-0.119,-11.274,35.000,0.000,0.0119982,7495.667,7500.000,0.270,1.783,400.210,-31.959,7178.699,7178.719,-11.286,0.077,0.238,-0.007,-0.014,-0.018,0.000,0.000,0.000,0.005,0.697,-0.007,0.717,0.0000000,0.0000000,7175.704,0.000,0.000,0.000,0,00:00:00,0,0.000,0.000,0.000,0.000,0.000,0.000,0.000,0.000,0.000,0.000,0.000,0.000,0.000,0.000
58.339,3,0,-1.204,-0.413,7185.551,-1.121,-0.462,80.796,-0.561,-0.111,-11.274,35.000,0.000,0.0119982,7495.262,7500.000,0.266,1.702,400.210,-31.959,7178.699,7178.719,-11.286,0.077,0.238,-0.007,-0.014,-0.018,0.000,0.000,0.000,0.005,0.697,-0.006,0.717,0.0000000,0.0000000,7175.704,0.000,0.000,0.000,0,00:00:00,0,0.000,0.000,0.000,0.000,0.000,0.000,0.000,0.000,0.000,0.000,0.000,0.000,0.000,0.000
58.440,3,0,-1.193,-0.417,7193.885,-1.109,-0.470,79.899,-0.501,-0.301,-10.567,0.000,0.000,0.0119982,7486.420,7500.000,0.260,1.641,399.273,-32.062,7195.260,7195.280,-10.580,-0.110,0.232,0.013,-0.008,0.002,0.000,0.000,0.000,0.004,0.698,-0.008,0.716,0.0000000,0.0000000,7192.090,0.000,0.000,0.000,0,00:00:00,0,0.000,0.000,0.000,0.000,0.000,0.000,0.000,0.000,0.000,0.000,0.000,0.000,0.000,0.000
58.541,3,0,-1.183,-0.420,7202.004,-1.112,-0.460,78.951,-0.654,-0.124,-10.138,0.000,0.000,0.0119982,7489.998,7500.000,0.257,1.470,398.858,-32.118,7202.607,7202.627,-10.154,0.083,0.350,0.025,0.001,-0.004,0.000,0.000,0.000,0.007,0.696,-0.007,0.718,0.0000000,0.0000000,7200.131,0.000,0.000,0.000,0,00:00:00,0,0.000,0.000,0.000,0.000,0.000,0.000,0.000,0.000,0.000,0.000,0.000,0.000,0.000,0.000
58.642,3,0,-1.174,-0.423,7210.101,-1.116,-0.464,77.947,-0.662,-0.254,-11.269,35.000,0.000,0.0119982,7490.757,7500.000,0.254,1.718,398.373,-32.169,7211.187,7211.207,-11.286,-0.019,0.331,0.003,0.006,-0.015,0.000,0.000,0.000,0.007,0.697,-0.008,0.717,0.0000000,0.0000000,7208.055,0.000,0.000,0.000,0,00:00:00,0,0.000,0.000,0.000,0.000,0.000,0.000,0.000,0.000,0.000,0.000,0.000,0.000,0.000,0.000
58.743,3,0,-1.166,-0.426,7216.976,-1.121,-0.467,76.107,-0.656,-0.259,-11.269,35.000,0.000,0.0119982,7491.150,7500.000,0.251,1.682,398.373,-32.169,7211.187,7211.207,-11.286,-0.019,0.331,0.003,0.006,-0.015,0.000,0.000,0.000,0.007,0.697,-0.008,0.717,0.0000000,0.0000000,7208.055,0.000,0.000,0.000,0,00:00:00,0,0.000,0.000,0.000,0.000,0.000,0.000,0.000,0.000,0.000,0.000,0.000,0.000,0.000,0.000
58.844,3,0,-1.159,-0.428,7224.909,-1.111,-0.463,75.303,-0.510,-0.179,-10.157,0.000,0.000,0.0119982,7483.859,7500.000,0.245,1.655,397.498,-32.269,7226.717,7226.736,-10.168,0.007,0.255,-0.029,0.037,-0.004,0.000,0.000,0.000,0.006,0.698,-0.007,0.716,0.0000000,0.0000000,7223.580,0.000,0.000,0.000,0,00:00:00,0,0.000,0.000,0.000,0.000,0.000,0.000,0.000,0.000,0.000,0.000,0.000,0.000,0.000,0.000
58.945,3,0,-1.153,-0.430,7232.736,-1.143,-0.458,74.478,-0.929,-0.181,-10.193,0.000,0.000,0.0119982,7485.663,7500.000,0.243,1.440,397.065,-32.318,7234.395,7234.415,-10.224,0.041,0.530,0.038,-0.012,0.027,0.000,0.000,0.000,0.009,0.693,-0.007,0.721,0.0000000,0.0000000,7231.190,0.000,0.000,0.000,0,00:00:00,0,0.000,0.000,0.000,0.000,0.000,0.000,0.000,0.000,0.000,0.000,0.000,0.000,0.000,0.000
59.046,3,0,-1.150,-0.432,7240.435,-1.154,-0.466,73.619,-0.714,-0.306,-10.197,0.000,0.000,0.0119982,7489.501,7500.000,0.240,2.236,396.648,-32.367,7241.821,7241.841,-10.220,-0.087,0.334,-0.008,-0.029,-0.025,0.000,0.000,0.000,0.006,0.694,-0.009,0.720,0.0000000,0.0000000,7238.698,0.000,0.000,0.000,0,00:00:00,0,0.000,0.000,0.000,0.000,0.000,0.000,0.000,0.000,0.000,0.000,0.000,0.000,0.000,0.000
59.147,3,0,-1.147,-0.434,7248.012,-1.140,-0.450,72.642,-0.460,-0.067,-11.139,35.000,0.000,0.0119982,7491.025,7500.000,0.237,2.137,396.232,-32.415,7249.207,7249.227,-11.147,0.148,0.151,-0.021,0.030,-0.014,0.000,0.000,0.000,0.007,0.697,-0.007,0.717,0.0000000,0.0000000,7246.091,0.000,0.000,0.000,0,00:00:00,0,0.000,0.000,0.000,0.000,0.000,0.000,0.000,0.000,0.000,0.000,0.000,0.000,0.000,0.000
59.248,3,0,-1.143,-0.433,7254.442,-1.118,-0.431,70.882,-0.387,-0.044,-11.142,35.000,0.000,0.0119982,7491.692,7500.000,0.234,1.586,396.232,-32.415,7249.207,7249.227,-11.147,0.148,0.151,-0.021,0.030,-0.014,0.000,0.000,0.000,0.007,0.700,-0.005,0.715,0.0000000,0.0000000,7246.091,0.000,0.000,0.000,0,00:00:00,0,0.000,0.000,0.000,0.000,0.000,0.000,0.000,0.000,0.000,0.000,0.000,0.000,0.000,0.000
59.349,3,0,-1.138,-0.431,7261.812,-1.125,-0.411,70.039,-0.671,-0.032,-10.290,0.000,0.000,0.0119982,7485.432,7500.000,0.228,1.210,395.435,-32.512,7263.408,7263.428,-10.305,0.120,0.369,-0.023,-0.017,-0.027,0.000,0.000,0.000,0.007,0.697,-0.003,0.717,0.0000000,0.0000000,7260.559,0.000,0.000,0.000,0,00:00:00,0,0.000,0.000,0.000,0.000,0.000,0.000,0.000,0.000,0.000,0.000,0.000,0.000,0.000,0.000
59.450,3,0,-1.134,-0.428,7269.153,-1.111,-0.395,69.247,-0.452,-0.063,-10.199,0.000,0.000,0.0119982,7486.578,7500.000,0.226,1.679,395.004,-32.560,7271.089,7271.109,-10.206,0.108,0.212,0.022,0.032,0.049,0.000,0.000,0.000,0.010,0.699,-0.002,0.715,0.0000000,0.0000000,7267.642,0.000,0.000,0.000,0,00:00:00,0,0.000,0.000,0.000,0.000,0.000,0.000,0.000,0.000,0.000,0.000,0.000,0.000,0.000,0.000
59.551,3,0,-1.130,-0.424,7276.303,-1.142,-0.403,68.313,-0.907,-0.306,-10.813,35.000,0.000,0.0119982,7490.904,7500.000,0.223,1.341,394.641,-32.606,7277.578,7277.598,-10.842,-0.091,0.528,0.027,0.003,-0.036,0.000,0.000,0.000,0.007,0.695,-0.007,0.719,0.0000000,0.0000000,7274.612,0.000,0.000,0.000,0,00:00:00,0,0.000,0.000,0.000,0.000,0.000,0.000,0.000,0.000,0.000,0.000,0.000,0.000,0.000,0.000
59.652,3,0,-1.130,-0.421,7283.377,-1.167,-0.408,67.383,-0.836,-0.269,-10.912,35.000,0.000,0.0119982,7491.554,7500.000,0.220,2.005,394.238,-32.649,7284.767,7284.786,-10.939,-0.044,0.432,0.010,-0.001,0.049,0.000,0.000,0.000,0.008,0.694,-0.007,0.720,0.0000000,0.0000000,7281.473,0.000,0.000,0.000,0,00:00:00,0,0.000,0.000,0.000,0.000,0.000,0.000,0.000,0.000,0.000,0.000,0.000,0.000,0.000,0.000
59.753,3,0,-1.132,-0.419,7289.378,-1.192,-0.414,65.721,-0.848,-0.278,-10.911,35.000,0.000,0.0119982,7492.279,7500.000,0.217,2.115,394.238,-32.649,7284.767,7284.786,-10.939,-0.044,0.432,0.010,-0.001,0.049,0.000,0.000,0.000,0.008,0.693,-0.007,0.720,0.0000000,0.0000000,7281.473,0.000,0.000,0.000,0,00:00:00,0,0.000,0.000,0.000,0.000,0.000,0.000,0.000,0.000,0.000,0.000,0.000,0.000,0.000,0.000
59.854,3,0,-1.136,-0.418,7294.394,-1.218,-0.421,63.449,-0.855,-0.287,-10.910,0.000,0.000,0.0119982,7486.971,7500.000,0.212,2.179,394.238,-32.649,7284.767,7284.786,-10.939,-0.044,0.432,0.010,-0.001,0.049,0.000,0.000,0.000,0.009,0.693,-0.007,0.721,0.0000000,0.0000000,7281.473,0.000,0.000,0.000,0,00:00:00,0,0.000,0.000,0.000,0.000,0.000,0.000,0.000,0.000,0.000,0.000,0.000,0.000,0.000,0.000
59.955,3,0,-1.141,-0.418,7301.278,-1.220,-0.431,62.818,-0.616,-0.320,-10.152,0.000,0.000,0.0119982,7479.518,7500.000,0.205,2.216,393.136,-32.780,7304.494,7304.514,-10.172,-0.091,0.280,0.001,-0.001,-0.002,0.000,0.000,0.000,0.007,0.695,-0.009,0.719,0.0000000,0.0000000,7301.434,0.000,0.000,0.000,0,00:00:00,0,0.000,0.000,0.000,0.000,0.000,0.000,0.000,0.000,0.000,0.000,0.000,0.000,0.000,0.000
60.056,3,0,-1.145,-0.418,7308.003,-1.214,-0.425,62.126,-0.542,-0.156,-10.044,0.000,0.000,0.0119982,7482.488,7500.000,0.203,1.900,392.793,-32.822,7310.632,7310.652,-10.056,0.030,0.264,-0.039,0.039,0.008,0.000,0.000,0.000,0.006,0.697,-0.007,0.717,0.0000000,0.0000000,7307.885,0.000,0.000,0.000,0,00:00:00,0,0.000,0.000,0.000,0.000,0.000,0.000,0.000,0.000,0.000,0.000,0.000,0.000,0.000,0.000
60.157,3,0,-1.148,-0.417,7314.682,-1.198,-0.413,61.437,-0.446,-0.109,-10.193,0.000,0.000,0.0119982,7484.897,7500.000,0.200,1.588,392.412,-32.864,7317.460,7317.480,-10.201,0.036,0.207,-0.042,0.013,-0.009,0.000,0.000,0.000,0.005,0.699,-0.005,0.715,0.0000000,0.0000000,7314.236,0.000,0.000,0.000,0,00:00:00,0,0.000,0.000,0.000,0.000,0.000,0.000,0.000,0.000,0.000,0.000,0.000,0.000,0.000,0.000
60.258,3,0,-1.150,-0.415,7321.253,-1.197,-0.401,60.730,-0.594,-0.094,-10.095,0.000,0.000,0.0119982,7487.253,7500.000,0.198,1.340,392.059,-32.905,7323.794,7323.814,-10.107,0.060,0.324,0.011,0.019,0.016,0.000,0.000,0.000,0.007,0.698,-0.004,0.716,0.0000000,0.0000000,7320.485,0.000,0.000,0.000,0,00:00:00,0,0.000,0.000,0.000,0.000,0.000,0.000,0.000,0.000,0.000,0.000,0.000,0.000,0.000,0.000
60.359,3,0,-1.152,-0.413,7327.680,-1.206,-0.402,59.973,-0.699,-0.226,-10.039,0.000,0.000,0.0119982,7489.304,7500.000,0.196,1.532,391.726,-32.945,7329.771,7329.791,-10.059,-0.039,0.379,0.033,0.007,-0.016,0.000,0.000,0.000,0.006,0.696,-0.007,0.718,0.0000000,0.0000000,7326.633,0.000,0.000,0.000,0,00:00:00,0,0.000,0.000,0.000,0.000,0.000,0.000,0.000,0.000,0.000,0.000,0.000,0.000,0.000,0.000
60.460,3,0,-1.154,-0.411,7333.985,-1.213,-0.406,59.118,-0.670,-0.254,-10.702,35.000,0.000,0.0119982,7490.873,7500.000,0.193,1.826,391.389,-32.986,7335.824,7335.844,-10.721,-0.027,0.332,0.025,-0.004,0.002,0.000,0.000,0.000,0.007,0.696,-0.008,0.718,0.0000000,0.0000000,7332.672,0.000,0.000,0.000,0,00:00:00,0,0.000,0.000,0.000,0.000,0.000,0.000,0.000,0.000,0.000,0.000,0.000,0.000,0.000,0.000
60.561,3,0,-1.158,-0.409,7340.127,-1.225,-0.396,58.218,-0.735,-0.117,-10.579,35.000,0.000,0.0119982,7494.397,7500.000,0.191,1.810,391.075,-33.022,7341.487,7341.507,-10.598,0.111,0.381,0.004,0.006,-0.012,0.000,0.000,0.000,0.009,0.695,-0.006,0.719,0.0000000,0.0000000,7338.604,0.000,0.000,0.000,0,00:00:00,0,0.000,0.000,0.000,0.000,0.000,0.000,0.000,0.000,0.000,0.000,0.000,0.000,0.000,0.000
60.662,3,0,-1.162,-0.407,7345.330,-1.239,-0.386,56.684,-0.746,-0.120,-10.578,35.000,0.000,0.0119982,7495.237,7500.000,0.188,1.917,391.075,-33.022,7341.487,7341.507,-10.598,0.111,0.381,0.004,0.006,-0.012,0.000,0.000,0.000,0.010,0.695,-0.006,0.719,0.0000000,0.0000000,7338.604,0.000,0.000,0.000,0,00:00:00,0,0.000,0.000,0.000,0.000,0.000,0.000,0.000,0.000,0.000,0.000,0.000,0.000,0.000,0.000
60.763,3,0,-1.168,-0.404,7350.490,-1.273,-0.386,55.237,-0.953,-0.209,-10.539,35.000,0.000,0.0119982,7491.427,7500.000,0.183,1.970,390.750,-33.060,7347.330,7347.350,-10.572,0.039,0.507,0.017,-0.021,0.005,0.000,0.000,0.000,0.010,0.692,-0.007,0.722,0.0000000,0.0000000,7344.431,0.000,0.000,0.000,0,00:00:00,0,0.000,0.000,0.000,0.000,0.000,0.000,0.000,0.000,0.000,0.000,0.000,0.000,0.000,0.000
60.864,3,0,-1.176,-0.402,7356.439,-1.305,-0.400,54.559,-0.936,-0.352,-9.823,0.000,0.000,0.0119982,7487.994,7500.000,0.178,2.417,390.102,-33.133,7359.001,7359.021,-9.860,-0.138,0.499,-0.022,0.037,0.005,0.000,0.000,0.000,0.006,0.691,-0.009,0.723,0.0000000,0.0000000,7355.776,0.000,0.000,0.000,0,00:00:00,0,0.000,0.000,0.000,0.000,0.000,0.000,0.000,0.000,0.000,0.000,0.000,0.000,0.000,0.000
60.965,3,0,-1.186,-0.401,7362.257,-1.321,-0.416,53.826,-0.778,-0.363,-9.902,0.000,0.000,0.0119982,7489.935,7500.000,0.176,2.551,389.801,-33.170,7364.433,7364.453,-9.932,-0.110,0.371,0.036,-0.009,-0.018,0.000,0.000,0.000,0.006,0.692,-0.012,0.721,0.0000000,0.0000000,7361.298,0.000,0.000,0.000,0,00:00:00,0,0.000,0.000,0.000,0.000,0.000,0.000,0.000,0.000,0.000,0.000,0.000,0.000,0.000,0.000
61.066,3,0,-1.196,-0.403,7367.196,-1.334,-0.435,52.492,-0.761,-0.400,-9.902,35.000,0.000,0.0119982,7494.255,7500.000,0.174,2.371,389.801,-33.170,7364.433,7364.453,-9.932,-0.110,0.371,0.036,-0.009,-0.018,0.000,0.000,0.000,0.006,0.693,-0.014,0.721,0.0000000,0.0000000,7361.298,0.000,0.000,0.000,0,00:00:00,0,0.000,0.000,0.000,0.000,0.000,0.000,0.000,0.000,0.000,0.000,0.000,0.000,0.000,0.000
61.167,3,0,-1.207,-0.405,7372.774,-1.356,-0.445,51.694,-0.846,-0.312,-10.337,35.000,0.000,0.0119982,7492.018,7500.000,0.169,2.281,389.228,-33.241,7374.772,7374.792,-10.367,-0.029,0.433,-0.018,0.014,-0.002,0.000,0.000,0.000,0.007,0.693,-0.012,0.721,0.0000000,0.0000000,7372.025,0.000,0.000,0.000,0,00:00:00,0,0.000,0.000,0.000,0.000,0.000,0.000,0.000,0.000,0.000,0.000,0.000,0.000,0.000,0.000
61.268,3,0,-1.217,-0.409,7378.255,-1.351,-0.466,50.895,-0.593,-0.424,-10.218,35.000,0.000,0.0119982,7493.287,7500.000,0.167,2.297,388.930,-33.276,7380.151,7380.171,-10.240,-0.162,0.248,-0.015,-0.041,0.003,0.000,0.000,0.000,0.005,0.695,-0.013,0.719,0.0000000,0.0000000,7377.232,0.000,0.000,0.000,0,00:00:00,0,0.000,0.000,0.000,0.000,0.000,0.000,0.000,0.000,0.000,0.000,0.000,0.000,0.000,0.000
