State - Time (s),State - Stage,State - Stage,State - PX (m),State - PY (m),State - PZ (m),State - VX (m/s),State - VY (m/s),State - VZ (m/s),State - AX (m/s/s),State - AY (m/s/s),State - AZ (m/s/s),State - Actuation Angle (deg),State - Acutal Angle (deg),State - CdA,State - Est Apo (m),State - Target Apogee (m),State - Mach Number,State - Tilt [deg],State - Pos - Accel Integrated [m],State - Velo - Accel Integrated [m/s],MockBarometer - Pres (hPa),MockBarometer - Temp (C),MockBarometer - Alt ASL (m),MockBarometer - Alt AGL (m),MockIMU - AccX (m/s^2),MockIMU - AccY (m/s^2),MockIMU - AccZ (m/s^2),MockIMU - GyroX (rad/s),MockIMU - GyroY (rad/s),MockIMU - GyroZ (rad/s),MockIMU - MagX (uT),MockIMU - MagY (uT),MockIMU - MagZ (uT),MockIMU - OriX,MockIMU - OriY,MockIMU - OriZ,MockIMU - OriW,MockGPS - Lat,MockGPS - Lon,MockGPS - Alt (m),MockGPS - Disp X (m),MockGPS - Disp Y (m),MockGPS - Disp Z (m),MockGPS - Fix Quality,MockGPS - Time of Day,E5 - Rel Steps,MockBR - Battery Voltage (V),MockBR - ALT (m),MockBR - PRES (Pa),MockBR - TEMP (C),MockBR - VEL (m/s),MockBR - ANG (deg),MockBR - ACCX (m/s^2),MockBR - ACCY (m/s^2),MockBR - ACCZ (m/s^2),MockBR - GYROX (rad/s),MockBR - GYROY (rad/s),MockBR - GYROZ (rad/s),MockBR - ROLL (deg),MockBR - TILT (deg)
53.746,1,0,-3.194,7.246,-5.342,-3.237,2.000,0.818,-3.975,-65.061,104.884,0.000,0.000,0.0116870,0.000,9144.000,0.069,-1.083,81.646,22.846,911.259,9.242,885.493,1.987,123.477,1.638,0.049,0.024,0.149,0.029,0.000,0.000,0.000,-0.200,0.691,0.197,0.667,0.0000000,0.0000000,1.847,0.000,0.000,0.000,0,00:00:00,-856,0.000,1.847,91152.781,9.258,12.395,0.000,1.074,123.903,-0.045,0.024,-0.004,0.001,0.000,0.000
53.847,1,0,-3.207,6.449,-3.035,-3.587,-4.566,13.095,-5.153,-61.616,109.230,0.000,0.000,0.0116870,0.000,9144.000,0.102,-1.936,85.023,33.769,910.685,9.208,890.700,7.194,125.516,0.410,-0.060,0.510,-0.010,0.209,0.000,0.000,0.000,-0.175,0.697,0.186,0.670,0.0000000,0.0000000,4.940,0.000,0.000,0.000,0,00:00:00,-856,0.000,4.940,91109.062,9.232,24.881,0.000,0.967,124.882,0.023,-0.011,0.004,-0.005,0.000,0.000
53.948,1,0,-3.250,5.122,-0.020,-3.930,-11.199,24.934,-5.107,-62.974,108.799,0.000,0.000,0.0116870,0.000,9144.000,0.137,-1.923,89.488,44.649,910.710,9.210,890.469,6.963,125.809,0.953,-0.494,-0.162,-0.078,0.198,0.000,0.000,0.000,-0.173,0.695,0.199,0.669,0.0000000,0.0000000,9.286,0.000,0.000,0.000,0,00:00:00,-856,0.000,9.286,91083.242,9.217,37.457,0.000,0.935,125.757,0.034,0.014,-0.012,-0.025,0.000,0.000
54.049,1,0,-3.322,3.326,5.162,-4.305,-17.553,37.822,-5.461,-61.163,112.128,0.000,0.000,0.0116870,0.000,9144.000,0.175,-1.444,95.074,55.861,909.495,9.138,901.496,17.990,127.834,1.338,0.212,0.223,-0.034,-0.009,0.000,0.000,0.000,-0.165,0.696,0.191,0.672,0.0000000,0.0000000,14.896,0.000,0.000,0.000,0,00:00:00,-856,0.000,14.896,91086.070,9.218,50.122,0.000,0.993,126.702,-0.101,-0.008,0.001,-0.016,0.000,0.000
54.150,1,0,-3.429,1.109,11.203,-4.860,-24.064,50.248,-7.290,-63.886,110.778,0.000,0.000,0.0116870,0.000,9144.000,0.212,-1.308,101.768,66.939,909.123,9.116,904.875,21.369,128.072,-0.556,-1.937,-0.081,0.316,0.063,0.000,0.000,0.000,-0.169,0.706,0.194,0.660,0.0000000,0.0000000,21.777,0.000,0.000,0.000,0,00:00:00,-856,0.000,21.777,90867.672,9.090,62.875,0.000,1.034,127.444,-0.003,-0.006,-0.018,-0.020,0.000,0.000
54.251,1,0,-3.592,-1.488,18.559,-5.737,-30.412,62.874,-10.576,-63.632,112.380,0.000,0.000,0.0116870,0.000,9144.000,0.250,-3.095,109.586,78.177,908.280,9.066,912.542,29.036,129.562,-1.328,1.462,0.124,-0.075,0.095,0.000,0.000,0.000,-0.161,0.706,0.193,0.663,0.0000000,0.0000000,29.939,0.000,0.000,0.000,0,00:00:00,-856,0.000,29.939,90832.156,9.069,75.716,0.000,0.946,128.368,-0.040,-0.004,0.000,-0.002,0.000,0.000
54.352,1,0,-3.819,-4.408,25.985,-6.578,-36.453,74.683,-10.332,-62.135,113.238,0.000,0.000,0.0116870,0.000,9144.000,0.288,-2.707,118.536,89.501,908.280,9.066,912.542,29.036,129.562,-1.328,1.462,0.124,-0.075,0.095,0.000,0.000,0.000,-0.153,0.705,0.192,0.665,0.0000000,0.0000000,29.939,0.000,0.000,0.000,0,00:00:00,-856,0.000,29.939,90832.156,9.069,75.716,0.000,0.946,128.368,-0.040,-0.004,0.000,-0.002,0.000,0.000
54.453,1,0,-4.101,-7.593,36.506,-7.426,-42.196,88.043,-10.553,-60.853,114.561,0.000,0.000,0.0116870,0.000,9144.000,0.326,-2.326,128.631,100.957,905.845,8.922,934.702,51.196,130.145,-0.378,0.868,0.067,0.075,-0.008,0.000,0.000,0.000,-0.151,0.708,0.189,0.663,0.0000000,0.0000000,50.135,0.000,0.000,0.000,0,00:00:00,-856,0.000,50.135,90573.883,8.916,101.651,0.000,0.983,130.092,-0.023,0.002,-0.007,-0.005,0.000,0.000
54.554,1,0,-4.437,-10.993,46.715,-8.338,-47.681,100.192,-11.368,-60.090,114.886,0.000,0.000,0.0116870,0.000,9144.000,0.364,-2.782,139.876,112.446,905.845,8.922,934.702,51.196,130.145,-0.378,0.868,0.067,0.075,-0.008,0.000,0.000,0.000,-0.150,0.711,0.186,0.661,0.0000000,0.0000000,50.135,0.000,0.000,0.000,0,00:00:00,-856,0.000,50.135,90573.883,8.916,101.651,0.000,0.983,130.092,-0.023,0.002,-0.007,-0.005,0.000,0.000
54.655,1,0,-4.825,-14.581,59.533,-9.229,-53.263,113.287,-11.361,-62.931,113.986,0.000,0.000,0.0116870,0.000,9144.000,0.402,-3.238,152.260,123.844,903.506,8.783,956.032,72.526,130.696,-0.637,-0.516,-0.204,0.078,0.069,0.000,0.000,0.000,-0.155,0.712,0.195,0.656,0.0000000,0.0000000,75.552,0.000,0.000,0.000,0,00:00:00,-856,0.000,75.552,90437.031,8.835,127.915,0.000,1.094,131.774,-0.038,0.011,0.006,-0.001,0.000,0.000
54.756,1,0,-5.259,-18.320,74.190,-10.145,-58.367,127.105,-11.832,-60.164,117.474,0.000,0.000,0.0116870,0.000,9144.000,0.440,-3.601,165.820,135.592,901.568,8.668,973.742,90.236,132.496,1.879,1.068,0.140,0.038,-0.267,0.000,0.000,0.000,-0.160,0.713,0.181,0.658,0.0000000,0.0000000,90.237,0.000,0.000,0.000,0,00:00:00,-856,0.000,90.237,90111.227,8.641,141.165,0.000,0.962,132.576,0.052,0.009,0.008,-0.013,0.000,0.000
54.857,1,0,-5.729,-22.160,87.996,-10.920,-63.130,139.323,-10.690,-58.816,118.264,0.000,0.000,0.0116870,0.000,9144.000,0.479,-3.865,180.561,147.418,901.568,8.668,973.742,90.236,132.496,1.879,1.068,0.140,0.038,-0.267,0.000,0.000,0.000,-0.166,0.713,0.167,0.661,0.0000000,0.0000000,90.237,0.000,0.000,0.000,0,00:00:00,-856,0.000,90.237,90111.227,8.641,141.165,0.000,0.962,132.576,0.052,0.009,0.008,-0.013,0.000,0.000
54.958,1,0,-6.213,-26.097,105.383,-11.415,-68.357,153.197,-8.165,-65.477,117.263,0.000,0.000,0.0116870,0.000,9144.000,0.517,-4.108,196.476,159.144,898.094,8.461,1005.564,122.058,134.545,0.206,1.422,-0.369,-0.323,0.130,0.000,0.000,0.000,-0.170,0.700,0.187,0.668,0.0000000,0.0000000,123.598,0.000,0.000,0.000,0,00:00:00,-856,0.000,123.598,89750.492,8.426,167.887,0.000,0.971,133.990,-0.014,0.010,-0.002,0.000,0.000,0.000
55.059,1,0,-6.705,-30.114,124.598,-12.082,-72.959,167.625,-10.126,-61.397,119.690,0.000,0.000,0.0116870,0.000,9144.000,0.555,-2.200,213.587,171.113,895.726,8.320,1027.317,143.811,134.890,0.215,1.542,0.338,0.021,0.247,0.000,0.000,0.000,-0.151,0.706,0.183,0.667,0.0000000,0.0000000,142.288,0.000,0.000,0.000,0,00:00:00,-856,0.000,142.288,89622.023,8.349,181.353,0.000,1.000,134.633,0.069,-0.004,-0.003,-0.000,0.000,0.000
55.160,1,0,-7.219,-34.146,142.382,-12.895,-76.907,180.088,-11.849,-57.048,121.667,0.000,0.000,0.0116870,0.000,9144.000,0.593,-2.411,231.915,183.280,895.726,8.320,1027.317,143.811,134.890,0.215,1.542,0.338,0.021,0.247,0.000,0.000,0.000,-0.131,0.711,0.179,0.667,0.0000000,0.0000000,142.288,0.000,0.000,0.000,0,00:00:00,-856,0.000,142.288,89622.023,8.349,181.353,0.000,1.000,134.633,0.069,-0.004,-0.003,-0.000,0.000,0.000
55.261,1,0,-7.740,-38.146,164.272,-13.302,-80.554,194.941,-8.105,-56.175,124.372,0.000,0.000,0.0116870,0.000,9144.000,0.632,-2.667,251.487,195.717,891.462,8.064,1066.594,183.089,136.704,0.600,1.107,0.116,-0.229,-0.104,0.000,0.000,0.000,-0.129,0.704,0.173,0.677,0.0000000,0.0000000,183.716,0.000,0.000,0.000,0,00:00:00,-856,0.000,183.716,89087.008,8.029,208.478,0.000,1.025,135.845,0.085,0.008,0.005,0.008,0.000,0.000
55.362,1,0,-8.233,-42.089,184.388,-13.337,-83.853,207.424,-4.670,-54.797,125.161,0.000,0.000,0.0116870,0.000,9144.000,0.670,-1.408,272.310,208.233,891.462,8.064,1066.594,183.089,136.704,0.600,1.107,0.116,-0.229,-0.104,0.000,0.000,0.000,-0.126,0.697,0.167,0.686,0.0000000,0.0000000,183.716,0.000,0.000,0.000,0,00:00:00,-856,0.000,183.716,89087.008,8.029,208.478,0.000,1.025,135.845,0.085,0.008,0.005,0.008,0.000,0.000
55.463,1,0,-8.687,-45.977,209.271,-13.482,-87.443,222.452,-6.010,-59.717,124.385,0.000,0.000,0.0116870,0.000,9144.000,0.709,-0.141,294.377,220.672,886.443,7.762,1113.022,229.516,138.103,-0.672,1.097,-0.251,0.141,-0.090,0.000,0.000,0.000,-0.139,0.699,0.172,0.680,0.0000000,0.0000000,230.581,0.000,0.000,0.000,0,00:00:00,-856,0.000,230.581,88679.188,7.783,235.827,0.000,0.921,137.007,-0.114,-0.001,0.006,0.010,0.000,0.000
55.564,1,0,-9.122,-49.817,235.174,-13.845,-90.784,236.997,-8.389,-59.286,123.254,0.000,0.000,0.0116870,0.000,9144.000,0.747,-0.869,317.677,232.997,883.979,7.614,1135.898,252.393,137.002,-0.312,2.693,-0.037,0.059,0.019,0.000,0.000,0.000,-0.140,0.701,0.173,0.678,0.0000000,0.0000000,256.063,0.000,0.000,0.000,0,00:00:00,-856,0.000,256.063,88386.562,7.607,249.573,0.000,0.978,137.451,-0.083,-0.005,0.001,0.004,0.000,0.000
55.665,1,0,-9.542,-53.606,262.562,-14.049,-94.192,251.674,-7.039,-61.927,124.482,0.000,0.000,0.0116870,0.000,9144.000,0.785,-1.195,342.222,245.445,881.029,7.435,1163.347,279.841,139.211,0.580,0.357,-0.188,0.088,-0.030,0.000,0.000,0.000,-0.149,0.702,0.178,0.674,0.0000000,0.0000000,282.917,0.000,0.000,0.000,0,00:00:00,-856,0.000,282.917,88075.133,7.418,263.357,0.000,1.096,137.894,-0.027,-0.009,0.005,0.010,0.000,0.000
55.766,1,0,-9.945,-57.353,287.381,-14.324,-97.637,263.202,-7.946,-64.274,123.232,0.000,0.000,0.0116870,0.000,9144.000,0.823,-1.645,367.998,257.768,881.029,7.435,1163.347,279.841,139.211,0.580,0.357,-0.188,0.088,-0.030,0.000,0.000,0.000,-0.157,0.703,0.183,0.669,0.0000000,0.0000000,282.917,0.000,0.000,0.000,0,00:00:00,-856,0.000,282.917,88075.133,7.418,263.357,0.000,1.096,137.894,-0.027,-0.009,0.005,0.010,0.000,0.000
55.867,1,0,-10.349,-61.049,318.150,-14.890,-100.785,278.143,-11.050,-63.272,121.552,0.000,0.000,0.0116870,0.000,9144.000,0.861,-2.098,394.991,269.924,874.590,7.044,1223.530,340.024,137.452,0.622,2.631,0.000,0.059,0.034,0.000,0.000,0.000,-0.156,0.705,0.184,0.667,0.0000000,0.0000000,340.751,0.000,0.000,0.000,0,00:00:00,-856,0.000,340.751,87499.836,7.069,291.014,0.000,0.957,138.508,0.071,-0.010,-0.015,-0.005,0.000,0.000
55.968,1,0,-10.766,-64.686,350.515,-15.449,-103.899,293.317,-11.202,-64.852,123.283,0.000,0.000,0.0116870,0.000,9144.000,0.899,-2.434,423.216,282.252,871.091,6.830,1256.377,372.871,139.738,1.729,0.579,-0.111,0.174,-0.011,0.000,0.000,0.000,-0.162,0.710,0.186,0.660,0.0000000,0.0000000,371.734,0.000,0.000,0.000,0,00:00:00,-856,0.000,371.734,87038.977,6.787,304.871,0.000,0.987,138.527,0.035,-0.003,-0.007,0.003,0.000,0.000
56.069,1,0,-11.203,-68.263,379.658,-16.195,-106.963,304.847,-13.272,-66.233,122.340,0.000,0.000,0.0116870,0.000,9144.000,0.937,-3.399,452.665,294.486,871.091,6.830,1256.377,372.871,139.738,1.729,0.579,-0.111,0.174,-0.011,0.000,0.000,0.000,-0.167,0.714,0.188,0.653,0.0000000,0.0000000,371.734,0.000,0.000,0.000,0,00:00:00,-856,0.000,371.734,87038.977,6.787,304.871,0.000,0.987,138.527,0.035,-0.003,-0.007,0.003,0.000,0.000
56.170,1,0,-11.652,-71.766,414.896,-16.597,-109.596,319.925,-10.111,-63.814,120.939,0.000,0.000,0.0116870,0.000,9144.000,0.974,-4.364,483.323,306.580,864.145,6.404,1321.913,438.407,137.114,0.403,0.326,0.223,-0.049,-0.321,0.000,0.000,0.000,-0.171,0.712,0.170,0.660,0.0000000,0.0000000,437.833,0.000,0.000,0.000,0,00:00:00,-856,0.000,437.833,86385.539,6.386,332.591,0.000,0.966,138.614,-0.037,0.005,0.004,-0.005,0.000,0.000
56.271,1,0,-12.095,-75.179,451.246,-16.977,-112.201,334.894,-10.117,-65.331,122.985,0.000,0.000,0.0116870,0.000,9144.000,1.012,-4.124,515.210,318.878,860.584,6.184,1355.676,472.170,139.600,-2.736,0.295,0.222,0.150,-0.287,0.000,0.000,0.000,-0.175,0.716,0.152,0.658,0.0000000,0.0000000,472.946,0.000,0.000,0.000,0,00:00:00,-856,0.000,472.946,86094.289,6.207,346.435,0.000,1.022,138.548,0.039,-0.009,0.002,-0.003,0.000,0.000
56.372,1,0,-12.530,-78.491,483.807,-17.334,-114.383,346.027,-10.126,-62.880,124.255,0.000,0.000,0.0116870,0.000,9144.000,1.049,-4.984,548.341,331.304,860.584,6.184,1355.676,472.170,139.600,-2.736,0.295,0.222,0.150,-0.287,0.000,0.000,0.000,-0.179,0.720,0.133,0.657,0.0000000,0.0000000,472.946,0.000,0.000,0.000,0,00:00:00,-856,0.000,472.946,86094.289,6.207,346.435,0.000,1.022,138.548,0.039,-0.009,0.002,-0.003,0.000,0.000
56.473,1,0,-12.956,-81.657,523.139,-17.685,-115.801,361.481,-10.289,-56.981,125.321,0.000,0.000,0.0116870,0.000,9144.000,1.087,-5.804,582.724,343.836,852.827,5.704,1429.613,546.107,138.035,-0.346,2.053,0.278,-0.004,-0.277,0.000,0.000,0.000,-0.180,0.719,0.114,0.661,0.0000000,0.0000000,547.304,0.000,0.000,0.000,0,00:00:00,-856,0.000,547.304,85357.359,5.750,374.157,0.000,1.081,138.677,-0.010,-0.023,0.004,0.008,0.000,0.000
56.574,1,0,-13.381,-84.651,563.993,-18.181,-117.110,376.787,-11.953,-57.476,124.077,0.000,0.000,0.0116870,0.000,9144.000,1.124,-5.686,618.349,356.244,848.586,5.439,1470.274,586.768,137.251,1.798,0.496,-0.221,0.294,-0.115,0.000,0.000,0.000,-0.193,0.726,0.115,0.649,0.0000000,0.0000000,586.553,0.000,0.000,0.000,0,00:00:00,-856,0.000,586.553,84878.750,5.452,388.038,0.000,1.088,138.853,0.009,-0.006,0.007,0.005,0.000,0.000
56.675,1,0,-13.824,-87.490,600.444,-18.952,-118.559,387.481,-14.896,-60.356,122.379,0.000,0.000,0.0116870,0.000,9144.000,1.160,-7.464,655.197,368.481,848.586,5.439,1470.274,586.768,137.251,1.798,0.496,-0.221,0.294,-0.115,0.000,0.000,0.000,-0.206,0.733,0.117,0.637,0.0000000,0.0000000,586.553,0.000,0.000,0.000,0,00:00:00,-856,0.000,586.553,84878.750,5.452,388.038,0.000,1.088,138.853,0.009,-0.006,0.007,0.005,0.000,0.000
56.776,1,0,-14.320,-90.189,644.406,-20.237,-119.890,403.190,-20.258,-60.609,124.534,0.000,0.000,0.0116870,0.000,9144.000,1.198,-9.252,693.290,380.935,839.945,4.897,1553.623,670.118,139.954,1.178,1.964,0.167,0.416,-0.234,0.000,0.000,0.000,-0.212,0.745,0.099,0.625,0.0000000,0.0000000,669.193,0.000,0.000,0.000,0,00:00:00,-856,0.000,669.193,83990.117,4.895,415.824,0.000,0.989,138.982,-0.033,-0.005,-0.007,0.018,0.000,0.000
56.877,1,0,-14.866,-92.757,688.972,-21.070,-121.203,417.989,-16.062,-61.786,122.717,0.000,0.000,0.0116870,0.000,9144.000,1.235,-11.518,732.611,393.207,835.967,4.646,1592.224,708.718,138.325,-0.465,0.973,-0.039,-0.201,-0.040,0.000,0.000,0.000,-0.213,0.738,0.101,0.632,0.0000000,0.0000000,712.585,0.000,0.000,0.000,0,00:00:00,-856,0.000,712.585,83577.727,4.634,429.721,0.000,1.043,138.953,-0.101,-0.010,-0.009,0.010,0.000,0.000
56.978,1,0,-15.449,-95.188,734.976,-22.153,-122.193,432.934,-18.849,-59.860,124.655,0.000,0.000,0.0116870,0.000,9144.000,1.273,-10.404,773.178,405.672,831.289,4.350,1637.811,754.306,139.556,0.975,0.739,0.068,0.124,0.177,0.000,0.000,0.000,-0.205,0.744,0.103,0.627,0.0000000,0.0000000,757.357,0.000,0.000,0.000,0,00:00:00,-856,0.000,757.357,83142.375,4.358,443.616,0.000,1.006,138.974,-0.055,-0.000,0.002,0.008,0.000,0.000
57.079,1,0,-16.095,-97.489,782.631,-23.646,-123.331,447.772,-23.243,-62.537,122.469,0.000,0.000,0.0116870,0.000,9144.000,1.310,-11.063,814.970,417.919,826.325,4.034,1686.410,802.904,139.462,-0.132,0.342,-0.171,0.322,0.166,0.000,0.000,0.000,-0.206,0.755,0.111,0.613,0.0000000,0.0000000,803.510,0.000,0.000,0.000,0,00:00:00,-856,0.000,803.510,82531.188,3.969,457.507,0.000,0.917,138.967,0.018,-0.003,-0.008,0.024,0.000,0.000
57.180,1,0,-16.826,-99.663,831.374,-25.343,-124.129,462.301,-25.653,-60.316,122.443,0.000,0.000,0.0116870,0.000,9144.000,1.347,-12.991,857.986,430.163,821.626,3.733,1732.636,849.130,138.875,0.945,1.087,0.100,0.162,-0.063,0.000,0.000,0.000,-0.206,0.760,0.104,0.608,0.0000000,0.0000000,851.041,0.000,0.000,0.000,0,00:00:00,-856,0.000,851.041,82046.492,3.659,471.389,0.000,1.035,138.799,-0.091,-0.006,-0.002,-0.013,0.000,0.000
57.281,1,0,-17.618,-101.701,881.858,-26.484,-124.843,477.138,-20.561,-60.551,123.528,0.000,0.000,0.0116870,0.000,9144.000,1.384,-13.861,902.238,442.516,816.354,3.394,1784.755,901.250,139.075,1.643,1.944,0.002,-0.346,-0.304,0.000,0.000,0.000,-0.216,0.746,0.098,0.622,0.0000000,0.0000000,899.951,0.000,0.000,0.000,0,00:00:00,-856,0.000,899.951,81773.914,3.484,485.262,0.000,1.041,138.743,-0.075,-0.000,-0.017,0.001,0.000,0.000
57.382,1,0,-18.436,-103.609,933.355,-27.522,-125.442,491.593,-19.976,-60.415,123.301,0.000,0.000,0.0116870,0.000,9144.000,1.421,-11.891,947.723,454.846,811.469,3.079,1833.291,949.785,138.714,1.308,2.957,0.015,-0.170,0.105,0.000,0.000,0.000,-0.211,0.742,0.102,0.628,0.0000000,0.0000000,950.237,0.000,0.000,0.000,0,00:00:00,-856,0.000,950.237,81080.117,3.035,499.120,0.000,0.985,138.530,-0.007,-0.006,-0.009,-0.001,0.000,0.000
57.483,1,0,-19.276,-105.384,986.102,-28.659,-125.876,505.710,-21.393,-59.723,121.453,0.000,0.000,0.0116870,0.000,9144.000,1.458,-10.915,994.422,466.991,806.311,2.744,1884.803,1001.297,137.001,0.322,2.417,0.003,0.016,0.355,0.000,0.000,0.000,-0.198,0.746,0.113,0.626,0.0000000,0.0000000,1001.898,0.000,0.000,0.000,0,00:00:00,-856,0.000,1001.898,80568.086,2.703,512.963,0.000,1.001,138.493,-0.025,-0.010,-0.012,-0.009,0.000,0.000
57.584,1,0,-20.141,-107.032,1039.948,-29.774,-126.299,519.774,-21.629,-60.477,123.425,0.000,0.000,0.0116870,0.000,9144.000,1.495,-11.006,1042.355,479.334,801.152,2.407,1936.581,1053.075,139.125,1.701,0.727,-0.178,-0.120,0.480,0.000,0.000,0.000,-0.184,0.746,0.136,0.626,0.0000000,0.0000000,1054.932,0.000,0.000,0.000,0,00:00:00,-856,0.000,1054.932,80065.781,2.375,526.788,0.000,1.009,138.314,-0.028,-0.011,-0.006,-0.005,0.000,0.000
57.685,1,0,-21.009,-108.562,1095.122,-30.513,-126.670,533.575,-18.366,-60.763,121.413,0.000,0.000,0.0116870,0.000,9144.000,1.532,-10.373,1091.503,491.475,795.734,2.051,1991.255,1107.749,137.002,0.895,-0.489,0.001,0.007,-0.290,0.000,0.000,0.000,-0.195,0.743,0.127,0.627,0.0000000,0.0000000,1109.336,0.000,0.000,0.000,0,00:00:00,-856,0.000,1109.336,79534.609,2.026,540.592,0.000,1.037,137.911,-0.025,-0.002,0.014,-0.005,0.000,0.000
57.786,1,0,-21.846,-109.991,1151.688,-30.865,-127.222,547.364,-14.974,-63.302,121.319,0.000,0.000,0.0116870,0.000,9144.000,1.569,-10.413,1141.863,503.607,790.162,1.684,2047.805,1164.300,137.657,-0.411,-0.026,-0.117,-0.424,0.219,0.000,0.000,0.000,-0.188,0.731,0.142,0.640,0.0000000,0.0000000,1165.109,0.000,0.000,0.000,0,00:00:00,-856,0.000,1165.109,79078.898,1.725,554.374,0.000,0.988,137.797,-0.053,0.004,-0.013,0.002,0.000,0.000
57.887,1,0,-22.626,-111.341,1209.415,-31.005,-127.900,561.006,-13.285,-65.272,121.582,0.000,0.000,0.0116870,0.000,9144.000,1.606,-8.018,1193.440,515.765,784.645,1.318,2104.108,1220.603,138.621,1.825,0.251,-0.254,-0.041,-0.278,0.000,0.000,0.000,-0.206,0.725,0.143,0.641,0.0000000,0.0000000,1222.248,0.000,0.000,0.000,0,00:00:00,-856,0.000,1222.248,78508.516,1.347,568.131,0.000,1.043,137.580,0.014,-0.010,0.021,0.021,0.000,0.000
57.988,1,0,-23.344,-112.636,1268.924,-31.079,-128.765,574.791,-13.017,-67.800,119.952,0.000,0.000,0.0116870,0.000,9144.000,1.643,-7.846,1246.216,527.760,778.603,0.914,2166.143,1282.637,138.382,0.786,2.104,-0.148,-0.223,0.108,0.000,0.000,0.000,-0.205,0.718,0.154,0.647,0.0000000,0.0000000,1280.750,0.000,0.000,0.000,0,00:00:00,-856,0.000,1280.750,77819.430,0.887,581.861,0.000,1.105,137.175,-0.009,-0.008,0.004,-0.008,0.000,0.000
58.089,1,0,-23.987,-113.864,1329.105,-30.872,-129.113,588.074,-10.558,-63.328,120.319,0.000,0.000,0.0116870,0.000,9144.000,1.679,-6.615,1300.195,539.792,773.204,0.552,2221.899,1338.393,136.357,1.357,1.888,0.232,-0.271,0.168,0.000,0.000,0.000,-0.190,0.713,0.154,0.658,0.0000000,0.0000000,1340.612,0.000,0.000,0.000,0,00:00:00,-856,0.000,1340.612,77276.875,0.522,595.563,0.000,1.010,137.007,-0.029,-0.009,-0.008,-0.001,0.000,0.000
58.190,1,0,-24.540,-115.012,1391.208,-30.410,-129.524,601.837,-8.336,-64.547,120.792,0.000,0.000,0.0116870,0.000,9144.000,1.716,-5.016,1355.382,551.872,766.887,0.125,2287.546,1404.040,137.203,-1.030,0.936,0.110,-0.053,-0.081,0.000,0.000,0.000,-0.188,0.711,0.148,0.661,0.0000000,0.0000000,1401.831,0.000,0.000,0.000,0,00:00:00,-856,0.000,1401.831,76761.531,0.174,609.235,0.000,1.030,136.763,0.073,0.007,-0.010,-0.002,0.000,0.000
58.291,1,0,-25.014,-116.086,1453.490,-30.286,-129.846,614.761,-11.928,-64.236,121.476,0.000,0.000,0.0116870,0.000,9144.000,1.753,-4.691,1411.784,564.019,761.642,-0.232,2342.378,1458.872,137.923,-0.318,1.443,-0.022,0.097,0.283,0.000,0.000,0.000,-0.180,0.717,0.157,0.655,0.0000000,0.0000000,1464.404,0.000,0.000,0.000,0,00:00:00,-856,0.000,1464.404,76060.625,-0.302,622.876,0.000,1.032,136.472,-0.004,0.002,-0.008,-0.004,0.000,0.000
58.392,2,0,-25.351,-116.653,1516.617,-28.385,-120.660,610.568,5.494,29.594,-51.102,0.000,0.000,0.0116870,0.000,9144.000,1.733,-5.249,1467.675,558.909,755.397,-0.659,2408.074,1524.568,-59.253,1.076,-2.303,-0.224,-0.249,0.008,0.000,0.000,0.000,-0.185,0.707,0.168,0.662,0.0000000,0.0000000,1525.421,0.000,0.000,0.000,0,00:00:00,-856,0.000,1525.421,75558.453,-0.646,617.001,0.000,1.034,-58.707,0.024,-0.016,-0.003,0.007,0.000,0.000
58.493,2,0,-25.497,-116.344,1578.484,-26.791,-111.843,605.815,2.370,26.118,-50.445,0.000,0.000,0.0115177,0.000,9144.000,1.714,-3.835,1523.062,553.864,750.039,-1.028,2464.792,1581.286,-56.853,-0.512,-0.246,0.198,-0.047,-0.289,0.000,0.000,0.000,-0.188,0.704,0.151,0.668,0.0000000,0.0000000,1585.871,0.000,0.000,0.000,0,00:00:00,-856,0.000,1585.871,74961.898,-1.057,611.246,0.000,1.012,-57.570,0.126,0.006,0.005,0.001,0.000,0.000
58.594,2,0,-25.494,-115.262,1639.656,-25.446,-103.155,600.832,-0.092,25.407,-51.147,0.000,0.000,0.0113220,0.000,9144.000,1.695,-3.539,1577.937,548.750,744.415,-1.417,2524.671,1641.165,-57.093,-0.728,1.214,0.114,-0.166,-0.070,0.000,0.000,0.000,-0.186,0.699,0.147,0.675,0.0000000,0.0000000,1645.764,0.000,0.000,0.000,0,00:00:00,-856,0.000,1645.764,74460.164,-1.404,605.606,0.000,0.971,-56.412,-0.030,0.012,-0.015,0.001,0.000,0.000
58.695,2,0,-25.373,-113.492,1700.606,-24.202,-94.583,596.286,-1.024,25.187,-48.831,0.000,0.000,0.0112306,0.000,9144.000,1.676,-2.560,1632.323,543.867,738.572,-1.824,2587.275,1703.769,-54.883,0.543,2.733,0.059,0.067,0.149,0.000,0.000,0.000,-0.179,0.703,0.149,0.673,0.0000000,0.0000000,1705.112,0.000,0.000,0.000,0,00:00:00,-856,0.000,1705.112,73888.297,-1.803,600.078,0.000,1.060,-55.306,0.005,-0.008,-0.004,0.008,0.000,0.000
58.796,2,0,-25.138,-111.110,1760.404,-22.714,-86.157,591.262,1.515,24.988,-48.404,0.000,0.000,0.0111189,0.000,9144.000,1.659,-2.928,1686.226,539.026,733.421,-2.185,2642.807,1759.301,-54.491,-0.514,-0.308,-0.165,-0.043,-0.133,0.000,0.000,0.000,-0.189,0.699,0.151,0.673,0.0000000,0.0000000,1763.925,0.000,0.000,0.000,0,00:00:00,-856,0.000,1763.925,73312.109,-2.206,594.657,0.000,1.047,-54.193,0.028,0.001,-0.000,0.005,0.000,0.000
58.897,2,0,-24.805,-108.187,1819.819,-21.561,-77.862,586.590,-1.634,25.236,-45.740,0.000,0.000,0.0110664,0.000,9144.000,1.642,-2.716,1739.671,534.452,727.879,-2.576,2702.894,1819.388,-52.222,0.428,2.083,-0.128,-0.100,-0.080,0.000,0.000,0.000,-0.195,0.694,0.153,0.676,0.0000000,0.0000000,1822.213,0.000,0.000,0.000,0,00:00:00,-856,0.000,1822.213,72807.141,-2.562,589.342,0.000,0.966,-53.146,0.083,-0.011,0.005,-0.002,0.000,0.000
58.998,2,0,-24.391,-104.794,1878.161,-20.279,-69.908,581.520,-0.135,23.638,-45.229,0.000,0.000,0.0109804,0.000,9144.000,1.626,-2.180,1792.664,529.929,722.869,-2.931,2757.542,1874.036,-51.023,-0.038,1.023,0.152,-0.110,0.383,0.000,0.000,0.000,-0.176,0.695,0.162,0.679,0.0000000,0.0000000,1879.987,0.000,0.000,0.000,0,00:00:00,-856,0.000,1879.987,72273.867,-2.941,584.127,0.000,1.004,-52.148,-0.104,-0.010,-0.003,-0.011,0.000,0.000
59.099,2,0,-23.900,-100.998,1936.560,-19.018,-62.088,576.822,-0.076,24.309,-45.759,0.000,0.000,0.0109012,0.000,9144.000,1.611,-1.523,1845.199,525.353,717.227,-3.334,2819.442,1935.936,-51.791,0.187,1.566,-0.028,0.203,-0.138,0.000,0.000,0.000,-0.183,0.700,0.157,0.672,0.0000000,0.0000000,1937.255,0.000,0.000,0.000,0,00:00:00,-856,0.000,1937.255,71769.273,-3.301,579.010,0.000,1.027,-51.188,-0.007,0.017,-0.011,-0.007,0.000,0.000
59.200,2,0,-23.337,-96.850,1994.261,-17.694,-54.412,572.010,0.830,25.074,-45.228,0.000,0.000,0.0109331,0.000,9144.000,1.595,-2.687,1897.282,520.831,712.125,-3.700,2875.762,1992.257,-51.720,-0.152,-0.074,-0.238,-0.283,0.221,0.000,0.000,0.000,-0.181,0.690,0.175,0.678,0.0000000,0.0000000,1994.028,0.000,0.000,0.000,0,00:00:00,-856,0.000,1994.028,71280.266,-3.651,573.988,0.000,1.053,-50.263,0.025,0.003,0.006,-0.001,0.000,0.000
59.301,2,0,-22.713,-92.414,2051.194,-16.550,-47.304,567.011,-0.612,21.774,-44.982,0.000,0.000,0.0110153,0.000,9144.000,1.580,-1.088,1948.916,516.332,707.154,-4.059,2930.955,2047.449,-49.925,-2.051,1.076,0.172,-0.133,0.139,0.000,0.000,0.000,-0.169,0.689,0.175,0.683,0.0000000,0.0000000,2050.313,0.000,0.000,0.000,0,00:00:00,-856,0.000,2050.313,70729.836,-4.049,569.057,0.000,1.013,-49.308,0.096,-0.015,0.009,-0.014,0.000,0.000
59.402,2,0,-22.056,-87.760,2107.789,-15.670,-40.537,562.335,-2.894,20.845,-42.928,0.000,0.000,0.0110306,0.000,9144.000,1.567,-0.327,2000.120,512.040,702.000,-4.433,2988.506,2105.000,-47.740,-1.020,2.365,0.183,-0.153,-0.153,0.000,0.000,0.000,-0.167,0.684,0.165,0.691,0.0000000,0.0000000,2106.120,0.000,0.000,0.000,0,00:00:00,-856,0.000,2106.120,70160.188,-4.462,564.216,0.000,1.045,-48.426,0.006,-0.017,0.004,0.001,0.000,0.000
59.503,2,0,-21.379,-82.928,2163.207,-14.769,-33.880,557.375,-2.322,22.303,-40.449,0.000,0.000,0.0109798,0.000,9144.000,1.554,0.547,2050.919,507.995,697.456,-4.765,3039.527,2156.022,-46.169,0.546,2.672,-0.193,0.219,-0.013,0.000,0.000,0.000,-0.176,0.689,0.169,0.682,0.0000000,0.0000000,2161.457,0.000,0.000,0.000,0,00:00:00,-856,0.000,2161.457,69731.133,-4.776,559.460,0.000,0.914,-47.571,-0.031,0.002,0.008,-0.005,0.000,0.000
59.604,2,0,-20.675,-77.953,2218.507,-13.699,-27.500,552.699,-0.278,22.167,-40.470,0.000,0.000,0.0109219,0.000,9144.000,1.541,-0.718,2101.314,503.948,692.351,-5.140,3097.177,2213.671,-46.120,1.054,1.076,0.144,0.025,0.158,0.000,0.000,0.000,-0.166,0.693,0.169,0.681,0.0000000,0.0000000,2216.333,0.000,0.000,0.000,0,00:00:00,-856,0.000,2216.333,69244.000,-5.133,554.788,0.000,1.016,-46.796,0.039,0.001,-0.008,-0.004,0.000,0.000
59.705,2,0,-19.936,-72.862,2273.351,-12.566,-21.144,548.029,0.738,24.613,-40.520,0.000,0.000,0.0109193,0.000,9144.000,1.529,-0.859,2151.303,499.896,687.514,-5.497,3152.119,2268.613,-47.369,1.955,0.759,-0.265,0.048,0.200,0.000,0.000,0.000,-0.168,0.694,0.185,0.675,0.0000000,0.0000000,2270.754,0.000,0.000,0.000,0,00:00:00,-856,0.000,2270.754,68759.047,-5.492,550.196,0.000,0.999,-45.913,-0.035,-0.011,0.016,0.010,0.000,0.000
59.806,2,0,-19.164,-67.689,2328.059,-11.447,-15.253,543.775,0.996,22.731,-38.828,0.000,0.000,0.0110594,0.000,9144.000,1.517,-1.104,2200.905,496.013,682.549,-5.866,3208.836,2325.330,-44.995,-0.739,0.461,-0.420,-0.100,0.215,0.000,0.000,0.000,-0.174,0.688,0.207,0.673,0.0000000,0.0000000,2324.730,0.000,0.000,0.000,0,00:00:00,-856,0.000,2324.730,68303.211,-5.830,545.684,0.000,1.036,-45.172,-0.011,-0.006,-0.010,0.005,0.000,0.000
59.907,2,0,-18.377,-62.479,2381.914,-10.668,-9.740,539.194,-1.948,21.725,-38.941,0.000,0.000,0.0110728,0.000,9144.000,1.506,-0.434,2250.117,492.119,678.088,-6.199,3260.095,2376.589,-44.608,-0.607,1.386,0.242,-0.351,-0.295,0.000,0.000,0.000,-0.172,0.676,0.192,0.690,0.0000000,0.0000000,2378.267,0.000,0.000,0.000,0,00:00:00,-856,0.000,2378.267,67816.688,-6.193,541.247,0.000,1.021,-44.400,0.040,-0.011,-0.016,0.002,0.000,0.000
60.008,2,0,-17.603,-57.276,2435.124,-10.108,-4.704,534.384,-3.715,19.749,-39.890,0.000,0.000,0.0111053,0.000,9144.000,1.494,1.524,2298.930,488.130,673.575,-6.538,3312.221,2428.715,-44.449,-3.103,3.114,-0.051,-0.022,0.064,0.000,0.000,0.000,-0.172,0.675,0.196,0.690,0.0000000,0.0000000,2431.372,0.000,0.000,0.000,0,00:00:00,-856,0.000,2431.372,67320.766,-6.566,536.884,0.000,1.017,-43.558,0.079,0.005,-0.010,-0.002,0.000,0.000
60.109,2,0,-16.841,-52.105,2488.059,-9.345,0.234,530.050,-1.302,21.488,-36.618,0.000,0.000,0.0111712,0.000,9144.000,1.484,1.655,2347.376,484.468,668.914,-6.890,3366.342,2482.836,-42.471,0.432,0.596,0.068,-0.059,-0.022,0.000,0.000,0.000,-0.170,0.674,0.194,0.693,0.0000000,0.0000000,2484.053,0.000,0.000,0.000,0,00:00:00,-856,0.000,2484.053,66890.758,-6.891,532.593,0.000,0.935,-42.938,-0.029,-0.001,0.015,0.011,0.000,0.000
60.210,2,0,-16.083,-46.974,2539.653,-8.632,5.002,525.124,-1.397,22.502,-35.759,0.000,0.000,0.0111584,0.000,9144.000,1.474,1.981,2395.466,480.892,664.972,-7.190,3412.368,2528.862,-42.272,0.254,0.074,-0.358,-0.099,-0.117,0.000,0.000,0.000,-0.185,0.666,0.202,0.694,0.0000000,0.0000000,2536.317,0.000,0.000,0.000,0,00:00:00,-856,0.000,2536.317,66437.391,-7.235,528.372,0.000,0.953,-42.231,0.045,0.009,0.001,-0.010,0.000,0.000
60.311,2,0,-15.328,-41.898,2591.633,-7.870,9.574,520.843,-0.515,23.235,-35.917,0.000,0.000,0.0112014,0.000,9144.000,1.464,2.586,2443.196,477.301,660.081,-7.563,3469.771,2586.266,-42.779,0.239,0.117,-0.132,0.243,0.029,0.000,0.000,0.000,-0.191,0.673,0.206,0.684,0.0000000,0.0000000,2588.169,0.000,0.000,0.000,0,00:00:00,-856,0.000,2588.169,66015.211,-7.557,524.219,0.000,1.019,-41.493,0.039,-0.013,-0.012,0.004,0.000,0.000
60.412,2,0,-14.587,-36.894,2642.730,-7.376,13.857,516.178,-2.782,22.998,-36.403,0.000,0.000,0.0113242,0.000,9144.000,1.454,1.206,2490.562,473.660,655.984,-7.877,3518.123,2634.618,-43.137,0.699,0.768,0.219,-0.339,-0.170,0.000,0.000,0.000,-0.186,0.662,0.196,0.699,0.0000000,0.0000000,2639.617,0.000,0.000,0.000,0,00:00:00,-856,0.000,2639.617,65560.898,-7.906,520.132,0.000,1.056,-40.963,-0.002,0.013,-0.014,0.014,0.000,0.000
60.513,2,0,-13.883,-31.983,2693.466,-7.144,17.788,512.150,-4.998,22.105,-30.705,0.000,0.000,0.0114989,0.000,9144.000,1.446,3.137,2537.621,470.590,651.666,-8.210,3569.357,2685.851,-38.051,1.867,2.260,-0.213,-0.463,0.201,0.000,0.000,0.000,-0.182,0.645,0.214,0.710,0.0000000,0.0000000,2690.667,0.000,0.000,0.000,0,00:00:00,-856,0.000,2690.667,65118.223,-8.248,516.108,0.000,0.967,-40.271,0.006,0.013,-0.008,0.001,0.000,0.000
60.614,2,0,-13.219,-27.193,2744.436,-6.830,21.284,508.467,-3.844,20.310,-32.077,0.000,0.000,0.0113752,0.000,9144.000,1.438,5.797,2584.359,467.382,647.060,-8.568,3624.300,2740.794,-38.153,0.726,0.224,0.245,-0.108,-0.212,0.000,0.000,0.000,-0.179,0.642,0.199,0.718,0.0000000,0.0000000,2741.325,0.000,0.000,0.000,0,00:00:00,-856,0.000,2741.325,64742.070,-8.540,512.147,0.000,1.004,-39.672,0.051,-0.002,-0.012,0.009,0.000,0.000
60.715,2,0,-12.594,-22.548,2787.941,-6.627,24.444,499.441,-4.616,19.428,-32.518,0.000,0.000,0.0112864,0.000,9144.000,1.428,6.406,2630.772,464.130,647.060,-8.568,3624.300,2740.794,-38.153,0.726,0.224,0.245,-0.108,-0.212,0.000,0.000,0.000,-0.176,0.639,0.185,0.726,0.0000000,0.0000000,2741.325,0.000,0.000,0.000,0,00:00:00,-856,0.000,2741.325,64742.070,-8.540,512.147,0.000,1.004,-39.672,0.051,-0.002,-0.012,0.009,0.000,0.000
60.816,2,0,-12.011,-18.059,2838.702,-6.461,27.406,496.467,-4.677,19.829,-33.043,0.000,0.000,0.0112930,0.000,9144.000,1.420,7.040,2676.854,460.826,638.672,-9.224,3725.193,2841.687,-38.811,0.743,-0.263,-0.038,-0.043,-0.165,0.000,0.000,0.000,-0.182,0.635,0.180,0.729,0.0000000,0.0000000,2841.488,0.000,0.000,0.000,0,00:00:00,-856,0.000,2841.488,63858.211,-9.231,504.404,0.000,0.949,-38.472,-0.072,-0.016,-0.013,0.001,0.000,0.000
60.917,2,0,-11.477,-13.733,2888.266,-6.513,30.095,493.044,-6.549,19.404,-30.765,0.000,0.000,0.0113863,0.000,9144.000,1.412,7.279,2722.629,457.749,635.042,-9.510,3769.179,2885.673,-36.899,1.722,1.168,0.067,-0.159,-0.123,0.000,0.000,0.000,-0.182,0.629,0.175,0.735,0.0000000,0.0000000,2891.004,0.000,0.000,0.000,0,00:00:00,-856,0.000,2891.004,63541.965,-9.480,500.620,0.000,1.102,-37.875,0.009,-0.019,-0.008,0.016,0.000,0.000
61.018,2,0,-11.003,-9.576,2937.576,-6.656,32.586,489.642,-7.202,19.629,-31.256,0.000,0.000,0.0113802,0.000,9144.000,1.404,8.206,2768.092,454.624,630.946,-9.834,3819.069,2935.563,-37.528,1.435,1.930,-0.065,0.062,0.003,0.000,0.000,0.000,-0.185,0.631,0.177,0.733,0.0000000,0.0000000,2940.151,0.000,0.000,0.000,0,00:00:00,-856,0.000,2940.151,63036.910,-9.880,496.891,0.000,0.962,-37.354,0.113,0.000,0.011,-0.024,0.000,0.000
61.119,2,0,-10.570,-5.607,2987.266,-6.467,34.502,486.623,-3.683,16.020,-32.883,0.000,0.000,0.0114684,0.000,9144.000,1.395,7.831,2813.225,451.335,626.521,-10.187,3873.252,2989.746,-36.742,-1.099,-0.594,0.371,0.218,0.161,0.000,0.000,0.000,-0.168,0.643,0.169,0.728,0.0000000,0.0000000,2988.934,0.000,0.000,0.000,0,00:00:00,-856,0.000,2988.934,62648.473,-10.189,493.216,0.000,0.982,-36.789,-0.113,-0.005,0.006,-0.009,0.000,0.000
61.220,2,0,-10.168,-1.845,3036.280,-6.420,36.201,483.447,-4.884,15.849,-31.632,0.000,0.000,0.0114490,0.000,9144.000,1.387,6.664,2858.042,448.172,622.728,-10.490,3919.945,3036.439,-35.687,-1.351,0.428,-0.165,-0.139,0.092,0.000,0.000,0.000,-0.170,0.637,0.179,0.730,0.0000000,0.0000000,3037.359,0.000,0.000,0.000,0,00:00:00,-856,0.000,3037.359,62218.285,-10.534,489.595,0.000,1.007,-36.294,-0.014,-0.009,-0.015,0.003,0.000,0.000
61.321,2,0,-9.800,1.714,3084.313,-6.403,37.789,479.564,-4.985,16.630,-33.843,0.000,0.000,0.0113986,0.000,9144.000,1.377,7.440,2902.521,444.788,619.166,-10.777,3964.004,3080.498,-38.019,-1.099,-0.377,0.172,-0.194,0.020,0.000,0.000,0.000,-0.161,0.632,0.176,0.737,0.0000000,0.0000000,3085.429,0.000,0.000,0.000,0,00:00:00,-856,0.000,3085.429,61905.449,-10.786,486.024,0.000,1.046,-35.719,-0.003,-0.013,0.012,-0.007,0.000,0.000
61.422,2,0,-9.469,5.077,3132.023,-6.447,39.214,475.829,-5.418,16.776,-32.849,0.000,0.000,0.0115913,0.000,9144.000,1.368,8.571,2946.672,441.503,615.297,-11.090,4012.101,3128.595,-37.279,-0.099,0.279,0.097,0.084,-0.129,0.000,0.000,0.000,-0.162,0.635,0.167,0.737,0.0000000,0.0000000,3133.151,0.000,0.000,0.000,0,00:00:00,-856,0.000,3133.151,61454.906,-11.150,482.504,0.000,1.039,-35.193,-0.028,-0.000,-0.008,0.012,0.000,0.000
61.523,2,0,-9.174,8.240,3179.614,-6.531,40.320,472.578,-5.658,15.282,-29.860,0.000,0.000,0.0117410,0.000,9144.000,1.360,8.100,2990.523,438.517,611.368,-11.409,4061.187,3177.681,-34.005,0.621,0.640,0.161,0.035,-0.300,0.000,0.000,0.000,-0.166,0.635,0.151,0.739,0.0000000,0.0000000,3180.528,0.000,0.000,0.000,0,00:00:00,-856,0.000,3180.528,61135.898,-11.409,479.033,0.000,1.017,-34.694,0.068,0.020,-0.003,-0.011,0.000,0.000
61.624,2,0,-8.918,11.185,3226.582,-6.708,40.938,468.981,-6.436,12.007,-31.145,0.000,0.000,0.0116311,0.000,9144.000,1.352,7.936,3034.064,435.402,607.768,-11.703,4106.384,3222.879,-33.876,-2.302,1.668,0.187,0.053,0.072,0.000,0.000,0.000,-0.158,0.639,0.147,0.738,0.0000000,0.0000000,3227.566,0.000,0.000,0.000,0,00:00:00,-856,0.000,3227.566,60780.375,-11.700,475.610,0.000,1.071,-34.186,0.024,-0.004,0.012,0.002,0.000,0.000
61.725,2,0,-8.694,13.916,3273.158,-6.681,41.687,465.336,-4.304,14.732,-31.421,0.000,0.000,0.0115417,0.000,9144.000,1.343,7.684,3077.290,432.260,604.090,-12.004,4152.792,3269.286,-34.944,-1.274,0.336,-0.355,0.148,0.340,0.000,0.000,0.000,-0.161,0.644,0.170,0.728,0.0000000,0.0000000,3274.270,0.000,0.000,0.000,0,00:00:00,-856,0.000,3274.270,60447.625,-11.973,472.233,0.000,1.073,-33.762,0.008,-0.011,-0.005,-0.001,0.000,0.000
61.826,2,0,-8.491,16.450,3319.309,-6.705,42.237,461.898,-4.703,14.091,-28.855,0.000,0.000,0.0116229,0.000,9144.000,1.335,6.776,3120.227,429.375,600.484,-12.302,4198.515,3315.009,-32.440,-0.515,0.842,0.091,-0.169,0.198,0.000,0.000,0.000,-0.150,0.640,0.175,0.733,0.0000000,0.0000000,3320.642,0.000,0.000,0.000,0,00:00:00,-856,0.000,3320.642,60115.715,-12.246,468.901,0.000,0.971,-33.285,0.093,-0.004,0.005,-0.015,0.000,0.000
61.927,2,0,-8.318,18.796,3366.054,-6.934,42.771,459.219,-6.645,15.176,-28.290,0.000,0.000,0.0115182,0.000,9144.000,1.328,7.749,3162.882,426.546,596.365,-12.643,4251.018,3367.512,-32.682,0.102,2.575,-0.081,-0.232,0.284,0.000,0.000,0.000,-0.141,0.633,0.190,0.737,0.0000000,0.0000000,3366.689,0.000,0.000,0.000,0,00:00:00,-856,0.000,3366.689,59660.012,-12.624,465.613,0.000,0.943,-33.023,0.043,-0.011,-0.005,0.005,0.000,0.000
62.028,2,0,-8.176,20.951,3411.439,-7.029,42.879,455.572,-5.243,12.084,-29.862,0.000,0.000,0.0115327,0.000,9144.000,1.319,9.087,3205.238,423.560,593.339,-12.895,4289.767,3406.261,-32.458,-3.322,0.819,0.018,-0.128,0.306,0.000,0.000,0.000,-0.130,0.631,0.201,0.738,0.0000000,0.0000000,3412.414,0.000,0.000,0.000,0,00:00:00,-856,0.000,3412.414,59332.477,-12.896,462.369,0.000,0.990,-32.470,0.096,0.006,0.007,0.019,0.000,0.000
62.129,2,0,-8.050,22.923,3456.600,-6.987,43.197,452.162,-3.812,15.205,-28.540,0.000,0.000,0.0115133,0.000,9144.000,1.311,9.815,3247.308,420.706,589.763,-13.194,4335.772,3452.266,-32.553,-0.661,0.351,-0.223,0.078,0.272,0.000,0.000,0.000,-0.130,0.633,0.218,0.731,0.0000000,0.0000000,3457.821,0.000,0.000,0.000,0,00:00:00,-856,0.000,3457.821,58933.836,-13.230,459.166,0.000,1.030,-32.086,-0.094,-0.018,0.019,-0.016,0.000,0.000
62.230,2,0,-7.930,24.733,3500.977,-6.914,43.372,448.564,-3.451,14.738,-27.087,0.000,0.000,0.0115848,0.000,9144.000,1.303,9.463,3289.108,417.997,586.542,-13.465,4377.408,3493.903,-31.025,0.407,-0.334,0.221,-0.230,-0.010,0.000,0.000,0.000,-0.120,0.627,0.212,0.740,0.0000000,0.0000000,3502.915,0.000,0.000,0.000,0,00:00:00,-856,0.000,3502.915,58685.098,-13.439,456.005,0.000,1.054,-31.664,0.002,0.017,0.009,-0.018,0.000,0.000
62.331,2,0,-7.829,26.387,3545.646,-7.130,43.495,445.417,-6.256,15.103,-27.492,0.000,0.000,0.0115466,0.000,9144.000,1.296,10.663,3330.633,415.248,582.792,-13.782,4426.109,3542.603,-31.930,1.075,1.532,0.194,-0.085,-0.480,0.000,0.000,0.000,-0.127,0.623,0.189,0.749,0.0000000,0.0000000,3547.699,0.000,0.000,0.000,0,00:00:00,-856,0.000,3547.699,58350.707,-13.721,452.883,0.000,1.110,-31.238,0.025,-0.001,-0.018,-0.003,0.000,0.000
62.432,2,0,-7.751,27.880,3589.936,-7.234,43.266,442.204,-5.106,12.394,-27.705,0.000,0.000,0.0116710,0.000,9144.000,1.288,11.073,3371.880,412.477,579.427,-14.067,4470.035,3586.530,-30.712,-1.873,0.707,-0.199,0.225,-0.086,0.000,0.000,0.000,-0.139,0.629,0.190,0.741,0.0000000,0.0000000,3592.177,0.000,0.000,0.000,0,00:00:00,-856,0.000,3592.177,57896.398,-14.107,449.801,0.000,1.068,-30.906,-0.025,0.008,0.000,-0.002,0.000,0.000
62.533,2,0,-7.690,29.222,3633.881,-7.333,43.236,439.097,-5.020,15.070,-26.446,0.000,0.000,0.0116399,0.000,9144.000,1.280,9.828,3412.864,409.833,576.089,-14.352,4513.808,3630.302,-30.767,0.229,2.252,-0.234,0.417,0.195,0.000,0.000,0.000,-0.146,0.643,0.202,0.724,0.0000000,0.0000000,3636.352,0.000,0.000,0.000,0,00:00:00,-856,0.000,3636.352,57597.812,-14.361,446.757,0.000,1.051,-30.503,0.061,-0.001,0.014,0.004,0.000,0.000
62.634,2,0,-7.638,30.435,3671.397,-7.293,43.213,431.440,-3.622,15.772,-26.265,0.000,0.000,0.0117256,0.000,9144.000,1.272,7.498,3453.584,407.206,576.089,-14.352,4513.808,3630.302,-30.767,0.229,2.252,-0.234,0.417,0.195,0.000,0.000,0.000,-0.152,0.657,0.213,0.707,0.0000000,0.0000000,3636.352,0.000,0.000,0.000,0,00:00:00,-856,0.000,3636.352,57597.812,-14.361,446.757,0.000,1.051,-30.503,0.061,-0.001,0.014,0.004,0.000,0.000
62.735,2,0,-7.578,31.523,3715.608,-7.080,42.999,429.443,-1.879,14.460,-25.429,0.000,0.000,0.0118980,0.000,9144.000,1.266,5.191,3494.050,404.663,569.275,-14.937,4603.805,3720.299,-29.289,-0.221,1.175,0.051,0.209,0.083,0.000,0.000,0.000,-0.150,0.666,0.213,0.700,0.0000000,0.0000000,3723.811,0.000,0.000,0.000,0,00:00:00,-856,0.000,3723.811,56933.852,-14.932,440.779,0.000,1.075,-29.781,0.098,0.006,0.004,-0.006,0.000,0.000
62.836,2,0,-7.503,32.487,3753.448,-6.805,42.722,422.827,-1.228,14.342,-25.536,0.000,0.000,0.0118820,0.000,9144.000,1.258,3.977,3534.261,402.110,569.275,-14.937,4603.805,3720.299,-29.289,-0.221,1.175,0.051,0.209,0.083,0.000,0.000,0.000,-0.147,0.674,0.213,0.692,0.0000000,0.0000000,3723.811,0.000,0.000,0.000,0,00:00:00,-856,0.000,3723.811,56933.852,-14.932,440.779,0.000,1.075,-29.781,0.098,0.006,0.004,-0.006,0.000,0.000
62.937,2,0,-7.403,33.341,3797.091,-6.415,42.574,421.010,-0.028,16.074,-25.904,0.000,0.000,0.0119474,0.000,9144.000,1.251,2.762,3574.213,399.519,563.022,-15.479,4687.157,3803.651,-30.432,1.709,0.589,0.180,-0.039,0.328,0.000,0.000,0.000,-0.130,0.677,0.218,0.691,0.0000000,0.0000000,3810.104,0.000,0.000,0.000,0,00:00:00,-856,0.000,3810.104,56298.137,-15.483,434.944,0.000,0.993,-29.025,0.009,-0.007,0.005,-0.003,0.000,0.000
63.038,2,0,-7.282,34.087,3840.707,-6.111,42.124,419.487,-0.817,13.471,-24.078,0.000,0.000,0.0121977,0.000,9144.000,1.244,2.882,3613.925,397.111,559.705,-15.769,4731.680,3848.174,-27.585,-0.674,0.720,-0.345,0.051,-0.345,0.000,0.000,0.000,-0.154,0.672,0.217,0.691,0.0000000,0.0000000,3852.822,0.000,0.000,0.000,0,00:00:00,-856,0.000,3852.822,56016.543,-15.728,432.077,0.000,1.040,-28.705,0.081,0.005,-0.007,-0.000,0.000,0.000
63.139,2,0,-7.154,34.717,3884.450,-6.041,41.553,417.954,-3.071,12.600,-26.348,0.000,0.000,0.0120650,0.000,9144.000,1.236,2.785,3653.372,394.477,556.329,-16.065,4777.218,3893.712,-29.182,-2.135,2.503,0.195,-0.030,-0.203,0.000,0.000,0.000,-0.154,0.672,0.204,0.695,0.0000000,0.0000000,3895.259,0.000,0.000,0.000,0,00:00:00,-856,0.000,3895.259,55649.500,-16.050,429.244,0.000,0.942,-28.365,0.020,-0.012,0.009,0.002,0.000,0.000
63.240,2,0,-7.034,35.231,3921.929,-6.011,40.895,411.833,-3.401,12.019,-26.578,0.000,0.000,0.0121507,0.000,9144.000,1.228,2.879,3692.554,391.819,556.329,-16.065,4777.218,3893.712,-29.182,-2.135,2.503,0.195,-0.030,-0.203,0.000,0.000,0.000,-0.153,0.671,0.191,0.700,0.0000000,0.0000000,3895.259,0.000,0.000,0.000,0,00:00:00,-856,0.000,3895.259,55649.500,-16.050,429.244,0.000,0.942,-28.365,0.020,-0.012,0.009,0.002,0.000,0.000
63.341,2,0,-6.911,35.638,3964.885,-5.716,40.255,410.448,-0.710,12.401,-24.721,0.000,0.000,0.0122910,0.000,9144.000,1.221,2.994,3731.489,389.347,550.416,-16.587,4857.516,3974.010,-27.664,0.162,0.256,0.338,0.119,-0.018,0.000,0.000,0.000,-0.143,0.678,0.178,0.698,0.0000000,0.0000000,3979.299,0.000,0.000,0.000,0,00:00:00,-856,0.000,3979.299,55047.707,-16.582,423.674,0.000,1.034,-27.643,0.033,0.006,-0.004,0.013,0.000,0.000
63.442,2,0,-6.784,35.932,4007.812,-5.702,39.278,409.298,-3.433,9.224,-23.138,0.000,0.000,0.0122462,0.000,9144.000,1.215,2.235,3770.192,387.033,547.229,-16.870,4901.071,4017.565,-24.878,-1.580,3.286,0.254,0.065,0.211,0.000,0.000,0.000,-0.128,0.684,0.176,0.696,0.0000000,0.0000000,4020.910,0.000,0.000,0.000,0,00:00:00,-856,0.000,4020.910,54773.312,-16.825,420.936,0.000,1.029,-27.329,0.012,-0.004,0.012,0.006,0.000,0.000
63.543,2,0,-6.662,36.122,4050.138,-5.534,38.576,407.661,-1.846,12.047,-24.434,0.000,0.000,0.0118792,0.000,9144.000,1.207,1.785,3808.651,384.590,544.361,-17.126,4940.462,4056.956,-27.196,0.345,2.411,-0.075,0.283,-0.092,0.000,0.000,0.000,-0.136,0.693,0.174,0.687,0.0000000,0.0000000,4062.251,0.000,0.000,0.000,0,00:00:00,-856,0.000,4062.251,54424.918,-17.136,418.229,0.000,0.954,-27.104,-0.045,-0.020,0.025,0.005,0.000,0.000
63.644,2,0,-6.528,36.230,4092.198,-5.199,37.872,405.859,-0.115,12.083,-25.351,0.000,0.000,0.0119266,0.000,9144.000,1.200,0.191,3846.856,382.055,541.354,-17.396,4981.936,4098.430,-28.080,0.131,0.420,0.017,-0.030,-0.157,0.000,0.000,0.000,-0.140,0.691,0.168,0.689,0.0000000,0.0000000,4103.327,0.000,0.000,0.000,0,00:00:00,-856,0.000,4103.327,54109.246,-17.420,415.551,0.000,0.987,-26.822,-0.087,-0.011,0.016,0.006,0.000,0.000
63.745,2,0,-6.385,36.262,4133.398,-5.064,37.127,403.740,-2.014,11.694,-23.402,0.000,0.000,0.0120813,0.000,9144.000,1.193,0.357,3884.828,379.714,538.684,-17.637,5018.913,4135.408,-26.181,0.121,1.730,-0.169,-0.192,-0.103,0.000,0.000,0.000,-0.148,0.682,0.171,0.695,0.0000000,0.0000000,4144.139,0.000,0.000,0.000,0,00:00:00,-856,0.000,4144.139,53858.250,-17.646,412.901,0.000,1.083,-26.511,0.106,-0.044,0.007,-0.001,0.000,0.000
63.846,2,0,-6.248,36.225,4174.756,-5.037,36.446,402.022,-3.023,12.312,-22.137,0.000,0.000,0.0120285,0.000,9144.000,1.186,1.486,3922.578,377.501,535.550,-17.920,5062.511,4179.006,-25.451,0.395,1.700,-0.306,-0.493,0.038,0.000,0.000,0.000,-0.153,0.662,0.187,0.709,0.0000000,0.0000000,4184.689,0.000,0.000,0.000,0,00:00:00,-856,0.000,4184.689,53586.402,-17.892,410.281,0.000,0.857,-26.313,-0.052,-0.008,-0.005,0.011,0.000,0.000
63.947,2,0,-6.111,36.129,4216.239,-4.795,35.756,400.359,-0.821,12.163,-23.873,0.000,0.000,0.0119697,0.000,9144.000,1.179,4.357,3960.089,375.113,532.447,-18.202,5105.887,4222.381,-26.796,-0.533,-0.481,-0.037,-0.042,0.212,0.000,0.000,0.000,-0.147,0.662,0.196,0.708,0.0000000,0.0000000,4224.983,0.000,0.000,0.000,0,00:00:00,-856,0.000,4224.983,53265.793,-18.183,407.688,0.000,1.011,-25.978,0.072,-0.003,-0.003,0.001,0.000,0.000
64.048,2,0,-5.964,35.977,4257.045,-4.531,35.024,398.317,-0.517,11.670,-23.844,0.000,0.000,0.0120782,0.000,9144.000,1.172,4.606,3997.362,372.729,529.763,-18.447,5143.561,4260.055,-26.548,-0.436,-0.104,0.209,0.186,0.184,0.000,0.000,0.000,-0.135,0.672,0.194,0.702,0.0000000,0.0000000,4265.021,0.000,0.000,0.000,0,00:00:00,-856,0.000,4265.021,52996.918,-18.428,405.122,0.000,1.105,-25.636,0.012,-0.002,0.000,-0.002,0.000,0.000
64.149,2,0,-5.808,35.775,4297.007,-4.296,34.358,395.947,-0.729,12.222,-22.335,0.000,0.000,0.0121542,0.000,9144.000,1.166,3.470,4034.412,370.495,527.208,-18.681,5179.572,4296.066,-25.430,0.585,1.313,-0.032,0.563,-0.144,0.000,0.000,0.000,-0.147,0.690,0.186,0.684,0.0000000,0.0000000,4304.807,0.000,0.000,0.000,0,00:00:00,-856,0.000,4304.807,52719.879,-18.682,402.583,0.000,1.005,-25.494,-0.050,0.016,0.004,0.016,0.000,0.000
64.250,2,0,-5.641,35.525,4337.292,-3.964,33.554,393.971,0.316,10.720,-22.588,0.000,0.000,0.0121530,0.000,9144.000,1.159,0.261,4071.235,368.237,524.118,-18.966,5223.308,4339.803,-24.993,-0.269,0.699,0.227,0.208,0.018,0.000,0.000,0.000,-0.140,0.699,0.177,0.678,0.0000000,0.0000000,4344.342,0.000,0.000,0.000,0,00:00:00,-856,0.000,4344.342,52410.965,-18.967,400.070,0.000,1.009,-25.171,-0.079,0.021,-0.001,-0.006,0.000,0.000
64.351,2,0,-5.460,35.234,4377.023,-3.637,32.954,391.836,0.372,12.586,-21.509,0.000,0.000,0.0120704,0.000,9144.000,1.153,-1.002,4107.844,366.086,521.479,-19.210,5260.838,4377.332,-24.824,1.672,1.473,-0.071,0.131,0.373,0.000,0.000,0.000,-0.131,0.706,0.192,0.670,0.0000000,0.0000000,4383.629,0.000,0.000,0.000,0,00:00:00,-856,0.000,4383.629,52171.801,-19.188,397.583,0.000,1.056,-24.939,-0.029,-0.003,0.014,0.022,0.000,0.000
64.452,2,0,-5.266,34.904,4416.953,-3.332,32.113,389.737,0.247,10.033,-24.318,0.000,0.000,0.0121127,0.000,9144.000,1.146,-1.717,4144.209,363.654,518.499,-19.486,5303.389,4419.884,-26.191,-1.862,1.624,0.009,0.206,-0.316,0.000,0.000,0.000,-0.144,0.710,0.179,0.665,0.0000000,0.0000000,4422.672,0.000,0.000,0.000,0,00:00:00,-856,0.000,4422.672,51837.641,-19.498,395.120,0.000,0.988,-24.703,0.071,-0.007,0.013,0.014,0.000,0.000
64.553,2,0,-5.062,34.529,4451.104,-3.020,31.291,383.479,0.432,10.020,-24.320,0.000,0.000,0.0122501,0.000,9144.000,1.138,-2.901,4180.332,361.222,518.499,-19.486,5303.389,4419.884,-26.191,-1.862,1.624,0.009,0.206,-0.316,0.000,0.000,0.000,-0.156,0.715,0.167,0.661,0.0000000,0.0000000,4422.672,0.000,0.000,0.000,0,00:00:00,-856,0.000,4422.672,51837.641,-19.498,395.120,0.000,0.988,-24.703,0.071,-0.007,0.013,0.014,0.000,0.000
64.654,2,0,-4.849,34.120,4489.563,-2.689,30.595,381.158,0.729,11.049,-21.795,0.000,0.000,0.0124541,0.000,9144.000,1.132,-4.084,4216.236,359.042,513.718,-19.933,5372.083,4488.578,-24.416,-0.010,1.214,-0.073,0.108,-0.184,0.000,0.000,0.000,-0.166,0.716,0.163,0.658,0.0000000,0.0000000,4500.032,0.000,0.000,0.000,0,00:00:00,-856,0.000,4500.032,51322.473,-19.979,390.268,0.000,1.010,-24.130,0.005,0.007,0.011,0.009,0.000,0.000
64.755,2,0,-4.627,33.697,4528.544,-2.408,30.137,379.228,0.348,13.194,-23.577,0.000,0.000,0.0124592,0.000,9144.000,1.125,-4.691,4251.904,356.685,510.697,-20.217,5415.755,4532.249,-26.913,1.227,2.064,0.040,-0.009,0.240,0.000,0.000,0.000,-0.156,0.718,0.169,0.656,0.0000000,0.0000000,4538.354,0.000,0.000,0.000,0,00:00:00,-856,0.000,4538.354,51106.062,-20.183,387.877,0.000,0.972,-23.947,0.028,0.022,-0.000,0.007,0.000,0.000
64.856,2,0,-4.399,33.272,4561.894,-2.109,29.692,373.231,0.642,13.087,-23.630,0.000,0.000,0.0129271,0.000,9144.000,1.117,-4.644,4287.336,354.322,510.697,-20.217,5415.755,4532.249,-26.913,1.227,2.064,0.040,-0.009,0.240,0.000,0.000,0.000,-0.146,0.720,0.176,0.655,0.0000000,0.0000000,4538.354,0.000,0.000,0.000,0,00:00:00,-856,0.000,4538.354,51106.062,-20.183,387.877,0.000,0.972,-23.947,0.028,0.022,-0.000,0.007,0.000,0.000
64.957,2,0,-4.153,32.832,4600.873,-1.527,28.949,372.185,3.585,9.909,-20.621,0.000,0.000,0.0134038,0.000,9144.000,1.112,-4.602,4322.562,352.260,505.397,-20.719,5492.893,4609.387,-23.132,-0.500,-0.965,-0.111,0.154,0.022,0.000,0.000,0.000,-0.150,0.724,0.179,0.648,0.0000000,0.0000000,4614.292,0.000,0.000,0.000,0,00:00:00,-856,0.000,4614.292,50604.070,-20.658,383.165,0.000,1.069,-23.487,-0.009,-0.010,-0.011,-0.000,0.000,0.000
65.058,2,0,-3.887,32.364,4639.277,-1.177,28.152,370.616,1.413,9.134,-22.395,0.000,0.000,0.0131750,0.000,9144.000,1.105,-5.440,4357.564,350.020,502.967,-20.950,5528.474,4644.968,-24.150,-1.240,1.479,0.314,-0.043,0.259,0.000,0.000,0.000,-0.130,0.728,0.177,0.650,0.0000000,0.0000000,4651.913,0.000,0.000,0.000,0,00:00:00,-856,0.000,4651.913,50282.691,-20.963,380.842,0.000,1.071,-23.300,0.078,-0.007,0.007,-0.005,0.000,0.000
65.159,2,0,-3.604,31.880,4677.256,-0.628,27.665,369.220,3.545,11.938,-18.566,0.000,0.000,0.0131089,0.000,9144.000,1.100,-5.333,4392.381,348.163,500.503,-21.186,5564.697,4681.191,-22.251,2.131,-0.373,-0.346,0.329,-0.197,0.000,0.000,0.000,-0.152,0.734,0.181,0.637,0.0000000,0.0000000,4689.304,0.000,0.000,0.000,0,00:00:00,-856,0.000,4689.304,50057.512,-21.179,378.540,0.000,1.002,-23.073,0.019,0.002,-0.018,0.015,0.000,0.000
65.260,2,0,-3.293,31.397,4714.713,0.036,27.166,367.430,4.844,11.575,-19.701,0.000,0.000,0.0130213,0.000,9144.000,1.094,-7.053,4427.000,346.193,498.120,-21.414,5599.857,4716.351,-23.288,1.624,-0.772,0.164,0.344,0.070,0.000,0.000,0.000,-0.147,0.747,0.174,0.625,0.0000000,0.0000000,4726.468,0.000,0.000,0.000,0,00:00:00,-856,0.000,4726.468,49785.426,-21.440,376.260,0.000,1.018,-22.871,0.023,-0.013,0.008,0.004,0.000,0.000
65.361,2,0,-2.958,30.924,4752.380,0.536,26.899,365.959,3.389,13.617,-19.412,0.000,0.000,0.0131139,0.000,9144.000,1.088,-9.091,4461.425,344.252,495.418,-21.675,5639.908,4756.402,-23.790,2.744,0.482,-0.335,-0.030,-0.187,0.000,0.000,0.000,-0.164,0.741,0.181,0.625,0.0000000,0.0000000,4763.407,0.000,0.000,0.000,0,00:00:00,-856,0.000,4763.407,49513.152,-21.702,374.001,0.000,0.953,-22.603,0.064,-0.000,-0.004,-0.005,0.000,0.000
65.462,2,0,-2.613,30.461,4789.645,0.925,26.421,364.372,2.482,11.288,-18.657,0.000,0.000,0.0133961,0.000,9144.000,1.083,-8.781,4495.664,342.387,493.019,-21.907,5675.595,4792.089,-21.906,1.032,0.849,-0.018,-0.129,-0.020,0.000,0.000,0.000,-0.164,0.737,0.182,0.630,0.0000000,0.0000000,4800.123,0.000,0.000,0.000,0,00:00:00,-856,0.000,4800.123,49323.250,-21.886,371.762,0.000,0.975,-22.541,-0.046,-0.007,0.001,-0.002,0.000,0.000
65.563,2,0,-2.265,29.994,4826.488,1.332,25.854,362.543,2.835,10.161,-19.136,0.000,0.000,0.0132358,0.000,9144.000,1.077,-8.036,4529.711,340.473,490.660,-22.136,5710.843,4827.337,-21.828,-0.526,0.855,-0.147,0.178,0.009,0.000,0.000,0.000,-0.170,0.741,0.186,0.622,0.0000000,0.0000000,4836.618,0.000,0.000,0.000,0,00:00:00,-856,0.000,4836.618,49045.723,-22.156,369.543,0.000,1.081,-22.303,0.006,0.002,0.006,-0.009,0.000,0.000
65.664,2,0,-1.913,29.524,4863.197,1.719,25.383,360.686,2.833,10.858,-19.823,0.000,0.000,0.0130602,0.000,9144.000,1.071,-8.999,4563.560,338.491,488.190,-22.377,5747.892,4864.386,-22.773,-0.386,0.338,-0.034,-0.195,-0.260,0.000,0.000,0.000,-0.179,0.732,0.181,0.631,0.0000000,0.0000000,4872.894,0.000,0.000,0.000,0,00:00:00,-856,0.000,4872.894,48748.359,-22.446,367.344,0.000,1.029,-22.123,0.011,-0.002,-0.000,0.007,0.000,0.000
65.765,2,0,-1.563,29.051,4899.378,1.994,24.846,358.587,1.898,9.958,-19.690,0.000,0.000,0.0131263,0.000,9144.000,1.065,-7.872,4597.212,336.522,485.926,-22.599,5781.977,4898.471,-22.041,-0.834,1.992,0.089,0.265,0.265,0.000,0.000,0.000,-0.169,0.744,0.184,0.620,0.0000000,0.0000000,4908.952,0.000,0.000,0.000,0,00:00:00,-856,0.000,4908.952,48569.359,-22.621,365.164,0.000,0.940,-21.844,0.005,-0.007,-0.009,0.004,0.000,0.000
65.866,2,0,-1.222,28.581,4935.634,2.256,24.473,356.780,1.948,11.344,-18.880,0.000,0.000,0.0130617,0.000,9144.000,1.060,-9.415,4630.676,334.634,483.414,-22.846,5819.964,4936.458,-22.062,0.296,1.456,-0.207,-0.163,-0.130,0.000,0.000,0.000,-0.179,0.736,0.189,0.625,0.0000000,0.0000000,4944.794,0.000,0.000,0.000,0,00:00:00,-856,0.000,4944.794,48337.875,-22.849,363.002,0.000,1.006,-21.700,0.061,-0.002,0.015,0.006,0.000,0.000
65.967,2,0,-0.887,28.118,4971.915,2.550,24.034,355.286,2.444,10.439,-17.276,0.000,0.000,0.0131378,0.000,9144.000,1.055,-8.411,4663.966,332.906,480.943,-23.090,5857.478,4973.972,-20.316,0.213,0.782,-0.052,0.020,0.060,0.000,0.000,0.000,-0.178,0.736,0.192,0.624,0.0000000,0.0000000,4980.423,0.000,0.000,0.000,0,00:00:00,-856,0.000,4980.423,48075.391,-23.108,360.860,0.000,1.031,-21.516,-0.011,-0.015,0.002,0.011,0.000,0.000
66.068,2,0,-0.562,27.660,5007.413,2.746,23.621,353.010,1.651,10.460,-20.444,0.000,0.000,0.0129371,0.000,9144.000,1.049,-8.507,4697.053,330.862,478.862,-23.296,5889.185,5005.679,-22.932,-1.217,1.647,0.086,-0.021,-0.326,0.000,0.000,0.000,-0.187,0.734,0.179,0.628,0.0000000,0.0000000,5015.840,0.000,0.000,0.000,0,00:00:00,-856,0.000,5015.840,47869.266,-23.313,358.735,0.000,1.038,-21.317,0.041,-0.011,-0.002,-0.004,0.000,0.000
66.169,2,0,-0.244,27.206,5042.983,3.051,23.202,351.183,2.890,10.157,-18.157,0.000,0.000,0.0131845,0.000,9144.000,1.043,-8.407,4729.957,329.046,476.420,-23.539,5926.548,5043.042,-20.972,0.371,1.111,0.326,0.357,0.399,0.000,0.000,0.000,-0.166,0.751,0.176,0.614,0.0000000,0.0000000,5051.046,0.000,0.000,0.000,0,00:00:00,-856,0.000,5051.046,47661.777,-23.519,356.628,0.000,1.080,-21.127,0.004,-0.009,-0.006,-0.004,0.000,0.000
66.270,2,0,0.065,26.759,5078.588,3.184,22.817,349.461,1.350,10.258,-18.757,0.000,0.000,0.0131268,0.000,9144.000,1.038,-10.533,4762.674,327.170,474.013,-23.779,5963.507,5080.001,-21.212,0.070,2.984,-0.076,0.114,0.027,0.000,0.000,0.000,-0.168,0.754,0.179,0.609,0.0000000,0.0000000,5086.044,0.000,0.000,0.000,0,00:00:00,-856,0.000,5086.044,47433.328,-23.747,354.539,0.000,0.952,-20.998,-0.018,-0.007,-0.006,0.003,0.000,0.000
66.371,2,0,0.358,26.313,5113.764,3.352,22.322,347.742,1.852,8.936,-16.766,0.000,0.000,0.0131589,0.000,9144.000,1.033,-11.159,4795.224,325.494,471.837,-23.997,5997.066,5113.560,-19.013,-0.587,1.593,-0.227,-0.255,-0.011,0.000,0.000,0.000,-0.173,0.744,0.190,0.617,0.0000000,0.0000000,5120.836,0.000,0.000,0.000,0,00:00:00,-856,0.000,5120.836,47160.594,-24.021,352.467,0.000,1.009,-20.745,-0.093,-0.006,0.003,0.003,0.000,0.000
66.472,2,0,0.653,25.870,5148.461,3.838,21.986,345.868,5.152,10.285,-16.018,0.000,0.000,0.0127874,0.000,9144.000,1.028,-9.612,4827.613,323.892,469.719,-24.210,6029.857,5146.351,-19.675,1.006,-0.901,0.056,0.347,0.201,0.000,0.000,0.000,-0.167,0.757,0.191,0.602,0.0000000,0.0000000,5155.422,0.000,0.000,0.000,0,00:00:00,-856,0.000,5155.422,46935.000,-24.248,350.411,0.000,1.039,-20.613,0.010,0.001,-0.003,0.006,0.000,0.000
66.573,2,0,0.959,25.445,5183.020,4.194,21.772,343.931,4.025,11.263,-17.058,0.000,0.000,0.0128428,0.000,9144.000,1.023,-11.619,4859.831,322.186,467.472,-24.438,6064.770,5181.264,-20.765,1.680,0.104,0.151,-0.169,-0.074,0.000,0.000,0.000,-0.163,0.753,0.184,0.611,0.0000000,0.0000000,5189.805,0.000,0.000,0.000,0,00:00:00,-856,0.000,5189.805,46743.859,-24.441,348.372,0.000,1.162,-20.502,0.090,0.002,0.006,0.005,0.000,0.000
66.674,2,0,1.266,25.028,5217.325,4.474,21.312,341.777,3.442,8.602,-18.843,0.000,0.000,0.0131118,0.000,9144.000,1.018,-10.728,4891.862,320.302,465.292,-24.659,6098.770,5215.264,-20.934,-1.482,0.686,0.081,0.133,-0.423,0.000,0.000,0.000,-0.178,0.754,0.167,0.610,0.0000000,0.0000000,5223.985,0.000,0.000,0.000,0,00:00:00,-856,0.000,5223.985,46512.570,-24.675,346.350,0.000,1.089,-20.333,0.070,0.007,-0.001,0.010,0.000,0.000
66.775,2,0,1.568,24.609,5246.635,4.727,20.873,336.051,3.328,8.592,-18.868,0.000,0.000,0.0131584,0.000,9144.000,1.012,-11.513,4923.703,318.415,465.292,-24.659,6098.770,5215.264,-20.934,-1.482,0.686,0.081,0.133,-0.423,0.000,0.000,0.000,-0.193,0.754,0.150,0.609,0.0000000,0.0000000,5223.985,0.000,0.000,0.000,0,00:00:00,-856,0.000,5223.985,46512.570,-24.675,346.350,0.000,1.089,-20.333,0.070,0.007,-0.001,0.010,0.000,0.000
66.876,2,0,1.867,24.188,5280.302,5.013,20.404,333.976,3.814,8.081,-19.240,0.000,0.000,0.0132922,0.000,9144.000,1.006,-12.280,4955.352,316.491,461.213,-25.075,6162.728,5279.223,-21.118,-1.816,0.863,0.175,0.348,-0.096,0.000,0.000,0.000,-0.193,0.765,0.137,0.598,0.0000000,0.0000000,5291.747,0.000,0.000,0.000,0,00:00:00,-856,0.000,5291.747,46066.262,-25.131,342.352,0.000,1.005,-19.931,0.024,-0.016,0.013,0.014,0.000,0.000
66.977,2,0,2.155,23.763,5313.865,5.129,19.923,332.068,2.279,7.733,-18.338,0.000,0.000,0.0134594,0.000,9144.000,1.001,-14.255,4986.818,314.657,459.045,-25.297,6196.910,5313.404,-19.906,-1.010,1.998,0.294,0.064,-0.239,0.000,0.000,0.000,-0.194,0.767,0.118,0.600,0.0000000,0.0000000,5325.331,0.000,0.000,0.000,0,00:00:00,-856,0.000,5325.331,45861.758,-25.341,340.376,0.000,0.939,-19.855,-0.057,0.007,0.009,-0.019,0.000,0.000
67.078,2,0,2.433,23.344,5347.827,5.357,19.665,330.786,3.537,9.728,-16.439,0.000,0.000,0.0133592,0.000,9144.000,0.996,-14.554,5018.119,313.013,456.674,-25.541,6234.445,5350.939,-19.405,0.905,0.148,-0.214,-0.003,-0.131,0.000,0.000,0.000,-0.206,0.764,0.122,0.599,0.0000000,0.0000000,5358.719,0.000,0.000,0.000,0,00:00:00,-856,0.000,5358.719,45670.145,-25.538,338.415,0.000,0.945,-19.672,0.053,0.019,-0.024,0.001,0.000,0.000
67.179,2,0,2.705,22.945,5381.382,5.575,19.487,329.227,3.581,10.305,-17.156,0.000,0.000,0.0134334,0.000,9144.000,0.991,-14.610,5049.249,311.298,454.669,-25.748,6266.313,5382.808,-20.321,0.598,-0.056,-0.203,-0.124,-0.171,0.000,0.000,0.000,-0.217,0.757,0.126,0.603,0.0000000,0.0000000,5391.913,0.000,0.000,0.000,0,00:00:00,-856,0.000,5391.913,45507.488,-25.706,336.469,0.000,1.057,-19.542,0.022,-0.004,-0.003,-0.012,0.000,0.000
67.280,2,0,2.965,22.575,5414.751,5.649,19.487,327.538,2.296,11.864,-18.281,0.000,0.000,0.0137236,0.000,9144.000,0.986,-13.981,5080.196,309.469,452.585,-25.964,6299.547,5416.041,-21.829,1.070,1.611,-0.305,0.015,0.098,0.000,0.000,0.000,-0.223,0.757,0.140,0.598,0.0000000,0.0000000,5424.913,0.000,0.000,0.000,0,00:00:00,-856,0.000,5424.913,45158.746,-26.068,334.537,0.000,1.062,-19.310,0.040,0.004,-0.004,0.015,0.000,0.000
67.381,2,0,3.212,22.227,5448.039,5.840,19.225,325.968,3.577,9.102,-17.747,0.000,0.000,0.0143659,0.000,9144.000,0.981,-14.182,5110.965,307.695,450.473,-26.184,6333.371,5449.865,-20.258,-0.447,-0.036,0.413,-0.201,0.075,0.000,0.000,0.000,-0.206,0.754,0.129,0.610,0.0000000,0.0000000,5457.722,0.000,0.000,0.000,0,00:00:00,-856,0.000,5457.722,45019.914,-26.213,332.620,0.000,1.094,-19.316,-0.030,-0.009,0.008,-0.008,0.000,0.000
67.482,2,0,3.449,21.889,5481.393,5.935,18.973,324.676,2.757,9.012,-16.603,0.000,0.000,0.0144222,0.000,9144.000,0.976,-12.899,5141.569,306.034,448.314,-26.410,6368.061,5484.555,-19.083,-0.355,0.448,-0.222,-0.011,-0.132,0.000,0.000,0.000,-0.218,0.751,0.134,0.609,0.0000000,0.0000000,5490.341,0.000,0.000,0.000,0,00:00:00,-856,0.000,5490.341,44839.566,-26.401,330.717,0.000,0.989,-19.027,-0.055,0.000,-0.010,0.008,0.000,0.000
67.583,2,0,3.672,21.562,5509.961,6.004,18.779,319.926,2.618,9.414,-16.401,0.000,0.000,0.0142714,0.000,9144.000,0.970,-12.917,5172.008,304.394,448.314,-26.410,6368.061,5484.555,-19.083,-0.355,0.448,-0.222,-0.011,-0.132,0.000,0.000,0.000,-0.230,0.748,0.138,0.607,0.0000000,0.0000000,5490.341,0.000,0.000,0.000,0,00:00:00,-856,0.000,5490.341,44839.566,-26.401,330.717,0.000,0.989,-19.027,-0.055,0.000,-0.010,0.008,0.000,0.000
67.684,2,0,3.877,21.249,5542.840,6.007,18.618,318.831,2.070,9.584,-15.626,0.000,0.000,0.0142824,0.000,9144.000,0.966,-12.945,5202.291,302.832,444.462,-26.815,6430.313,5546.807,-18.407,1.016,0.688,0.391,-0.099,0.187,0.000,0.000,0.000,-0.210,0.750,0.130,0.614,0.0000000,0.0000000,5555.013,0.000,0.000,0.000,0,00:00:00,-856,0.000,5555.013,44448.398,-26.812,326.951,0.000,0.989,-18.797,-0.027,-0.005,-0.006,0.019,0.000,0.000
67.785,2,0,4.074,20.948,5575.594,6.242,18.373,317.587,4.470,8.596,-17.037,0.000,0.000,0.0142265,0.000,9144.000,0.961,-12.225,5232.404,301.128,442.449,-27.027,6463.018,5579.512,-19.549,-0.978,-1.007,-0.094,0.097,0.108,0.000,0.000,0.000,-0.209,0.753,0.136,0.609,0.0000000,0.0000000,5587.069,0.000,0.000,0.000,0,00:00:00,-856,0.000,5587.069,44244.477,-27.028,325.089,0.000,1.018,-18.670,-0.065,0.002,-0.021,-0.000,0.000,0.000
67.886,2,0,4.262,20.645,5607.923,6.223,17.988,316.158,2.047,7.037,-16.646,0.000,0.000,0.0143847,0.000,9144.000,0.956,-12.811,5262.350,299.463,440.579,-27.225,6493.500,5609.994,-18.036,-2.057,1.138,-0.147,-0.191,0.115,0.000,0.000,0.000,-0.208,0.747,0.147,0.614,0.0000000,0.0000000,5618.939,0.000,0.000,0.000,0,00:00:00,-856,0.000,5618.939,44043.250,-27.241,323.239,0.000,1.059,-18.666,-0.023,-0.006,-0.015,0.010,0.000,0.000
67.987,2,0,4.429,20.342,5640.179,6.168,17.734,314.866,1.787,8.192,-15.790,0.000,0.000,0.0140299,0.000,9144.000,0.952,-11.758,5292.139,297.884,438.583,-27.438,6526.169,5642.663,-17.786,-0.065,1.818,0.232,0.206,0.456,0.000,0.000,0.000,-0.186,0.760,0.150,0.605,0.0000000,0.0000000,5650.626,0.000,0.000,0.000,0,00:00:00,-856,0.000,5650.626,43839.922,-27.457,321.402,0.000,1.066,-18.370,-0.109,0.011,0.012,-0.008,0.000,0.000
68.088,2,0,4.576,20.046,5672.216,6.138,17.519,313.606,2.108,8.409,-14.772,0.000,0.000,0.0138465,0.000,9144.000,0.947,-12.915,5321.780,296.407,436.667,-27.642,6557.630,5674.124,-17.075,0.423,1.273,-0.092,-0.067,0.096,0.000,0.000,0.000,-0.184,0.758,0.157,0.606,0.0000000,0.0000000,5682.131,0.000,0.000,0.000,0,00:00:00,-856,0.000,5682.131,43703.023,-27.604,319.577,0.000,1.054,-18.289,-0.017,0.006,-0.004,-0.004,0.000,0.000
68.189,2,0,4.714,19.749,5704.253,6.272,17.106,312.342,3.809,6.296,-15.793,0.000,0.000,0.0136504,0.000,9144.000,0.943,-12.527,5351.262,294.828,434.674,-27.856,6590.475,5706.970,-17.316,-1.885,-0.389,0.044,-0.208,0.240,0.000,0.000,0.000,-0.172,0.754,0.165,0.612,0.0000000,0.0000000,5713.455,0.000,0.000,0.000,0,00:00:00,-856,0.000,5713.455,43463.367,-27.860,317.765,0.000,1.050,-18.176,0.018,-0.005,0.013,0.011,0.000,0.000
68.290,2,0,4.844,19.450,5735.931,6.239,16.876,310.893,2.220,7.948,-15.920,0.000,0.000,0.0133923,0.000,9144.000,0.938,-11.341,5380.586,293.236,432.844,-28.053,6620.742,5737.236,-17.897,-0.277,1.077,0.063,-0.098,-0.019,0.000,0.000,0.000,-0.170,0.751,0.162,0.616,0.0000000,0.0000000,5744.598,0.000,0.000,0.000,0,00:00:00,-856,0.000,5744.598,43310.211,-28.025,315.966,0.000,0.997,-18.020,0.009,-0.011,-0.004,0.002,0.000,0.000
68.391,2,0,4.958,19.164,5767.150,6.184,16.770,309.385,2.062,9.032,-14.134,0.000,0.000,0.0134247,0.000,9144.000,0.934,-10.791,5409.768,291.822,431.081,-28.243,6649.991,5766.485,-16.821,1.349,0.925,-0.086,0.019,-0.053,0.000,0.000,0.000,-0.175,0.751,0.164,0.615,0.0000000,0.0000000,5775.562,0.000,0.000,0.000,0,00:00:00,-856,0.000,5775.562,43077.301,-28.276,314.178,0.000,1.043,-17.955,-0.016,-0.002,-0.011,-0.008,0.000,0.000
68.492,2,0,5.057,18.897,5798.115,6.154,16.694,307.813,2.358,9.188,-13.991,0.000,0.000,0.0134748,0.000,9144.000,0.930,-10.882,5438.811,290.423,429.260,-28.440,6680.320,5796.814,-16.831,1.510,0.390,0.032,0.029,-0.285,0.000,0.000,0.000,-0.185,0.749,0.154,0.617,0.0000000,0.0000000,5806.348,0.000,0.000,0.000,0,00:00:00,-856,0.000,5806.348,42904.375,-28.464,312.401,0.000,0.981,-17.891,-0.004,0.011,0.007,0.006,0.000,0.000
68.593,2,0,5.139,18.636,5828.891,6.004,16.364,306.088,1.226,6.529,-15.335,0.000,0.000,0.0135909,0.000,9144.000,0.925,-11.051,5467.700,288.890,427.426,-28.640,6710.953,5827.447,-16.552,-1.660,1.607,-0.162,-0.035,-0.177,0.000,0.000,0.000,-0.196,0.745,0.155,0.618,0.0000000,0.0000000,5836.958,0.000,0.000,0.000,0,00:00:00,-856,0.000,5836.958,42778.410,-28.601,310.641,0.000,1.021,-17.695,0.054,-0.027,-0.024,0.001,0.000,0.000
68.694,2,0,5.199,18.376,5859.444,5.847,16.185,304.442,1.172,7.892,-14.165,0.000,0.000,0.0132506,0.000,9144.000,0.921,-10.853,5496.447,287.473,425.624,-28.836,6741.178,5857.672,-16.200,0.079,1.364,-0.003,-0.025,-0.031,0.000,0.000,0.000,-0.197,0.744,0.154,0.619,0.0000000,0.0000000,5867.394,0.000,0.000,0.000,0,00:00:00,-856,0.000,5867.394,42527.562,-28.874,308.896,0.000,0.999,-17.469,-0.082,-0.012,-0.010,-0.014,0.000,0.000
68.795,2,0,5.236,18.129,5889.843,5.619,16.103,302.762,0.502,8.729,-14.603,0.000,0.000,0.0131378,0.000,9144.000,0.916,-10.708,5525.048,286.013,423.812,-29.034,6771.662,5888.156,-16.963,0.279,1.369,-0.188,-0.410,-0.189,0.000,0.000,0.000,-0.207,0.728,0.159,0.634,0.0000000,0.0000000,5897.656,0.000,0.000,0.000,0,00:00:00,-856,0.000,5897.656,42381.219,-29.034,307.164,0.000,1.007,-17.336,-0.048,0.008,-0.010,-0.006,0.000,0.000
68.896,2,0,5.249,17.904,5920.009,5.412,16.160,300.905,0.713,9.976,-15.922,0.000,0.000,0.0133340,0.000,9144.000,0.912,-8.387,5553.490,284.421,422.046,-29.228,6801.478,5917.972,-18.737,0.680,1.413,0.003,0.203,-0.227,0.000,0.000,0.000,-0.216,0.732,0.150,0.628,0.0000000,0.0000000,5927.747,0.000,0.000,0.000,0,00:00:00,-856,0.000,5927.747,42244.797,-29.184,305.447,0.000,1.023,-17.254,-0.005,0.002,-0.005,0.006,0.000,0.000
68.997,2,0,5.243,17.699,5950.678,5.221,16.078,299.691,0.866,8.497,-14.622,0.000,0.000,0.0140390,0.000,9144.000,0.907,-9.550,5581.786,282.959,419.988,-29.455,6836.340,5952.834,-16.904,-0.024,1.004,-0.027,-0.134,0.082,0.000,0.000,0.000,-0.213,0.729,0.155,0.632,0.0000000,0.0000000,5957.667,0.000,0.000,0.000,0,00:00:00,-856,0.000,5957.667,41994.809,-29.459,303.743,0.000,1.040,-17.019,0.027,0.010,0.004,-0.003,0.000,0.000
69.098,2,0,5.218,17.510,5980.215,4.978,16.105,297.662,0.340,9.472,-15.253,0.000,0.000,0.0140839,0.000,9144.000,0.903,-8.788,5609.930,281.433,418.613,-29.607,6859.709,5976.203,-17.878,1.054,1.314,0.281,-0.265,0.204,0.000,0.000,0.000,-0.195,0.724,0.154,0.643,0.0000000,0.0000000,5987.417,0.000,0.000,0.000,0,00:00:00,-856,0.000,5987.417,41889.137,-29.576,302.053,0.000,0.977,-16.933,-0.065,0.010,0.011,0.016,0.000,0.000
69.199,2,0,5.181,17.326,6009.415,4.925,15.792,295.488,2.196,6.010,-15.731,0.000,0.000,0.0145015,0.000,9144.000,0.898,-7.211,5637.916,279.860,416.947,-29.792,6888.112,6004.606,-16.865,-1.977,-0.251,0.215,0.048,0.116,0.000,0.000,0.000,-0.184,0.729,0.149,0.643,0.0000000,0.0000000,6017.000,0.000,0.000,0.000,0,00:00:00,-856,0.000,6017.000,41678.105,-29.810,300.375,0.000,1.014,-16.834,-0.045,0.010,-0.022,0.007,0.000,0.000
69.300,2,0,5.129,17.137,6039.276,4.574,15.610,293.945,-0.784,7.210,-16.007,0.000,0.000,0.0142278,0.000,9144.000,0.893,-7.455,5665.742,278.260,414.886,-30.021,6923.390,6039.884,-17.407,-1.234,2.072,-0.212,-0.365,-0.129,0.000,0.000,0.000,-0.193,0.714,0.156,0.655,0.0000000,0.0000000,6046.415,0.000,0.000,0.000,0,00:00:00,-856,0.000,6046.415,41518.578,-29.988,298.710,0.000,1.061,-16.688,-0.018,0.009,0.023,-0.001,0.000,0.000
69.401,2,0,5.050,16.947,6068.516,4.208,15.402,291.947,-0.967,6.853,-17.112,0.000,0.000,0.0142965,0.000,9144.000,0.888,-5.394,5693.396,276.548,413.348,-30.193,6949.802,6066.296,-18.246,-1.782,2.149,0.156,-0.070,-0.119,0.000,0.000,0.000,-0.191,0.712,0.147,0.660,0.0000000,0.0000000,6075.665,0.000,0.000,0.000,0,00:00:00,-856,0.000,6075.665,41332.562,-30.195,297.058,0.000,0.962,-16.562,0.054,0.016,-0.005,0.002,0.000,0.000
69.502,2,0,4.953,16.762,6097.899,4.040,15.313,290.470,0.947,7.936,-14.404,0.000,0.000,0.0145632,0.000,9144.000,0.884,-4.961,5720.907,275.108,411.524,-30.397,6981.223,6097.717,-16.458,0.233,-0.640,0.014,-0.251,-0.307,0.000,0.000,0.000,-0.200,0.700,0.139,0.671,0.0000000,0.0000000,6104.751,0.000,0.000,0.000,0,00:00:00,-856,0.000,6104.751,41199.438,-30.344,295.417,0.000,1.051,-16.557,0.056,0.003,-0.003,-0.007,0.000,0.000
69.603,2,0,4.849,16.590,6126.173,3.848,15.315,288.255,0.651,8.752,-14.607,0.000,0.000,0.0145537,0.000,9144.000,0.879,-3.520,5748.272,273.647,410.229,-30.543,7003.607,6120.102,-17.001,1.094,-0.395,0.112,-0.135,0.242,0.000,0.000,0.000,-0.187,0.699,0.145,0.675,0.0000000,0.0000000,6133.673,0.000,0.000,0.000,0,00:00:00,-856,0.000,6133.673,41036.711,-30.527,293.789,0.000,1.086,-16.356,0.129,0.009,0.008,-0.004,0.000,0.000
69.704,2,0,4.730,16.435,6155.106,3.501,15.305,286.745,-0.949,8.544,-14.148,0.000,0.000,0.0148513,0.000,9144.000,0.875,-2.708,5775.495,272.233,408.248,-30.766,7037.951,6154.445,-16.477,1.070,1.199,-0.092,-0.015,0.023,0.000,0.000,0.000,-0.189,0.698,0.149,0.674,0.0000000,0.0000000,6162.434,0.000,0.000,0.000,0,00:00:00,-856,0.000,6162.434,40828.734,-30.761,292.172,0.000,1.037,-16.179,-0.019,0.010,0.018,-0.009,0.000,0.000
69.805,2,0,4.590,16.280,6183.744,3.128,15.017,285.117,-1.278,5.710,-14.263,0.000,0.000,0.0150125,0.000,9144.000,0.871,-2.649,5802.576,270.806,406.652,-30.946,7065.710,6182.205,-15.286,-1.599,1.198,-0.065,-0.276,-0.141,0.000,0.000,0.000,-0.194,0.687,0.149,0.684,0.0000000,0.0000000,6191.033,0.000,0.000,0.000,0,00:00:00,-856,0.000,6191.033,40722.023,-30.882,290.567,0.000,0.990,-16.160,0.049,0.005,0.017,-0.004,0.000,0.000
69.906,2,0,4.423,16.121,6211.412,2.645,14.908,282.682,-2.462,7.399,-16.383,0.000,0.000,0.0144366,0.000,9144.000,0.866,-1.089,5829.493,269.168,405.346,-31.095,7088.507,6205.001,-18.044,-0.306,1.876,0.433,-0.239,-0.007,0.000,0.000,0.000,-0.178,0.682,0.136,0.697,0.0000000,0.0000000,6219.473,0.000,0.000,0.000,0,00:00:00,-856,0.000,6219.473,40550.488,-31.077,288.973,0.000,1.044,-16.011,0.031,-0.008,-0.013,0.000,0.000,0.000
70.007,2,0,4.233,15.969,6239.980,2.277,14.843,281.336,-1.420,7.750,-13.974,0.000,0.000,0.0149839,0.000,9144.000,0.862,0.431,5856.270,267.771,403.317,-31.326,7124.023,6240.517,-15.957,1.506,0.691,0.301,0.063,-0.253,0.000,0.000,0.000,-0.176,0.684,0.116,0.699,0.0000000,0.0000000,6247.753,0.000,0.000,0.000,0,00:00:00,-856,0.000,6247.753,40348.508,-31.306,287.390,0.000,1.039,-15.874,0.023,0.004,-0.007,-0.009,0.000,0.000
70.108,2,0,4.032,15.822,6268.499,2.001,14.695,280.027,-0.606,6.856,-14.269,0.000,0.000,0.0150270,0.000,9144.000,0.858,0.200,5882.904,266.344,401.663,-31.515,7153.089,6269.584,-15.835,0.458,-0.171,-0.015,-0.205,0.235,0.000,0.000,0.000,-0.167,0.678,0.127,0.704,0.0000000,0.0000000,6275.876,0.000,0.000,0.000,0,00:00:00,-856,0.000,6275.876,40210.836,-31.464,285.818,0.000,0.992,-15.867,0.040,-0.009,0.023,-0.001,0.000,0.000
70.209,2,0,3.820,15.666,6296.219,1.641,14.353,278.082,-1.554,4.849,-15.690,0.000,0.000,0.0148543,0.000,9144.000,0.853,1.362,5909.382,264.775,400.320,-31.669,7176.766,6293.260,-16.373,-1.969,0.420,-0.026,-0.251,-0.115,0.000,0.000,0.000,-0.171,0.668,0.126,0.713,0.0000000,0.0000000,6303.843,0.000,0.000,0.000,0,00:00:00,-856,0.000,6303.843,39975.688,-31.733,284.256,0.000,0.969,-15.743,0.059,0.001,-0.002,-0.003,0.000,0.000
70.310,2,0,3.595,15.502,6324.154,1.288,14.185,276.634,-1.603,6.491,-13.741,0.000,0.000,0.0146167,0.000,9144.000,0.849,2.787,5935.722,263.401,398.601,-31.866,7207.163,6323.657,-15.281,0.046,0.128,-0.172,-0.215,-0.044,0.000,0.000,0.000,-0.177,0.659,0.132,0.719,0.0000000,0.0000000,6331.653,0.000,0.000,0.000,0,00:00:00,-856,0.000,6331.653,39876.090,-31.848,282.705,0.000,1.014,-15.595,-0.011,0.010,0.028,0.004,0.000,0.000
70.411,2,0,3.357,15.333,6351.296,0.877,13.933,274.799,-2.304,5.568,-12.735,0.000,0.000,0.0144561,0.000,9144.000,0.845,3.936,5961.934,262.127,397.296,-32.017,7230.300,6346.794,-14.037,-0.536,1.085,-0.143,0.043,0.092,0.000,0.000,0.000,-0.179,0.660,0.139,0.716,0.0000000,0.0000000,6359.309,0.000,0.000,0.000,0,00:00:00,-856,0.000,6359.309,39726.668,-32.020,281.163,0.000,1.044,-15.511,0.001,0.000,-0.003,0.014,0.000,0.000
70.512,2,0,3.107,15.155,6378.542,0.548,13.613,273.084,-1.626,4.801,-13.737,0.000,0.000,0.0139904,0.000,9144.000,0.841,3.625,5988.010,260.753,395.662,-32.206,7259.356,6375.850,-14.557,-1.576,0.075,0.118,-0.301,0.192,0.000,0.000,0.000,-0.167,0.652,0.145,0.725,0.0000000,0.0000000,6386.811,0.000,0.000,0.000,0,00:00:00,-856,0.000,6386.811,39583.316,-32.186,279.632,0.000,0.982,-15.421,0.008,0.005,0.020,-0.003,0.000,0.000
70.613,2,0,2.844,14.971,6405.678,0.067,13.463,271.453,-3.271,6.387,-13.359,0.000,0.000,0.0135509,0.000,9144.000,0.837,5.390,6013.951,259.417,394.120,-32.385,7286.873,6403.367,-15.075,0.877,1.388,0.586,-0.191,-0.024,0.000,0.000,0.000,-0.145,0.649,0.127,0.736,0.0000000,0.0000000,6414.160,0.000,0.000,0.000,0,00:00:00,-856,0.000,6414.160,39451.594,-32.339,278.110,0.000,1.037,-15.333,-0.083,-0.008,-0.010,-0.008,0.000,0.000
70.714,2,0,2.567,14.790,6432.410,-0.284,13.295,269.526,-2.128,6.114,-14.565,0.000,0.000,0.0138299,0.000,9144.000,0.832,6.651,6039.747,257.961,392.707,-32.549,7312.171,6428.666,-15.930,0.194,0.509,-0.009,0.290,-0.072,0.000,0.000,0.000,-0.149,0.659,0.122,0.727,0.0000000,0.0000000,6441.357,0.000,0.000,0.000,0,00:00:00,-856,0.000,6441.357,39274.242,-32.545,276.598,0.000,0.971,-15.169,-0.087,-0.004,0.008,0.015,0.000,0.000
70.815,2,0,2.284,14.616,6459.045,-0.642,13.227,267.964,-2.338,7.015,-11.552,0.000,0.000,0.0141155,0.000,9144.000,0.829,4.989,6065.428,256.806,391.196,-32.726,7339.306,6455.800,-13.559,1.648,1.250,-0.339,0.063,0.354,0.000,0.000,0.000,-0.150,0.662,0.146,0.720,0.0000000,0.0000000,6468.404,0.000,0.000,0.000,0,00:00:00,-856,0.000,6468.404,39096.844,-32.752,275.095,0.000,1.033,-15.094,-0.047,-0.014,0.011,-0.010,0.000,0.000
70.916,2,0,1.992,14.451,6485.736,-1.039,13.157,266.677,-2.882,6.904,-10.381,0.000,0.000,0.0142209,0.000,9144.000,0.826,4.550,6091.005,255.768,389.643,-32.907,7367.276,6483.770,-12.600,1.494,1.657,-0.356,-0.331,0.201,0.000,0.000,0.000,-0.154,0.648,0.167,0.727,0.0000000,0.0000000,6495.300,0.000,0.000,0.000,0,00:00:00,-856,0.000,6495.300,38933.539,-32.944,273.602,0.000,1.039,-14.995,0.077,0.009,0.003,0.007,0.000,0.000
71.017,2,0,1.695,14.298,6512.949,-1.382,13.125,265.425,-2.512,7.209,-15.027,0.000,0.000,0.0143058,0.000,9144.000,0.821,6.416,6116.431,254.265,387.908,-33.111,7398.637,6515.131,-16.848,0.236,0.411,0.273,-0.153,-0.198,0.000,0.000,0.000,-0.149,0.644,0.152,0.735,0.0000000,0.0000000,6522.046,0.000,0.000,0.000,0,00:00:00,-856,0.000,6522.046,38826.195,-33.070,272.117,0.000,1.003,-14.915,-0.041,-0.002,0.007,0.005,0.000,0.000
71.118,2,0,1.392,14.154,6536.239,-1.747,13.055,261.321,-2.882,6.743,-15.176,0.000,0.000,0.0150996,0.000,9144.000,0.816,7.317,6141.706,252.747,387.908,-33.111,7398.637,6515.131,-16.848,0.236,0.411,0.273,-0.153,-0.198,0.000,0.000,0.000,-0.144,0.638,0.137,0.744,0.0000000,0.0000000,6522.046,0.000,0.000,0.000,0,00:00:00,-856,0.000,6522.046,38826.195,-33.070,272.117,0.000,1.003,-14.915,-0.041,-0.002,0.007,0.005,0.000,0.000
71.219,2,0,1.084,14.015,6555.908,-2.133,12.943,254.810,-3.244,6.266,-15.307,0.000,0.000,0.0157946,0.000,9144.000,0.811,8.244,6166.828,251.217,387.908,-33.111,7398.637,6515.131,-16.848,0.236,0.411,0.273,-0.153,-0.198,0.000,0.000,0.000,-0.139,0.633,0.122,0.752,0.0000000,0.0000000,6522.046,0.000,0.000,0.000,0,00:00:00,-856,0.000,6522.046,38826.195,-33.070,272.117,0.000,1.003,-14.915,-0.041,-0.002,0.007,0.005,0.000,0.000
71.320,2,0,0.767,13.874,6582.784,-2.571,12.732,254.370,-3.933,5.212,-13.286,0.000,0.000,0.0164898,0.000,9144.000,0.808,9.194,6191.817,249.888,383.780,-33.599,7473.698,6590.192,-14.751,-0.270,1.230,-0.199,-0.125,-0.126,0.000,0.000,0.000,-0.150,0.626,0.125,0.755,0.0000000,0.0000000,6601.400,0.000,0.000,0.000,0,00:00:00,-856,0.000,6601.400,38334.117,-33.652,267.715,0.000,0.990,-14.815,-0.016,0.004,0.002,-0.005,0.000,0.000
71.421,2,0,0.439,13.729,6605.855,-3.015,12.551,251.136,-4.166,5.424,-13.130,0.000,0.000,0.0164002,0.000,9144.000,0.804,9.837,6216.674,248.575,383.780,-33.599,7473.698,6590.192,-14.751,-0.270,1.230,-0.199,-0.125,-0.126,0.000,0.000,0.000,-0.161,0.619,0.127,0.758,0.0000000,0.0000000,6601.400,0.000,0.000,0.000,0,00:00:00,-856,0.000,6601.400,38334.117,-33.652,267.715,0.000,0.990,-14.815,-0.016,0.004,0.002,-0.005,0.000,0.000
71.522,3,0,0.098,13.577,6632.311,-3.555,12.290,250.592,-5.293,4.554,-13.993,0.000,0.000,0.0165115,0.000,9144.000,0.800,10.460,6241.392,247.176,381.091,-33.920,7522.950,6639.444,-15.425,-1.193,2.282,0.131,0.032,-0.028,0.000,0.000,0.000,-0.157,0.621,0.122,0.758,0.0000000,0.0000000,6653.571,0.000,0.000,0.000,0,00:00:00,-856,0.000,6653.571,38117.324,-33.910,264.823,0.000,1.056,-14.585,-0.115,0.018,-0.002,0.002,0.000,0.000
71.623,3,0,-0.256,13.422,6658.543,-3.979,12.162,250.155,-4.337,5.793,-11.585,0.000,0.000,0.0165115,9048.496,9144.000,0.796,10.341,6265.993,246.017,379.725,-34.083,7548.067,6664.561,-13.502,0.852,1.887,0.038,0.073,0.211,0.000,0.000,0.000,-0.149,0.626,0.128,0.755,0.0000000,0.0000000,6679.440,0.000,0.000,0.000,0,00:00:00,-856,0.000,6679.440,37968.363,-34.088,263.389,0.000,0.974,-14.391,0.042,0.009,0.010,0.009,0.000,0.000
71.724,3,0,-0.611,13.265,6685.365,-4.294,11.946,250.242,-3.437,4.835,-11.067,0.000,0.000,0.0165115,9075.463,9144.000,0.793,9.939,6290.484,244.911,378.061,-34.283,7578.766,6695.261,-12.515,0.231,1.005,-0.068,0.055,-0.422,0.000,0.000,0.000,-0.165,0.624,0.114,0.755,0.0000000,0.0000000,6705.166,0.000,0.000,0.000,0,00:00:00,-856,0.000,6705.166,37791.527,-34.300,261.962,0.000,1.058,-14.392,-0.015,0.004,-0.005,-0.010,0.000,0.000
71.825,3,0,-0.969,13.107,6711.789,-4.780,11.798,249.780,-5.321,5.429,-13.587,0.000,0.000,0.0165115,9110.192,9144.000,0.789,9.589,6314.840,243.552,376.765,-34.439,7602.769,6719.263,-15.484,-0.114,1.618,0.053,-0.464,-0.146,0.000,0.000,0.000,-0.165,0.605,0.110,0.771,0.0000000,0.0000000,6730.748,0.000,0.000,0.000,0,00:00:00,-856,0.000,6730.748,37654.930,-34.465,260.544,0.000,0.923,-14.364,-0.027,-0.017,0.002,0.000,0.000,0.000
71.926,3,0,-1.338,12.942,6738.289,-5.276,11.496,249.647,-5.623,3.815,-11.145,0.000,0.000,0.0165115,9088.220,9144.000,0.786,12.263,6339.083,242.437,375.301,-34.616,7629.949,6746.443,-12.856,-0.605,2.178,0.014,-0.299,-0.195,0.000,0.000,0.000,-0.169,0.592,0.105,0.781,0.0000000,0.0000000,6756.188,0.000,0.000,0.000,0,00:00:00,-856,0.000,6756.188,37527.934,-34.618,259.133,0.000,1.110,-14.242,-0.078,0.010,0.016,-0.002,0.000,0.000
72.027,3,0,-1.724,12.776,6764.438,-5.896,11.420,249.213,-7.044,5.966,-11.661,0.000,0.000,0.0165115,9081.832,9144.000,0.782,13.972,6363.210,241.271,374.007,-34.772,7654.047,6770.541,-14.454,0.859,3.397,-0.136,0.049,0.324,0.000,0.000,0.000,-0.165,0.596,0.121,0.776,0.0000000,0.0000000,6781.487,0.000,0.000,0.000,0,00:00:00,-856,0.000,6781.487,37462.781,-34.697,257.730,0.000,1.059,-14.138,0.040,-0.012,0.008,0.010,0.000,0.000
72.128,3,0,-2.118,12.623,6790.563,-6.268,11.439,248.668,-4.793,6.822,-12.947,0.000,0.000,0.0165115,9110.491,9144.000,0.778,13.592,6387.208,239.977,372.600,-34.943,7680.331,6796.825,-15.334,1.160,0.823,0.149,-0.166,0.309,0.000,0.000,0.000,-0.149,0.593,0.130,0.781,0.0000000,0.0000000,6806.645,0.000,0.000,0.000,0,00:00:00,-856,0.000,6806.645,37252.219,-34.953,256.334,0.000,1.076,-14.119,0.060,-0.009,-0.002,-0.006,0.000,0.000
72.229,3,0,-2.509,12.477,6815.980,-6.609,11.262,247.753,-4.698,4.813,-11.729,0.000,0.000,0.0165115,9109.224,9144.000,0.775,14.621,6411.088,238.804,371.458,-35.082,7701.704,6818.199,-13.459,-0.189,1.284,0.108,-0.023,0.228,0.000,0.000,0.000,-0.138,0.594,0.136,0.781,0.0000000,0.0000000,6831.663,0.000,0.000,0.000,0,00:00:00,-856,0.000,6831.663,37135.125,-35.095,254.945,0.000,0.957,-13.937,-0.039,-0.003,-0.003,0.003,0.000,0.000
72.330,3,0,-2.899,12.335,6841.508,-7.055,11.222,246.865,-5.938,6.093,-13.017,0.000,0.000,0.0165115,9118.519,9144.000,0.771,14.797,6434.839,237.502,370.031,-35.257,7728.519,6845.014,-15.351,0.583,2.411,0.011,0.284,-0.117,0.000,0.000,0.000,-0.142,0.605,0.129,0.773,0.0000000,0.0000000,6856.542,0.000,0.000,0.000,0,00:00:00,-856,0.000,6856.542,36956.297,-35.314,253.563,0.000,0.999,-13.936,0.043,0.003,-0.007,0.011,0.000,0.000
72.431,3,0,-3.278,12.200,6866.378,-7.170,11.126,245.524,-2.865,5.459,-13.308,0.000,0.000,0.0165115,9164.094,9144.000,0.767,13.179,6458.456,236.171,368.895,-35.396,7749.907,6866.402,-14.660,-0.382,-0.225,-0.256,0.274,0.021,0.000,0.000,0.000,-0.154,0.614,0.136,0.762,0.0000000,0.0000000,6881.283,0.000,0.000,0.000,0,00:00:00,-856,0.000,6881.283,36902.551,-35.380,252.188,0.000,1.038,-13.835,-0.049,-0.005,0.010,0.005,0.000,0.000
72.532,3,0,-3.639,12.077,6891.229,-7.460,11.218,244.363,-4.781,7.269,-12.357,5.000,0.000,0.0165115,9198.838,9144.000,0.763,11.513,6481.949,234.935,367.542,-35.562,7775.451,6891.945,-15.014,1.269,1.165,-0.243,-0.344,-0.115,0.000,0.000,0.000,-0.164,0.598,0.141,0.772,0.0000000,0.0000000,6905.885,0.000,0.000,0.000,0,00:00:00,-4072,0.000,6905.885,36718.090,-35.606,250.820,0.000,0.968,-13.823,0.037,0.009,0.008,0.002,0.000,0.000
72.633,3,0,-3.988,11.967,6916.138,-7.634,11.139,243.466,-3.818,5.509,-10.991,0.000,0.000,0.0165115,9174.719,9144.000,0.760,13.371,6505.333,233.836,366.173,-35.730,7801.390,6917.884,-12.849,0.263,0.746,-0.055,0.107,-0.124,0.000,0.000,0.000,-0.170,0.601,0.137,0.769,0.0000000,0.0000000,6930.350,0.000,0.000,0.000,0,00:00:00,-6186,0.000,6930.350,36650.672,-35.689,249.459,0.000,0.956,-13.712,-0.083,0.003,0.012,0.015,0.000,0.000
72.734,3,0,-4.319,11.856,6940.512,-7.776,10.983,242.089,-3.684,4.691,-12.504,5.000,0.000,0.0165115,9198.819,9144.000,0.756,12.734,6528.592,232.586,365.031,-35.871,7823.081,6939.575,-13.790,-1.223,0.521,-0.111,0.146,-0.068,0.000,0.000,0.000,-0.178,0.605,0.137,0.764,0.0000000,0.0000000,6954.678,0.000,0.000,0.000,0,00:00:00,-10085,0.000,6954.678,36484.004,-35.895,248.104,0.000,1.048,-13.622,0.001,-0.006,0.008,-0.021,0.000,0.000
72.835,3,0,-4.625,11.748,6964.867,-7.758,10.973,240.974,-2.253,6.080,-10.730,5.000,0.000,0.0165115,9218.571,9144.000,0.753,11.835,6551.743,231.513,363.716,-36.034,7848.121,6964.616,-12.472,1.175,-0.479,0.298,0.158,0.001,0.000,0.000,0.000,-0.167,0.613,0.126,0.762,0.0000000,0.0000000,6978.871,0.000,0.000,0.000,0,00:00:00,-27853,0.000,6978.871,36380.648,-36.023,246.756,0.000,1.021,-13.570,-0.023,-0.005,0.010,0.011,0.000,0.000
72.936,3,0,-4.907,11.642,6989.738,-7.889,10.809,240.288,-3.878,4.497,-11.155,5.000,-6.000,0.0165115,9348.753,9144.000,0.749,11.115,6574.783,230.397,362.212,-36.221,7876.859,6993.353,-12.578,-0.680,1.012,-0.327,0.005,-0.399,0.000,0.000,0.000,-0.192,0.607,0.121,0.761,0.0000000,0.0000000,7002.949,0.000,0.000,0.000,0,00:00:00,-49480,0.000,7002.949,36234.758,-36.204,245.560,0.000,0.912,-12.078,-0.037,-0.009,0.001,0.015,0.000,0.000
73.037,3,0,-5.172,11.541,7013.980,-7.976,10.860,239.123,-3.581,6.577,-11.780,5.000,-3.000,0.0165115,9310.988,9144.000,0.746,10.855,6597.705,229.219,361.125,-36.357,7897.688,7014.182,-13.934,0.779,0.292,0.017,-0.199,0.337,0.000,0.000,0.000,-0.180,0.603,0.135,0.765,0.0000000,0.0000000,7026.896,0.000,0.000,0.000,0,00:00:00,-71283,0.000,7026.896,36087.980,-36.387,244.296,0.000,1.007,-12.787,0.019,0.011,0.003,-0.004,0.000,0.000
73.138,3,0,-5.423,11.439,7038.094,-8.116,10.590,238.131,-4.240,3.337,-9.921,5.000,-1.000,0.0165115,9264.375,9144.000,0.743,11.996,6620.527,228.227,359.876,-36.513,7921.684,7038.178,-11.071,-1.260,1.843,-0.033,0.111,-0.164,0.000,0.000,0.000,-0.186,0.609,0.130,0.760,0.0000000,0.0000000,7050.709,0.000,0.000,0.000,0,00:00:00,-93051,0.000,7050.709,35958.250,-36.549,242.990,0.000,1.054,-13.081,0.036,0.003,0.013,0.020,0.000,0.000
73.239,3,0,-5.661,11.334,7062.101,-8.202,10.581,236.911,-3.823,5.877,-12.207,10.000,0.000,0.0165115,9274.846,9144.000,0.739,10.867,6643.228,227.007,358.629,-36.669,7945.718,7062.212,-14.071,-0.180,0.357,-0.153,-0.168,-0.206,0.000,0.000,0.000,-0.197,0.600,0.128,0.765,0.0000000,0.0000000,7074.388,0.000,0.000,0.000,0,00:00:00,-114856,0.000,7074.388,35860.344,-36.672,241.666,0.000,1.004,-13.386,0.082,-0.008,0.017,-0.021,0.000,0.000
73.340,3,0,-5.892,11.234,7085.904,-8.457,10.473,235.600,-5.622,4.838,-12.527,10.000,2.000,0.0165115,9236.355,9144.000,0.735,11.700,6665.803,225.754,357.422,-36.821,7969.029,7085.523,-14.351,-1.011,2.228,-0.046,0.179,-0.357,0.000,0.000,0.000,-0.211,0.603,0.114,0.761,0.0000000,0.0000000,7097.926,0.000,0.000,0.000,0,00:00:00,-137065,0.000,7097.926,35762.988,-36.794,240.301,0.000,1.109,-13.801,0.071,-0.007,0.010,-0.020,0.000,0.000
73.441,3,0,-6.122,11.139,7109.401,-8.669,10.490,234.080,-5.326,6.022,-13.347,10.000,4.000,0.0165115,9226.653,9144.000,0.731,10.645,6688.245,224.419,356.263,-36.967,7991.494,7107.988,-15.502,-0.080,1.564,0.121,0.091,-0.174,0.000,0.000,0.000,-0.212,0.605,0.103,0.761,0.0000000,0.0000000,7121.319,0.000,0.000,0.000,0,00:00:00,-159297,0.000,7121.319,35654.793,-36.931,238.898,0.000,1.019,-14.180,0.037,0.004,0.008,0.003,0.000,0.000
73.542,3,0,-6.345,11.051,7132.853,-8.744,10.433,232.872,-4.072,5.252,-10.968,10.000,6.000,0.0165115,9205.216,9144.000,0.728,10.267,6710.578,223.322,355.025,-37.123,8015.537,7132.031,-12.764,-0.163,1.239,-0.281,0.166,0.146,0.000,0.000,0.000,-0.219,0.611,0.115,0.752,0.0000000,0.0000000,7144.566,0.000,0.000,0.000,0,00:00:00,-181600,0.000,7144.566,35496.535,-37.130,237.457,0.000,1.010,-14.516,-0.008,0.019,0.020,-0.004,0.000,0.000
73.643,3,0,-6.546,10.973,7156.086,-8.663,10.533,231.349,-2.641,6.756,-13.463,10.000,8.000,0.0165115,9200.060,9144.000,0.724,9.019,6732.775,221.976,353.859,-37.271,8038.250,7154.744,-15.252,-0.513,-0.993,-0.216,-0.150,0.001,0.000,0.000,0.000,-0.226,0.604,0.123,0.754,0.0000000,0.0000000,7167.661,0.000,0.000,0.000,0,00:00:00,-204001,0.000,7167.661,35383.117,-37.274,235.980,0.000,1.010,-14.830,-0.076,-0.013,0.006,-0.008,0.000,0.000
73.744,3,0,-6.730,10.913,7179.348,-8.804,10.656,229.888,-4.938,6.956,-14.233,10.000,10.000,0.0165115,9169.949,9144.000,0.719,9.625,6754.830,220.553,352.609,-37.429,8062.659,7179.153,-16.525,-1.004,1.135,-0.305,0.004,0.026,0.000,0.000,0.000,-0.237,0.603,0.134,0.750,0.0000000,0.0000000,7190.602,0.000,0.000,0.000,0,00:00:00,-215288,0.000,7190.602,35272.801,-37.414,234.470,0.000,0.948,-15.299,0.000,-0.001,-0.021,-0.012,0.000,0.000
73.845,3,0,-6.903,10.867,7202.453,-8.768,10.723,228.573,-3.273,6.378,-12.648,10.000,11.000,0.0165115,9166.190,9144.000,0.715,9.263,6776.759,219.288,351.435,-37.579,8085.658,7202.152,-14.522,-0.175,-0.681,0.457,-0.235,-0.304,0.000,0.000,0.000,-0.227,0.593,0.111,0.764,0.0000000,0.0000000,7213.388,0.000,0.000,0.000,0,00:00:00,-215249,0.000,7213.388,35127.297,-37.600,232.947,0.000,1.007,-15.348,-0.070,0.008,-0.005,0.008,0.000,0.000
73.946,3,0,-7.067,10.835,7225.472,-8.973,10.873,227.276,-5.746,7.188,-12.842,10.000,11.000,0.0165115,9150.136,9144.000,0.712,11.123,6798.560,218.004,350.248,-37.731,8108.971,7225.465,-15.679,0.648,1.827,-0.092,0.247,0.011,0.000,0.000,0.000,-0.232,0.602,0.112,0.756,0.0000000,0.0000000,7236.022,0.000,0.000,0.000,0,00:00:00,-215249,0.000,7236.022,35049.875,-37.698,231.435,0.000,1.057,-15.250,0.035,-0.009,0.008,0.009,0.000,0.000
74.047,3,0,-7.232,10.815,7247.954,-9.138,10.918,225.913,-5.442,6.134,-10.386,15.000,11.000,0.0165115,9175.412,9144.000,0.708,9.625,6820.256,216.965,349.236,-37.860,8128.881,7245.375,-13.059,1.402,1.611,0.463,-0.335,-0.202,0.000,0.000,0.000,-0.218,0.590,0.094,0.772,0.0000000,0.0000000,7258.504,0.000,0.000,0.000,0,00:00:00,-220832,0.000,7258.504,34893.824,-37.898,229.932,0.000,1.048,-15.130,-0.101,-0.017,0.000,-0.007,0.000,0.000
74.148,3,0,-7.404,10.800,7269.924,-9.442,10.931,224.013,-6.898,5.805,-13.028,10.000,12.000,0.0165115,9138.108,9144.000,0.704,12.094,6841.822,215.662,348.235,-37.988,8148.639,7265.134,-15.593,0.805,2.685,0.342,0.270,-0.195,0.000,0.000,0.000,-0.212,0.599,0.073,0.768,0.0000000,0.0000000,7280.833,0.000,0.000,0.000,0,00:00:00,-228122,0.000,7280.833,34816.391,-37.998,228.419,0.000,1.030,-15.332,-0.019,-0.015,0.003,-0.005,0.000,0.000
74.249,3,0,-7.578,10.788,7291.625,-9.562,10.961,222.083,-5.178,5.972,-12.757,10.000,13.000,0.0165115,9138.933,9144.000,0.700,11.058,6863.261,214.387,347.162,-38.127,8169.863,7286.357,-14.879,1.252,1.503,0.239,0.327,0.084,0.000,0.000,0.000,-0.202,0.613,0.066,0.761,0.0000000,0.0000000,7303.006,0.000,0.000,0.000,0,00:00:00,-228137,0.000,7303.006,34729.559,-38.109,226.896,0.000,1.001,-15.403,-0.003,-0.004,0.010,-0.001,0.000,0.000
74.350,3,0,-7.745,10.779,7310.117,-9.626,10.965,217.871,-4.706,5.705,-13.059,15.000,13.000,0.0165115,9153.839,9144.000,0.696,9.559,6884.569,213.081,347.162,-38.127,8169.863,7286.357,-14.879,1.252,1.503,0.239,0.327,0.084,0.000,0.000,0.000,-0.191,0.627,0.058,0.753,0.0000000,0.0000000,7303.006,0.000,0.000,0.000,0,00:00:00,-233698,0.000,7303.006,34729.559,-38.109,226.896,0.000,1.001,-15.403,-0.003,-0.004,0.010,-0.001,0.000,0.000
74.451,3,0,-7.899,10.777,7332.703,-9.631,11.116,216.915,-4.205,7.160,-14.315,10.000,13.000,0.0165115,9132.332,9144.000,0.692,8.036,6905.734,211.649,344.627,-38.454,8220.227,7336.721,-16.422,2.012,0.373,-0.039,-0.052,-0.116,0.000,0.000,0.000,-0.196,0.624,0.056,0.754,0.0000000,0.0000000,7346.897,0.000,0.000,0.000,0,00:00:00,-241747,0.000,7346.897,34487.754,-38.422,223.879,0.000,1.050,-15.194,-0.062,0.014,0.002,0.019,0.000,0.000
74.552,3,0,-8.036,10.778,7354.761,-9.549,10.997,215.797,-3.416,4.495,-12.644,10.000,14.000,0.0165115,9131.230,9144.000,0.688,8.279,6926.773,210.385,343.657,-38.580,8239.580,7356.074,-13.828,-0.279,0.672,-0.255,0.088,0.097,0.000,0.000,0.000,-0.203,0.628,0.067,0.749,0.0000000,0.0000000,7368.613,0.000,0.000,0.000,0,00:00:00,-241694,0.000,7368.613,34321.426,-38.637,222.367,0.000,1.029,-15.203,0.081,0.007,-0.009,0.010,0.000,0.000
74.653,3,0,-8.151,10.769,7373.631,-9.446,10.915,212.391,-3.259,4.849,-12.554,15.000,14.000,0.0165115,9146.511,9144.000,0.684,7.459,6947.686,209.129,343.657,-38.580,8239.580,7356.074,-13.828,-0.279,0.672,-0.255,0.088,0.097,0.000,0.000,0.000,-0.209,0.631,0.077,0.743,0.0000000,0.0000000,7368.613,0.000,0.000,0.000,0,00:00:00,-247452,0.000,7368.613,34321.426,-38.637,222.367,0.000,1.029,-15.203,0.081,0.007,-0.009,0.010,0.000,0.000
74.754,3,0,-8.248,10.766,7395.395,-9.399,11.112,211.399,-3.878,7.610,-12.611,10.000,14.000,0.0165115,9127.405,9144.000,0.680,6.647,6968.472,207.868,341.578,-38.851,8281.211,7397.705,-15.066,2.200,0.399,-0.076,-0.065,-0.255,0.000,0.000,0.000,-0.220,0.626,0.071,0.745,0.0000000,0.0000000,7411.590,0.000,0.000,0.000,0,00:00:00,-244405,0.000,7411.590,34156.371,-38.852,219.371,0.000,0.982,-15.076,0.000,-0.011,0.019,0.007,0.000,0.000
74.855,3,0,-8.333,10.769,7416.811,-9.388,11.035,210.086,-4.273,4.907,-14.008,15.000,14.000,0.0165115,9135.294,9144.000,0.676,6.911,6989.119,206.468,340.585,-38.980,8301.153,7417.648,-15.330,-0.735,1.732,-0.073,0.292,0.077,0.000,0.000,0.000,-0.221,0.637,0.073,0.735,0.0000000,0.0000000,7432.854,0.000,0.000,0.000,0,00:00:00,-236979,0.000,7432.854,34003.367,-39.052,217.888,0.000,1.065,-15.084,-0.000,-0.007,0.002,-0.001,0.000,0.000
74.956,3,0,-8.400,10.768,7438.486,-9.157,11.023,209.136,-2.133,5.538,-13.281,15.000,13.000,0.0165115,9160.462,9144.000,0.672,5.185,7009.633,205.139,339.391,-39.137,8325.208,7441.702,-14.540,0.003,-0.453,0.160,0.041,-0.073,0.000,0.000,0.000,-0.218,0.638,0.065,0.735,0.0000000,0.0000000,7453.971,0.000,0.000,0.000,0,00:00:00,-237014,0.000,7453.971,33973.297,-39.092,216.431,0.000,1.050,-14.691,0.000,-0.025,0.011,0.012,0.000,0.000
75.057,3,0,-8.450,10.763,7459.853,-9.170,10.964,208.140,-4.565,5.074,-12.126,15.000,13.000,0.0165115,9170.325,9144.000,0.668,5.171,7030.026,203.927,338.400,-39.267,8345.234,7461.728,-13.789,0.285,1.849,-0.182,-0.133,-0.250,0.000,0.000,0.000,-0.232,0.630,0.063,0.738,0.0000000,0.0000000,7474.942,0.000,0.000,0.000,0,00:00:00,-237014,0.000,7474.942,33859.805,-39.241,214.984,0.000,1.009,-14.737,0.104,0.016,-0.007,0.007,0.000,0.000
75.158,3,0,-8.498,10.754,7478.139,-9.208,10.915,204.932,-4.853,5.176,-11.971,15.000,13.000,0.0165115,9176.624,9144.000,0.664,5.643,7050.299,202.730,338.400,-39.267,8345.234,7461.728,-13.789,0.285,1.849,-0.182,-0.133,-0.250,0.000,0.000,0.000,-0.246,0.622,0.061,0.741,0.0000000,0.0000000,7474.942,0.000,0.000,0.000,0,00:00:00,-237014,0.000,7474.942,33859.805,-39.241,214.984,0.000,1.009,-14.737,0.104,0.016,-0.007,0.007,0.000,0.000
75.259,3,0,-8.540,10.739,7499.107,-9.132,10.811,203.793,-3.739,4.617,-13.800,15.000,13.000,0.0165115,9150.411,9144.000,0.660,6.084,7070.434,201.350,336.453,-39.524,8384.698,7501.192,-14.959,-1.339,0.435,-0.056,-0.147,-0.262,0.000,0.000,0.000,-0.256,0.613,0.055,0.746,0.0000000,0.0000000,7516.448,0.000,0.000,0.000,0,00:00:00,-237014,0.000,7516.448,33584.805,-39.603,212.114,0.000,1.085,-14.487,-0.063,-0.004,0.009,-0.012,0.000,0.000
75.360,3,0,-8.572,10.715,7517.037,-9.087,10.706,200.478,-4.062,4.592,-13.717,15.000,13.000,0.0165115,9152.466,9144.000,0.655,6.788,7090.431,199.978,336.453,-39.524,8384.698,7501.192,-14.959,-1.339,0.435,-0.056,-0.147,-0.262,0.000,0.000,0.000,-0.266,0.604,0.048,0.750,0.0000000,0.0000000,7516.448,0.000,0.000,0.000,0,00:00:00,-242206,0.000,7516.448,33584.805,-39.603,212.114,0.000,1.085,-14.487,-0.063,-0.004,0.009,-0.012,0.000,0.000
75.461,3,0,-8.605,10.693,7538.408,-9.224,10.784,200.205,-5.875,6.399,-11.437,10.000,14.000,0.0165115,9114.708,9144.000,0.652,7.477,7110.315,198.834,334.270,-39.813,8429.160,7545.654,-14.131,1.709,1.913,0.092,-0.044,0.232,0.000,0.000,0.000,-0.255,0.605,0.055,0.752,0.0000000,0.0000000,7557.375,0.000,0.000,0.000,0,00:00:00,-249014,0.000,7557.375,33407.789,-39.838,209.262,0.000,1.072,-14.464,-0.072,0.014,0.004,0.002,0.000,0.000
75.562,3,0,-8.653,10.671,7558.823,-9.470,10.656,198.990,-6.993,4.346,-13.985,10.000,15.000,0.0165115,9122.742,9144.000,0.648,7.888,7130.058,197.436,333.546,-39.909,8443.955,7560.449,-15.934,-0.914,2.941,0.059,-0.158,-0.123,0.000,0.000,0.000,-0.256,0.598,0.050,0.758,0.0000000,0.0000000,7577.620,0.000,0.000,0.000,0,00:00:00,-249015,0.000,7577.620,33345.434,-39.921,207.824,0.000,1.036,-14.566,-0.032,-0.019,-0.001,-0.006,0.000,0.000
75.663,3,0,-8.717,10.648,7579.399,-9.681,10.748,198.202,-6.671,6.504,-11.787,10.000,15.000,0.0165115,9120.736,9144.000,0.644,8.853,7149.684,196.257,332.460,-40.054,8466.211,7582.705,-14.826,1.344,2.029,-0.246,-0.298,0.059,0.000,0.000,0.000,-0.263,0.587,0.064,0.763,0.0000000,0.0000000,7597.720,0.000,0.000,0.000,0,00:00:00,-249015,0.000,7597.720,33260.242,-40.035,206.395,0.000,1.111,-14.398,0.048,0.004,-0.020,0.009,0.000,0.000
75.764,3,0,-8.788,10.636,7599.888,-9.739,10.820,197.388,-5.199,6.309,-11.996,10.000,15.000,0.0165115,9122.074,9144.000,0.640,9.998,7169.190,195.057,331.464,-40.187,8486.654,7603.148,-14.475,0.444,1.009,-0.221,0.078,0.221,0.000,0.000,0.000,-0.265,0.592,0.078,0.757,0.0000000,0.0000000,7617.676,0.000,0.000,0.000,0,00:00:00,-249015,0.000,7617.676,33162.258,-40.165,204.975,0.000,1.093,-14.429,-0.000,-0.022,-0.003,-0.013,0.000,0.000
75.865,3,0,-8.853,10.636,7621.118,-9.722,10.989,197.089,-4.486,7.264,-13.022,15.000,15.000,0.0165115,9140.490,9144.000,0.636,9.170,7188.565,193.755,330.187,-40.358,8512.967,7629.461,-15.549,0.829,-0.077,0.117,0.085,-0.043,0.000,0.000,0.000,-0.262,0.595,0.072,0.757,0.0000000,0.0000000,7637.489,0.000,0.000,0.000,0,00:00:00,-249015,0.000,7637.489,33019.852,-40.356,203.562,0.000,0.984,-14.353,0.024,0.004,-0.016,-0.008,0.000,0.000
75.966,3,0,-8.917,10.637,7641.903,-9.837,10.856,196.614,-5.827,4.281,-11.645,15.000,15.000,0.0165115,9160.935,9144.000,0.633,8.916,7207.825,192.591,329.305,-40.476,8531.171,7647.665,-13.578,-0.365,1.843,0.266,-0.135,-0.404,0.000,0.000,0.000,-0.264,0.585,0.050,0.765,0.0000000,0.0000000,7657.160,0.000,0.000,0.000,0,00:00:00,-249015,0.000,7657.160,32930.316,-40.476,202.158,0.000,1.067,-14.213,0.078,-0.011,-0.010,0.006,0.000,0.000
76.067,3,0,-8.988,10.624,7661.722,-9.991,10.676,195.530,-6.249,3.804,-10.855,20.000,15.000,0.0165115,9165.453,9144.000,0.629,10.153,7226.975,191.505,328.621,-40.568,8545.328,7661.822,-12.917,0.031,2.117,0.314,-0.182,-0.209,0.000,0.000,0.000,-0.257,0.576,0.035,0.775,0.0000000,0.0000000,7676.689,0.000,0.000,0.000,0,00:00:00,-254743,0.000,7676.689,32884.836,-40.537,200.762,0.000,1.110,-14.124,-0.010,-0.003,0.002,0.000,0.000,0.000
76.168,3,0,-9.068,10.599,7681.266,-10.204,10.573,194.196,-6.878,4.556,-12.158,15.000,15.000,0.0165115,9156.016,9144.000,0.626,11.772,7246.004,190.290,327.725,-40.689,8563.899,7680.394,-14.536,0.334,2.115,0.031,0.009,-0.061,0.000,0.000,0.000,-0.258,0.576,0.032,0.775,0.0000000,0.0000000,7696.077,0.000,0.000,0.000,0,00:00:00,-260927,0.000,7696.077,32779.293,-40.680,199.374,0.000,1.127,-14.052,-0.022,-0.006,0.004,0.003,0.000,0.000
76.269,3,0,-9.149,10.571,7700.876,-10.171,10.556,192.940,-4.484,5.388,-12.890,15.000,16.000,0.0165115,9152.763,9144.000,0.622,11.790,7264.904,189.001,326.721,-40.825,8584.759,7701.253,-14.651,0.488,-0.629,0.143,0.130,-0.343,0.000,0.000,0.000,-0.262,0.576,0.013,0.774,0.0000000,0.0000000,7715.323,0.000,0.000,0.000,0,00:00:00,-260938,0.000,7715.323,32660.340,-40.840,197.980,0.000,1.024,-14.081,-0.002,-0.011,-0.005,-0.007,0.000,0.000
76.370,3,0,-9.225,10.532,7720.556,-10.254,10.283,191.909,-5.674,2.841,-12.098,20.000,16.000,0.0165115,9161.284,9144.000,0.618,11.421,7283.683,187.791,325.720,-40.960,8605.628,7722.122,-13.569,-0.819,1.357,0.221,-0.101,-0.049,0.000,0.000,0.000,-0.255,0.572,0.006,0.780,0.0000000,0.0000000,7734.428,0.000,0.000,0.000,0,00:00:00,-266689,0.000,7734.428,32554.215,-40.984,196.593,0.000,1.103,-14.021,0.037,-0.004,-0.004,-0.001,0.000,0.000
76.471,3,0,-9.304,10.477,7739.808,-10.386,10.101,190.689,-6.200,3.704,-11.539,20.000,16.000,0.0165115,9157.874,9144.000,0.614,12.457,7302.347,186.637,324.894,-41.072,8622.867,7739.362,-13.493,0.537,1.715,-0.018,0.223,-0.277,0.000,0.000,0.000,-0.264,0.577,-0.007,0.773,0.0000000,0.0000000,7753.394,0.000,0.000,0.000,0,00:00:00,-287165,0.000,7753.394,32499.082,-41.059,195.215,0.000,1.021,-14.009,-0.040,-0.004,-0.006,-0.016,0.000,0.000
76.572,3,0,-9.384,10.404,7758.808,-10.452,9.794,189.294,-5.595,2.438,-12.359,20.000,18.000,0.0165115,9162.832,9144.000,0.610,11.250,7320.887,185.401,324.022,-41.191,8641.113,7757.607,-13.667,-0.793,1.604,0.145,0.133,-0.071,0.000,0.000,0.000,-0.260,0.581,-0.016,0.771,0.0000000,0.0000000,7772.216,0.000,0.000,0.000,0,00:00:00,-309432,0.000,7772.216,32403.111,-41.190,193.817,0.000,1.001,-14.178,0.003,-0.005,0.002,-0.013,0.000,0.000
76.673,3,0,-9.470,10.307,7777.368,-10.665,9.429,187.686,-7.080,1.798,-12.246,25.000,20.000,0.0165115,9156.808,9144.000,0.606,10.915,7339.305,184.176,323.225,-41.300,8657.824,7774.318,-13.840,-0.532,3.393,0.201,0.183,0.114,0.000,0.000,0.000,-0.249,0.589,-0.020,0.768,0.0000000,0.0000000,7790.893,0.000,0.000,0.000,0,00:00:00,-331019,0.000,7790.893,32353.627,-41.257,192.402,0.000,0.990,-14.370,0.020,-0.007,0.010,0.005,0.000,0.000
76.774,3,0,-9.559,10.194,7795.688,-10.701,9.240,186.083,-5.383,3.496,-11.614,25.000,22.000,0.0165115,9149.718,9144.000,0.603,10.449,7357.606,183.015,322.376,-41.416,8675.659,7792.153,-13.232,0.503,0.875,-0.079,-0.255,-0.313,0.000,0.000,0.000,-0.261,0.576,-0.026,0.774,0.0000000,0.0000000,7809.423,0.000,0.000,0.000,0,00:00:00,-353297,0.000,7809.423,32234.096,-41.420,190.970,0.000,0.987,-14.528,-0.076,0.012,-0.023,0.006,0.000,0.000
76.875,3,0,-9.639,10.070,7814.031,-10.659,8.962,184.416,-4.653,2.546,-13.671,20.000,25.000,0.0165115,9124.064,9144.000,0.598,11.576,7375.771,181.648,321.448,-41.543,8695.192,7811.687,-14.616,-1.184,-0.053,0.184,-0.140,-0.014,0.000,0.000,0.000,-0.255,0.570,-0.030,0.781,0.0000000,0.0000000,7827.804,0.000,0.000,0.000,0,00:00:00,-350250,0.000,7827.804,32157.633,-41.525,189.511,0.000,0.968,-14.844,0.027,-0.006,0.005,0.002,0.000,0.000
76.976,3,0,-9.716,9.934,7832.526,-10.802,8.733,183.044,-6.528,2.953,-13.116,20.000,24.000,0.0165115,9117.100,9144.000,0.594,12.766,7393.804,180.336,320.479,-41.676,8715.641,7832.135,-14.826,0.404,1.847,0.105,0.327,-0.098,0.000,0.000,0.000,-0.253,0.581,-0.041,0.772,0.0000000,0.0000000,7846.039,0.000,0.000,0.000,0,00:00:00,-330033,0.000,7846.039,32050.986,-41.671,188.073,0.000,0.998,-14.554,0.020,0.016,0.003,0.007,0.000,0.000
77.077,3,0,-9.793,9.793,7850.689,-10.803,8.559,181.479,-5.166,3.432,-13.605,20.000,22.000,0.0165115,9143.734,9144.000,0.590,11.355,7411.702,178.976,319.676,-41.786,8732.627,7849.122,-14.939,-0.144,0.604,-0.329,0.112,-0.124,0.000,0.000,0.000,-0.269,0.584,-0.038,0.765,0.0000000,0.0000000,7864.132,0.000,0.000,0.000,0,00:00:00,-317594,0.000,7864.132,31973.260,-41.778,186.668,0.000,1.053,-14.216,-0.025,-0.005,0.003,-0.003,0.000,0.000
77.178,3,0,-9.869,9.650,7869.021,-10.944,8.391,180.144,-6.582,3.406,-13.757,25.000,21.000,0.0165115,9161.039,9144.000,0.585,9.926,7429.462,177.600,318.717,-41.918,8752.977,7869.471,-15.533,0.424,1.644,0.014,-0.013,-0.261,0.000,0.000,0.000,-0.276,0.580,-0.048,0.765,0.0000000,0.0000000,7882.085,0.000,0.000,0.000,0,00:00:00,-317372,0.000,7882.085,31865.191,-41.927,185.283,0.000,1.050,-14.183,-0.111,-0.015,-0.015,0.005,0.000,0.000
77.279,3,0,-9.942,9.517,7886.804,-10.906,8.495,178.600,-4.849,6.038,-12.715,25.000,21.000,0.0165115,9163.327,9144.000,0.581,10.029,7447.095,176.328,318.001,-42.017,8768.179,7884.673,-14.711,2.240,-0.469,-0.210,0.261,0.054,0.000,0.000,0.000,-0.282,0.591,-0.043,0.754,0.0000000,0.0000000,7899.898,0.000,0.000,0.000,0,00:00:00,-317372,0.000,7899.898,31798.668,-42.019,183.906,0.000,1.047,-13.950,0.054,0.018,-0.012,-0.007,0.000,0.000
77.380,3,0,-10.006,9.406,7904.949,-10.868,8.604,177.543,-4.887,6.026,-11.700,30.000,21.000,0.0165115,9176.823,9144.000,0.578,8.138,7464.611,175.158,317.001,-42.156,8789.471,7905.966,-13.794,2.500,-0.737,0.025,-0.281,-0.176,0.000,0.000,0.000,-0.287,0.578,-0.047,0.762,0.0000000,0.0000000,7917.572,0.000,0.000,0.000,0,00:00:00,-317372,0.000,7917.572,31694.121,-42.164,182.537,0.000,1.005,-14.003,0.004,0.005,-0.011,-0.007,0.000,0.000
77.481,3,0,-10.061,9.315,7920.459,-10.871,8.706,174.609,-5.319,5.907,-11.571,30.000,21.000,0.0165115,9172.825,9144.000,0.574,9.613,7482.011,174.001,317.001,-42.156,8789.471,7905.966,-13.794,2.500,-0.737,0.025,-0.281,-0.176,0.000,0.000,0.000,-0.291,0.565,-0.050,0.770,0.0000000,0.0000000,7917.572,0.000,0.000,0.000,0,00:00:00,-317372,0.000,7917.572,31694.121,-42.164,182.537,0.000,1.005,-14.003,0.004,0.005,-0.011,-0.007,0.000,0.000
77.582,3,0,-10.112,9.233,7938.147,-10.879,8.608,173.456,-5.406,3.881,-12.264,20.000,21.000,0.0165115,9143.055,9144.000,0.570,11.075,7499.288,172.775,315.462,-42.370,8822.355,7938.849,-13.939,0.428,0.442,-0.152,0.060,0.104,0.000,0.000,0.000,-0.294,0.569,-0.043,0.767,0.0000000,0.0000000,7952.504,0.000,0.000,0.000,0,00:00:00,-317372,0.000,7952.504,31564.971,-42.343,179.823,0.000,0.957,-13.854,-0.049,0.009,-0.004,0.012,0.000,0.000
77.683,3,0,-10.159,9.151,7955.164,-10.887,8.526,172.022,-5.417,3.999,-10.897,25.000,21.000,0.0165115,9153.619,9144.000,0.567,10.333,7516.457,171.685,314.828,-42.458,8835.935,7952.430,-12.759,0.987,0.581,0.001,-0.106,0.086,0.000,0.000,0.000,-0.292,0.566,-0.038,0.770,0.0000000,0.0000000,7969.764,0.000,0.000,0.000,0,00:00:00,-322794,0.000,7969.764,31463.941,-42.484,178.477,0.000,0.971,-13.809,0.003,-0.017,0.006,-0.016,0.000,0.000
77.784,3,0,-10.207,9.065,7972.313,-11.010,8.362,170.651,-6.585,3.144,-12.382,25.000,22.000,0.0165115,9146.111,9144.000,0.563,10.861,7533.502,170.447,313.948,-42.581,8854.825,7971.319,-14.221,0.252,2.065,0.126,0.176,0.359,0.000,0.000,0.000,-0.276,0.578,-0.030,0.767,0.0000000,0.0000000,7986.886,0.000,0.000,0.000,0,00:00:00,-342818,0.000,7986.886,31407.172,-42.563,177.129,0.000,1.089,-13.842,0.082,-0.006,-0.016,-0.013,0.000,0.000
77.885,3,0,-10.261,8.971,7989.334,-11.107,8.188,169.389,-6.357,2.993,-11.329,25.000,24.000,0.0165115,9144.020,9144.000,0.559,10.330,7550.433,169.314,313.155,-42.692,8871.873,7988.367,-13.186,0.575,1.879,0.244,-0.161,0.078,0.000,0.000,0.000,-0.265,0.572,-0.032,0.775,0.0000000,0.0000000,8003.868,0.000,0.000,0.000,0,00:00:00,-365254,0.000,8003.868,31327.564,-42.675,175.767,0.000,1.030,-13.947,0.048,-0.001,0.001,-0.012,0.000,0.000
77.986,3,0,-10.309,8.871,8006.242,-10.971,8.018,167.997,-4.076,2.987,-12.783,25.000,26.000,0.0165115,9128.330,9144.000,0.555,11.794,7567.237,168.036,312.364,-42.802,8888.917,8005.412,-13.724,-0.743,-0.198,-0.026,0.137,0.060,0.000,0.000,0.000,-0.264,0.579,-0.031,0.771,0.0000000,0.0000000,8020.709,0.000,0.000,0.000,0,00:00:00,-376463,0.000,8020.709,31291.279,-42.726,174.394,0.000,1.064,-14.040,0.014,-0.011,0.022,-0.005,0.000,0.000
78.087,3,0,-10.346,8.774,8023.018,-10.997,8.074,166.494,-5.696,5.166,-13.989,25.000,27.000,0.0165115,9132.461,9144.000,0.551,11.029,7583.900,166.637,311.583,-42.912,8905.785,8022.279,-15.893,1.496,-0.069,0.198,-0.023,0.053,0.000,0.000,0.000,-0.255,0.578,-0.034,0.774,0.0000000,0.0000000,8037.409,0.000,0.000,0.000,0,00:00:00,-376385,0.000,8037.409,31169.719,-42.896,173.019,0.000,0.998,-14.025,-0.020,0.008,-0.020,0.003,0.000,0.000
78.188,3,0,-10.382,8.678,8040.193,-11.004,7.826,165.527,-5.531,2.111,-12.712,25.000,27.000,0.0165115,9128.333,9144.000,0.547,11.653,7600.437,165.366,310.635,-43.046,8926.306,8042.800,-13.963,-0.249,1.279,0.340,0.103,-0.107,0.000,0.000,0.000,-0.245,0.580,-0.050,0.776,0.0000000,0.0000000,8053.970,0.000,0.000,0.000,0,00:00:00,-376385,0.000,8053.970,31091.223,-43.007,171.653,0.000,1.103,-13.984,-0.018,0.002,-0.004,-0.024,0.000,0.000
78.289,3,0,-10.410,8.575,8056.664,-10.909,7.717,164.034,-4.537,3.426,-13.462,25.000,27.000,0.0165115,9132.517,9144.000,0.542,11.990,7616.839,164.020,310.047,-43.129,8939.069,8055.563,-14.601,0.566,0.176,-0.045,0.434,-0.151,0.000,0.000,0.000,-0.250,0.595,-0.059,0.762,0.0000000,0.0000000,8070.392,0.000,0.000,0.000,0,00:00:00,-376385,0.000,8070.392,31028.854,-43.094,170.295,0.000,0.928,-13.903,0.024,-0.002,-0.004,-0.008,0.000,0.000
78.390,3,0,-10.435,8.469,8072.706,-10.983,7.547,162.549,-6.220,2.772,-11.237,30.000,27.000,0.0165115,9149.622,9144.000,0.539,9.655,7633.128,162.896,309.390,-43.221,8953.342,8069.836,-12.785,1.665,2.534,0.212,0.236,0.104,0.000,0.000,0.000,-0.238,0.604,-0.065,0.758,0.0000000,0.0000000,8086.676,0.000,0.000,0.000,0,00:00:00,-382163,0.000,8086.676,30949.475,-43.207,168.945,0.000,0.931,-13.804,-0.108,0.001,-0.013,0.010,0.000,0.000
78.491,3,0,-10.462,8.352,8088.707,-11.015,7.278,160.936,-5.817,1.735,-13.399,35.000,27.000,0.0165115,9153.593,9144.000,0.534,8.998,7649.284,161.556,308.621,-43.330,8970.080,8086.574,-14.541,-0.020,2.223,0.162,-0.090,0.329,0.000,0.000,0.000,-0.222,0.604,-0.056,0.763,0.0000000,0.0000000,8102.822,0.000,0.000,0.000,0,00:00:00,-402561,0.000,8102.822,30877.723,-43.308,167.602,0.000,1.080,-13.744,0.035,-0.010,0.010,0.021,0.000,0.000
78.592,3,0,-10.487,8.218,8104.610,-10.990,6.915,159.500,-5.265,0.719,-12.071,30.000,29.000,0.0165115,9140.665,9144.000,0.530,9.859,7665.319,160.349,307.876,-43.436,8986.333,8102.827,-13.012,-0.977,1.921,0.038,-0.383,0.089,0.000,0.000,0.000,-0.219,0.590,-0.049,0.775,0.0000000,0.0000000,8118.830,0.000,0.000,0.000,0,00:00:00,-414738,0.000,8118.830,30841.631,-43.359,166.251,0.000,1.045,-13.843,-0.033,0.015,0.006,0.002,0.000,0.000
78.693,3,0,-10.514,8.072,8120.203,-11.097,6.763,157.831,-6.587,2.741,-13.201,25.000,30.000,0.0165115,9124.033,9144.000,0.526,11.949,7681.222,159.029,307.206,-43.531,9000.957,8117.451,-14.818,1.157,2.063,0.182,0.020,0.106,0.000,0.000,0.000,-0.208,0.592,-0.051,0.777,0.0000000,0.0000000,8134.699,0.000,0.000,0.000,0,00:00:00,-414791,0.000,8134.699,30767.164,-43.465,164.899,0.000,0.979,-13.736,-0.030,0.004,-0.003,0.016,0.000,0.000
78.794,3,0,-10.532,7.924,8136.498,-10.869,6.561,156.889,-3.279,2.174,-12.422,25.000,30.000,0.0165115,9119.969,9144.000,0.522,12.260,7697.000,157.787,306.220,-43.671,9022.565,8139.060,-13.015,0.025,-0.614,0.199,0.014,-0.059,0.000,0.000,0.000,-0.202,0.591,-0.059,0.778,0.0000000,0.0000000,8150.430,0.000,0.000,0.000,0,00:00:00,-414791,0.000,8150.430,30675.135,-43.596,163.555,0.000,1.061,-13.790,0.014,-0.027,-0.006,0.005,0.000,0.000
78.895,3,0,-10.545,7.766,8152.416,-11.012,6.234,155.730,-6.960,0.846,-12.474,25.000,30.000,0.0165115,9123.550,9144.000,0.518,12.636,7712.654,156.539,305.573,-43.764,9036.750,8153.245,-13.920,-0.027,3.317,-0.078,0.074,0.006,0.000,0.000,0.000,-0.205,0.594,-0.057,0.775,0.0000000,0.0000000,8166.025,0.000,0.000,0.000,0,00:00:00,-414791,0.000,8166.025,30575.889,-43.737,162.220,0.000,1.135,-13.659,0.005,-0.006,-0.021,-0.009,0.000,0.000
78.996,3,0,-10.556,7.599,8167.686,-10.865,6.037,154.250,-4.096,2.039,-11.701,25.000,30.000,0.0165115,9131.730,9144.000,0.514,12.072,7728.191,155.369,305.028,-43.842,9048.744,8165.238,-12.526,0.245,0.938,-0.325,0.412,-0.318,0.000,0.000,0.000,-0.226,0.608,-0.064,0.759,0.0000000,0.0000000,8181.483,0.000,0.000,0.000,0,00:00:00,-414791,0.000,8181.483,30525.955,-43.809,160.892,0.000,1.063,-13.568,0.050,0.001,0.005,0.010,0.000,0.000
79.097,3,0,-10.551,7.430,8180.687,-10.676,5.874,151.178,-3.681,2.297,-11.791,35.000,30.000,0.0165115,9149.867,9144.000,0.510,9.156,7743.610,154.190,305.028,-43.842,9048.744,8165.238,-12.526,0.245,0.938,-0.325,0.412,-0.318,0.000,0.000,0.000,-0.246,0.621,-0.071,0.741,0.0000000,0.0000000,8181.483,0.000,0.000,0.000,0,00:00:00,-420945,0.000,8181.483,30525.955,-43.809,160.892,0.000,1.063,-13.568,0.050,0.001,0.005,0.010,0.000,0.000
79.198,3,0,-10.537,7.266,8196.361,-10.655,5.768,150.311,-5.331,2.770,-12.029,35.000,31.000,0.0165115,9140.885,9144.000,0.507,6.218,7758.909,152.987,303.486,-44.063,9082.729,8199.224,-13.206,1.205,2.222,-0.120,0.050,-0.112,0.000,0.000,0.000,-0.254,0.621,-0.072,0.738,0.0000000,0.0000000,8211.993,0.000,0.000,0.000,0,00:00:00,-441562,0.000,8211.993,30368.857,-44.034,158.252,0.000,1.101,-13.479,0.035,0.001,-0.008,0.007,0.000,0.000
79.299,3,0,-10.511,7.101,8211.537,-10.387,5.538,149.268,-2.882,1.463,-10.695,35.000,33.000,0.0165115,9144.832,9144.000,0.503,5.645,7774.101,151.918,302.915,-44.145,9095.342,8211.836,-11.069,-1.047,1.100,-0.333,-0.118,-0.116,0.000,0.000,0.000,-0.228,0.632,-0.023,0.740,0.0000000,0.0000000,8227.044,0.000,0.000,0.000,0,00:00:00,-453275,0.000,8227.044,30303.566,-44.127,156.926,0.000,1.115,-13.669,0.014,-0.002,0.015,0.005,0.000,0.000
79.400,3,0,-10.462,6.947,8226.034,-10.102,5.662,147.439,-2.675,4.874,-14.371,35.000,34.000,0.0165115,9147.092,9144.000,0.498,5.531,7789.149,150.481,302.414,-44.217,9106.439,8222.933,-15.374,0.908,-0.512,0.012,0.146,-0.015,0.000,0.000,0.000,-0.227,0.638,-0.026,0.736,0.0000000,0.0000000,8241.958,0.000,0.000,0.000,0,00:00:00,-453265,0.000,8241.958,30261.961,-44.187,155.600,0.000,0.977,-13.653,-0.034,0.006,-0.007,-0.011,0.000,0.000
79.501,3,0,-10.386,6.816,8240.153,-9.699,5.713,145.603,-1.471,4.095,-12.945,35.000,34.000,0.0165115,9144.620,9144.000,0.494,4.780,7804.067,149.186,301.833,-44.301,9119.322,8235.816,-13.606,0.323,-1.139,0.025,0.095,-0.046,0.000,0.000,0.000,-0.228,0.641,-0.029,0.733,0.0000000,0.0000000,8256.736,0.000,0.000,0.000,0,00:00:00,-453265,0.000,8256.736,30146.418,-44.354,154.282,0.000,0.952,-13.564,-0.004,-0.008,-0.007,-0.016,0.000,0.000
79.602,3,0,-10.290,6.699,8254.993,-9.504,5.720,144.355,-3.478,3.594,-13.874,35.000,34.000,0.0165115,9140.611,9144.000,0.490,4.331,7818.847,147.799,300.912,-44.434,9139.761,8256.255,-14.739,-0.062,0.512,-0.251,-0.158,-0.537,0.000,0.000,0.000,-0.254,0.629,-0.039,0.734,0.0000000,0.0000000,8271.380,0.000,0.000,0.000,0,00:00:00,-453265,0.000,8271.380,30093.654,-44.430,152.972,0.000,1.034,-13.387,-0.000,0.005,0.004,-0.004,0.000,0.000
79.703,3,0,-10.179,6.591,8269.725,-9.175,5.661,143.265,-2.096,2.879,-12.392,35.000,34.000,0.0165115,9141.899,9144.000,0.486,4.586,7833.503,146.559,300.248,-44.530,9154.552,8271.047,-12.858,-0.600,-0.753,0.209,-0.244,-0.160,0.000,0.000,0.000,-0.252,0.617,-0.049,0.744,0.0000000,0.0000000,8285.890,0.000,0.000,0.000,0,00:00:00,-453265,0.000,8285.890,29996.963,-44.570,151.670,0.000,0.995,-13.416,0.009,-0.001,0.016,-0.006,0.000,0.000
79.804,3,0,-10.057,6.480,8283.854,-9.051,5.427,141.777,-4.070,1.092,-12.684,35.000,34.000,0.0165115,9140.130,9144.000,0.482,6.363,7848.032,145.291,299.749,-44.602,9165.662,8282.156,-13.241,-0.859,1.603,0.479,0.102,-0.057,0.000,0.000,0.000,-0.236,0.619,-0.067,0.746,0.0000000,0.0000000,8300.267,0.000,0.000,0.000,0,00:00:00,-453265,0.000,8300.267,30001.574,-44.563,150.376,0.000,1.079,-13.366,-0.044,-0.008,-0.006,-0.004,0.000,0.000
79.905,3,0,-9.927,6.365,8297.946,-8.730,5.348,140.222,-2.037,2.559,-14.250,35.000,34.000,0.0165115,9136.593,9144.000,0.477,7.040,7862.419,143.866,299.085,-44.699,9180.505,8296.999,-14.568,-0.581,-1.093,0.175,-0.017,0.223,0.000,0.000,0.000,-0.222,0.620,-0.064,0.749,0.0000000,0.0000000,8314.510,0.000,0.000,0.000,0,00:00:00,-453265,0.000,8314.510,29894.457,-44.719,149.089,0.000,1.012,-13.327,-0.025,-0.008,-0.005,0.002,0.000,0.000
80.006,3,0,-9.781,6.251,8311.760,-8.446,5.226,138.630,-2.329,2.080,-13.710,35.000,34.000,0.0165115,9132.839,9144.000,0.472,7.558,7876.668,142.495,298.501,-44.783,9193.557,8310.051,-14.032,-0.556,-0.707,0.183,-0.043,0.023,0.000,0.000,0.000,-0.215,0.618,-0.068,0.753,0.0000000,0.0000000,8328.622,0.000,0.000,0.000,0,00:00:00,-453265,0.000,8328.622,29798.668,-44.858,147.810,0.000,0.967,-13.193,0.049,0.008,-0.009,0.001,0.000,0.000
80.107,3,0,-9.624,6.136,8323.500,-8.175,5.085,135.605,-2.384,1.834,-13.736,25.000,34.000,0.0165115,9127.854,9144.000,0.468,8.218,7890.781,141.122,298.501,-44.783,9193.557,8310.051,-14.032,-0.556,-0.707,0.183,-0.043,0.023,0.000,0.000,0.000,-0.207,0.616,-0.072,0.756,0.0000000,0.0000000,8328.622,0.000,0.000,0.000,0,00:00:00,-447701,0.000,8328.622,29798.668,-44.858,147.810,0.000,0.967,-13.193,0.049,0.008,-0.009,0.001,0.000,0.000
80.208,3,0,-9.469,6.016,8337.529,-8.173,4.882,134.532,-4.959,1.157,-13.605,15.000,34.000,0.0165115,9106.444,9144.000,0.463,8.875,7904.757,139.761,297.166,-44.978,9223.507,8340.001,-14.335,-0.065,2.354,-0.018,0.315,0.087,0.000,0.000,0.000,-0.204,0.629,-0.072,0.747,0.0000000,0.0000000,8356.452,0.000,0.000,0.000,0,00:00:00,-427393,0.000,8356.452,29755.326,-44.922,145.273,0.000,1.041,-13.079,-0.038,-0.005,0.002,-0.002,0.000,0.000
80.309,3,0,-9.315,5.892,8351.411,-7.896,4.740,133.566,-2.149,1.689,-12.193,15.000,32.000,0.0165115,9119.473,9144.000,0.459,7.185,7918.611,138.542,296.561,-45.067,9237.104,8353.598,-12.481,-0.550,-0.241,-0.194,-0.069,-0.068,0.000,0.000,0.000,-0.214,0.626,-0.068,0.746,0.0000000,0.0000000,8370.174,0.000,0.000,0.000,0,00:00:00,-405053,0.000,8370.174,29637.789,-45.093,144.027,0.000,1.088,-12.883,-0.060,0.014,0.003,-0.008,0.000,0.000
80.410,3,0,-9.152,5.768,8363.264,-7.636,4.626,131.163,-2.246,1.909,-12.143,15.000,29.000,0.0165115,9128.664,9144.000,0.455,7.101,7932.344,137.328,296.561,-45.067,9237.104,8353.598,-12.481,-0.550,-0.241,-0.194,-0.069,-0.068,0.000,0.000,0.000,-0.223,0.624,-0.063,0.746,0.0000000,0.0000000,8370.174,0.000,0.000,0.000,0,00:00:00,-382637,0.000,8370.174,29637.789,-45.093,144.027,0.000,1.088,-12.883,-0.060,0.014,0.003,-0.008,0.000,0.000
80.511,3,0,-8.993,5.651,8377.421,-7.677,4.661,130.744,-5.137,3.317,-11.304,15.000,27.000,0.0165115,9119.551,9144.000,0.452,7.007,7945.963,136.197,295.241,-45.260,9266.864,8383.358,-12.584,1.711,1.973,-0.216,-0.045,0.077,0.000,0.000,0.000,-0.229,0.624,-0.053,0.746,0.0000000,0.0000000,8397.242,0.000,0.000,0.000,0,00:00:00,-360250,0.000,8397.242,29509.617,-45.281,141.602,0.000,0.936,-12.486,-0.021,-0.014,-0.001,0.001,0.000,0.000
80.612,3,0,-8.840,5.544,8390.817,-7.426,4.586,129.498,-2.157,2.174,-14.286,15.000,25.000,0.0165115,9133.703,9144.000,0.447,6.732,7959.440,134.769,294.839,-45.319,9275.936,8392.430,-14.516,-1.449,-0.797,-0.133,-0.145,-0.264,0.000,0.000,0.000,-0.243,0.615,-0.057,0.748,0.0000000,0.0000000,8410.593,0.000,0.000,0.000,0,00:00:00,-337842,0.000,8410.593,29466.336,-45.345,140.417,0.000,1.026,-12.277,0.033,0.013,0.006,0.013,0.000,0.000
80.713,3,0,-8.688,5.441,8404.780,-7.382,4.528,129.013,-4.132,2.284,-11.779,15.000,23.000,0.0165115,9136.129,9144.000,0.443,7.160,7972.799,133.591,294.038,-45.437,9294.077,8410.571,-12.621,0.035,1.324,-0.032,-0.009,0.234,0.000,0.000,0.000,-0.237,0.618,-0.047,0.748,0.0000000,0.0000000,8423.821,0.000,0.000,0.000,0,00:00:00,-315387,0.000,8423.821,29419.004,-45.415,139.249,0.000,0.980,-12.149,0.099,0.002,0.001,-0.001,0.000,0.000
80.814,3,0,-8.544,5.340,8417.932,-7.279,4.430,127.838,-3.479,1.839,-13.034,25.000,21.000,0.0165115,9148.526,9144.000,0.439,7.126,7986.028,132.287,293.662,-45.492,9302.596,8419.090,-13.600,-0.610,0.211,0.364,-0.238,-0.235,0.000,0.000,0.000,-0.231,0.605,-0.065,0.759,0.0000000,0.0000000,8436.932,0.000,0.000,0.000,0,00:00:00,-304034,0.000,8436.932,29385.555,-45.464,138.098,0.000,0.994,-12.052,0.002,0.012,0.009,-0.017,0.000,0.000
80.915,3,0,-8.412,5.243,8430.679,-7.370,4.410,126.505,-5.324,2.564,-12.453,15.000,20.000,0.0165115,9143.465,9144.000,0.435,9.244,7999.132,131.042,293.179,-45.564,9313.565,8430.059,-13.644,0.922,1.733,-0.007,0.077,0.008,0.000,0.000,0.000,-0.231,0.608,-0.065,0.757,0.0000000,0.0000000,8449.923,0.000,0.000,0.000,0,00:00:00,-298048,0.000,8449.923,29305.572,-45.582,136.959,0.000,0.941,-11.746,-0.099,0.007,0.004,-0.010,0.000,0.000
81.016,3,0,-8.294,5.149,8443.727,-7.298,4.291,125.528,-3.644,1.526,-12.126,15.000,19.000,0.0165115,9146.001,9144.000,0.431,8.826,8012.115,129.829,292.488,-45.666,9329.270,8445.764,-12.715,-0.909,0.363,-0.107,-0.396,0.102,0.000,0.000,0.000,-0.233,0.595,-0.053,0.768,0.0000000,0.0000000,8462.797,0.000,0.000,0.000,0,00:00:00,-277442,0.000,8462.797,29219.115,-45.710,135.829,0.000,1.083,-11.767,-0.001,-0.003,0.004,-0.005,0.000,0.000
81.117,3,0,-8.182,5.057,8456.827,-7.273,4.257,124.948,-4.057,2.325,-9.208,15.000,17.000,0.0165115,9144.669,9144.000,0.428,10.609,8025.006,128.909,291.876,-45.757,9343.208,8459.702,-10.190,0.279,1.656,-0.044,-0.431,0.220,0.000,0.000,0.000,-0.150,0.616,0.032,0.772,0.0000000,0.0000000,8475.556,0.000,0.000,0.000,0,00:00:00,-266211,0.000,8475.556,29178.602,-45.770,134.716,0.000,0.976,-11.608,-0.052,0.022,0.008,0.011,0.000,0.000
81.218,3,0,-8.076,4.973,8469.964,-7.204,4.282,124.397,-3.561,2.863,-9.650,15.000,16.000,0.0165115,9150.416,9144.000,0.425,11.263,8037.800,127.944,291.274,-45.846,9356.944,8473.439,-10.544,0.539,1.591,0.177,-0.134,0.310,0.000,0.000,0.000,-0.095,0.633,0.072,0.765,0.0000000,0.0000000,8488.199,0.000,0.000,0.000,0,00:00:00,-266254,0.000,8488.199,29167.779,-45.786,133.612,0.000,1.053,-11.547,0.085,-0.006,0.005,0.002,0.000,0.000
81.319,3,0,-7.971,4.895,8482.686,-7.057,4.212,123.466,-2.742,1.873,-10.800,35.000,16.000,0.0165115,9161.812,9144.000,0.421,10.446,8050.487,126.864,290.812,-45.915,9367.504,8483.998,-11.246,-0.756,0.792,-0.068,-0.142,-0.106,0.000,0.000,0.000,-0.102,0.638,0.070,0.760,0.0000000,0.0000000,8500.729,0.000,0.000,0.000,0,00:00:00,-271737,0.000,8500.729,29107.436,-45.876,132.513,0.000,0.999,-11.451,0.060,0.014,-0.001,-0.009,0.000,0.000
81.420,3,0,-7.870,4.817,8495.236,-7.080,4.122,122.571,-4.361,1.645,-9.816,35.000,17.000,0.0165115,9167.651,9144.000,0.418,9.497,8063.075,125.882,290.286,-45.993,9379.537,8496.031,-10.591,-0.312,2.412,0.465,0.160,0.142,0.000,0.000,0.000,-0.076,0.634,0.063,0.767,0.0000000,0.0000000,8513.142,0.000,0.000,0.000,0,00:00:00,-292086,0.000,8513.142,29032.139,-45.987,131.412,0.000,1.023,-11.531,-0.047,0.011,0.008,0.013,0.000,0.000
81.521,3,0,-7.775,4.737,8507.656,-7.001,4.001,121.485,-3.313,1.292,-11.492,35.000,19.000,0.0165115,9163.875,9144.000,0.415,10.622,8075.548,124.733,289.752,-46.072,9391.772,8508.267,-11.917,-1.167,1.160,-0.124,0.046,0.120,0.000,0.000,0.000,-0.077,0.636,0.071,0.765,0.0000000,0.0000000,8525.438,0.000,0.000,0.000,0,00:00:00,-314417,0.000,8525.438,28945.611,-46.116,130.304,0.000,1.021,-11.495,-0.069,-0.001,0.015,0.003,0.000,0.000
81.622,3,0,-7.685,4.660,8520.476,-6.982,4.038,120.689,-3.855,2.819,-12.412,35.000,21.000,0.0165115,9164.218,9144.000,0.411,10.337,8087.897,123.492,289.056,-46.176,9407.739,8524.233,-13.218,-0.045,1.460,-0.063,-0.069,0.235,0.000,0.000,0.000,-0.072,0.634,0.082,0.766,0.0000000,0.0000000,8537.618,0.000,0.000,0.000,0,00:00:00,-336928,0.000,8537.618,28948.053,-46.113,129.191,0.000,1.001,-11.732,0.001,-0.000,-0.009,0.005,0.000,0.000
81.723,3,0,-7.603,4.592,8532.269,-6.985,4.033,119.174,-4.023,2.370,-12.535,50.000,23.000,0.0165115,9165.268,9144.000,0.406,10.727,8100.121,122.238,288.795,-46.215,9413.734,8530.229,-13.228,-0.162,1.977,0.348,0.230,0.236,0.000,0.000,0.000,-0.052,0.645,0.079,0.758,0.0000000,0.0000000,8549.680,0.000,0.000,0.000,0,00:00:00,-359312,0.000,8549.680,28856.619,-46.249,128.071,0.000,0.989,-11.690,-0.008,-0.004,-0.009,0.008,0.000,0.000
81.824,3,0,-7.511,4.525,8544.346,-6.593,3.934,118.154,-0.072,1.393,-10.805,50.000,25.000,0.0165115,9165.471,9144.000,0.403,9.394,8112.237,121.158,288.156,-46.311,9428.437,8544.931,-10.877,-0.076,-0.621,0.513,-0.041,0.062,0.000,0.000,0.000,-0.040,0.682,0.056,0.728,0.0000000,0.0000000,8561.623,0.000,0.000,0.000,0,00:00:00,-381759,0.000,8561.623,28815.699,-46.311,126.947,0.000,1.063,-11.820,-0.043,0.013,0.017,-0.008,0.000,0.000
