State - Time (s),State - Stage,State - Stage,State - PX (m),State - PY (m),State - PZ (m),State - VX (m/s),State - VY (m/s),State - VZ (m/s),State - AX (m/s/s),State - AY (m/s/s),State - AZ (m/s/s),State - Actuation Angle (deg),State - Acutal Angle (deg),State - CdA,State - Est Apo (m),State - Target Apogee (m),State - Mach Number,State - Tilt [deg],State - Pos - Accel Integrated [m],State - Velo - Accel Integrated [m/s],MockBarometer - Pres (hPa),MockBarometer - Temp (C),MockBarometer - Alt ASL (m),MockBarometer - Alt AGL (m),MockIMU - AccX (m/s^2),MockIMU - AccY (m/s^2),MockIMU - AccZ (m/s^2),MockIMU - GyroX (rad/s),MockIMU - GyroY (rad/s),MockIMU - GyroZ (rad/s),MockIMU - MagX (uT),MockIMU - MagY (uT),MockIMU - MagZ (uT),MockIMU - OriX,MockIMU - OriY,MockIMU - OriZ,MockIMU - OriW,MockGPS - Lat,MockGPS - Lon,MockGPS - Alt (m),MockGPS - Disp X (m),MockGPS - Disp Y (m),MockGPS - Disp Z (m),MockGPS - Fix Quality,MockGPS - Time of Day,E5 - Rel Steps,MockBR - Battery Voltage (V),MockBR - ALT (m),MockBR - PRES (Pa),MockBR - TEMP (C),MockBR - VEL (m/s),MockBR - ANG (deg),MockBR - ACCX (m/s^2),MockBR - ACCY (m/s^2),MockBR - ACCZ (m/s^2),MockBR - GYROX (rad/s),MockBR - GYROY (rad/s),MockBR - GYROZ (rad/s),MockBR - ROLL (deg),MockBR - TILT (deg)
38.125,1,0,-3.784,0.781,-7.177,-2.556,0.262,1.176,12.149,-5.144,123.294,0.000,0.000,0.0116870,0.000,9144.000,0.053,6.074,39.820,17.659,911.250,9.241,885.576,2.046,123.994,-0.179,0.971,0.005,-0.004,0.001,0.000,0.000,0.000,-0.011,0.668,0.017,0.743,0.0000000,0.0000000,1.847,0.000,0.000,0.000,0,00:00:00,-825,0.000,1.847,91126.539,9.242,12.395,0.000,0.928,123.909,-0.005,-0.003,-0.014,0.028,0.000,0.000
38.226,1,0,-3.598,0.707,-4.815,-1.141,-0.266,14.929,12.114,-4.850,124.268,0.000,0.000,0.0116870,0.000,9144.000,0.090,6.094,42.829,30.086,910.917,9.222,888.589,5.059,124.947,-0.052,1.057,0.019,0.003,0.028,0.000,0.000,0.000,-0.009,0.669,0.018,0.743,0.0000000,0.0000000,4.940,0.000,0.000,0.000,0,00:00:00,-825,0.000,4.940,91093.219,9.223,24.881,0.000,1.020,124.856,0.096,0.015,0.008,0.000,0.000,0.000
38.327,1,0,-3.301,0.591,-0.999,0.238,-0.814,28.809,11.921,-5.119,125.070,0.000,0.000,0.0116870,0.000,9144.000,0.127,6.076,47.088,42.593,910.455,9.195,892.780,9.250,125.736,-0.026,1.130,-0.022,0.017,-0.010,0.000,0.000,0.000,-0.010,0.669,0.018,0.743,0.0000000,0.0000000,9.286,0.000,0.000,0.000,0,00:00:00,-825,0.000,9.286,91048.984,9.197,37.457,0.000,1.034,125.812,0.035,0.014,-0.006,0.003,0.000,0.000
38.428,1,0,-2.906,0.434,4.305,1.630,-1.408,42.844,12.253,-5.656,126.003,0.000,0.000,0.0116870,0.000,9144.000,0.164,5.981,52.608,55.194,909.817,9.157,898.577,15.047,126.718,-0.097,1.130,-0.031,-0.020,0.029,0.000,0.000,0.000,-0.010,0.668,0.020,0.743,0.0000000,0.0000000,14.896,0.000,0.000,0.000,0,00:00:00,-825,0.000,14.896,90973.672,9.152,50.122,0.000,0.988,126.601,-0.064,-0.002,0.014,-0.010,0.000,0.000
38.529,1,0,-2.421,0.236,10.083,3.019,-2.035,56.170,12.483,-6.082,125.960,0.000,0.000,0.0116870,0.000,9144.000,0.202,6.095,59.387,67.790,909.817,9.157,898.577,15.047,126.718,-0.097,1.130,-0.031,-0.020,0.029,0.000,0.000,0.000,-0.010,0.668,0.022,0.744,0.0000000,0.0000000,14.896,0.000,0.000,0.000,0,00:00:00,-825,0.000,14.896,90973.672,9.152,50.122,0.000,0.988,126.601,-0.064,-0.002,0.014,-0.010,0.000,0.000
38.630,1,0,-1.854,-0.001,18.319,4.401,-2.661,70.466,12.709,-6.200,127.391,0.000,0.000,0.0116870,0.000,9144.000,0.240,6.210,67.439,80.529,908.165,9.059,913.587,30.057,128.169,0.075,1.006,-0.015,0.004,0.018,0.000,0.000,0.000,-0.010,0.668,0.024,0.744,0.0000000,0.0000000,29.939,0.000,0.000,0.000,0,00:00:00,-825,0.000,29.939,90822.297,9.063,75.716,0.000,1.012,128.312,-0.033,0.002,-0.006,-0.027,0.000,0.000
38.731,1,0,-1.214,-0.272,27.966,5.771,-3.267,84.860,12.921,-6.135,128.661,0.000,0.000,0.0116870,0.000,9144.000,0.279,6.191,76.779,93.395,907.131,8.998,922.988,39.457,129.450,-0.012,0.987,0.018,-0.005,0.013,0.000,0.000,0.000,-0.009,0.668,0.023,0.744,0.0000000,0.0000000,39.389,0.000,0.000,0.000,0,00:00:00,-825,0.000,39.389,90709.875,8.996,88.641,0.000,0.999,129.297,0.036,0.010,-0.007,-0.001,0.000,0.000
38.832,1,0,-0.511,-0.572,38.950,7.101,-3.833,99.223,12.902,-5.908,129.229,0.000,0.000,0.0116870,0.000,9144.000,0.317,6.218,87.411,106.318,906.005,8.931,933.240,49.710,130.001,-0.139,1.124,0.032,-0.006,0.029,0.000,0.000,0.000,-0.007,0.667,0.024,0.744,0.0000000,0.0000000,50.135,0.000,0.000,0.000,0,00:00:00,-825,0.000,50.135,90605.250,8.934,101.651,0.000,1.093,130.117,0.027,0.003,-0.007,0.005,0.000,0.000
38.933,1,0,0.245,-0.897,51.389,8.385,-4.440,113.677,12.841,-6.483,130.139,0.000,0.000,0.0116870,0.000,9144.000,0.356,6.250,99.344,119.331,904.641,8.851,945.679,62.149,130.927,-0.189,1.107,-0.038,0.014,-0.013,0.000,0.000,0.000,-0.009,0.668,0.024,0.744,0.0000000,0.0000000,62.187,0.000,0.000,0.000,0,00:00:00,-825,0.000,62.187,90457.422,8.847,114.743,0.000,1.014,130.875,-0.097,0.008,-0.007,0.021,0.000,0.000
39.034,1,0,1.046,-1.245,65.222,9.606,-5.019,128.163,12.640,-6.383,130.975,0.000,0.000,0.0116870,0.000,9144.000,0.395,6.173,112.587,132.429,903.172,8.763,959.083,75.553,131.734,0.085,0.976,-0.008,0.031,0.019,0.000,0.000,0.000,-0.009,0.669,0.025,0.743,0.0000000,0.0000000,75.552,0.000,0.000,0.000,0,00:00:00,-825,0.000,75.552,90325.469,8.768,127.915,0.000,1.031,131.775,-0.005,-0.008,0.010,0.020,0.000,0.000
39.135,1,0,1.881,-1.614,80.364,10.802,-5.595,142.612,12.829,-6.559,131.767,0.000,0.000,0.0116870,0.000,9144.000,0.435,5.994,127.147,145.606,901.621,8.671,973.256,89.726,132.548,0.037,1.073,-0.008,-0.015,-0.009,0.000,0.000,0.000,-0.009,0.669,0.025,0.743,0.0000000,0.0000000,90.237,0.000,0.000,0.000,0,00:00:00,-825,0.000,90.237,90160.148,8.670,141.165,0.000,1.124,132.404,-0.026,0.010,-0.000,-0.026,0.000,0.000
39.236,1,0,2.747,-1.998,96.927,11.971,-6.099,157.099,13.021,-6.037,132.465,0.000,0.000,0.0116870,0.000,9144.000,0.475,6.080,143.032,158.852,899.840,8.565,989.556,106.026,133.237,-0.138,1.024,0.055,-0.005,-0.005,0.000,0.000,0.000,-0.007,0.668,0.023,0.743,0.0000000,0.0000000,106.250,0.000,0.000,0.000,0,00:00:00,-825,0.000,106.250,89984.336,8.565,154.490,0.000,0.905,133.272,-0.026,-0.006,-0.013,0.009,0.000,0.000
39.337,1,0,3.638,-2.392,114.884,13.127,-6.608,171.602,13.354,-6.297,133.161,0.000,0.000,0.0116870,0.000,9144.000,0.515,6.105,160.249,172.168,897.930,8.451,1007.068,123.538,133.974,0.020,0.859,-0.025,-0.008,0.038,0.000,0.000,0.000,-0.007,0.668,0.025,0.744,0.0000000,0.0000000,123.598,0.000,0.000,0.000,0,00:00:00,-825,0.000,123.598,89790.375,8.450,167.887,0.000,1.061,134.042,0.016,-0.003,-0.024,-0.008,0.000,0.000
39.438,1,0,4.548,-2.793,134.212,14.238,-7.078,186.088,13.395,-6.119,133.698,0.000,0.000,0.0116870,0.000,9144.000,0.555,6.156,178.803,185.538,895.890,8.329,1025.808,142.278,134.502,-0.061,1.050,0.023,-0.014,0.017,0.000,0.000,0.000,-0.006,0.668,0.025,0.744,0.0000000,0.0000000,142.288,0.000,0.000,0.000,0,00:00:00,-825,0.000,142.288,89592.086,8.331,181.353,0.000,0.931,134.656,-0.008,0.002,0.006,-0.011,0.000,0.000
39.539,1,0,5.475,-3.201,154.902,15.348,-7.557,200.572,13.867,-6.434,134.467,0.000,0.000,0.0116870,0.000,9144.000,0.595,6.233,198.702,198.985,893.712,8.199,1045.848,162.318,135.330,-0.059,0.905,-0.021,-0.018,-0.004,0.000,0.000,0.000,-0.007,0.667,0.026,0.745,0.0000000,0.0000000,162.325,0.000,0.000,0.000,0,00:00:00,-825,0.000,162.325,89363.953,8.195,194.885,0.000,0.935,135.291,-0.002,0.001,-0.013,0.016,0.000,0.000
39.640,1,0,6.416,-3.613,176.988,16.442,-8.022,215.073,14.209,-6.504,135.140,0.000,0.000,0.0116870,0.000,9144.000,0.636,6.337,219.951,212.499,891.363,8.058,1067.510,183.980,136.037,-0.032,0.933,-0.002,-0.023,0.029,0.000,0.000,0.000,-0.006,0.666,0.027,0.745,0.0000000,0.0000000,183.716,0.000,0.000,0.000,0,00:00:00,-825,0.000,183.716,89141.508,8.061,208.478,0.000,1.078,135.899,0.023,-0.012,0.004,0.009,0.000,0.000
39.741,1,0,7.367,-4.030,200.387,17.501,-8.482,229.525,14.363,-6.671,135.820,0.000,0.000,0.0116870,0.000,9144.000,0.676,6.469,242.560,226.081,888.934,7.912,1089.949,206.419,136.736,0.083,0.985,-0.020,-0.009,-0.011,0.000,0.000,0.000,-0.007,0.666,0.027,0.746,0.0000000,0.0000000,206.467,0.000,0.000,0.000,0,00:00:00,-825,0.000,206.467,88895.328,7.914,222.127,0.000,1.006,136.490,0.075,0.008,0.013,-0.003,0.000,0.000
39.842,1,0,8.322,-4.448,225.129,18.479,-8.929,243.917,14.058,-6.762,136.088,0.000,0.000,0.0116870,0.000,9144.000,0.717,6.521,266.528,239.689,886.340,7.756,1113.975,230.445,136.974,0.067,1.093,-0.001,0.015,0.037,0.000,0.000,0.000,-0.005,0.666,0.029,0.745,0.0000000,0.0000000,230.581,0.000,0.000,0.000,0,00:00:00,-825,0.000,230.581,88632.242,7.755,235.827,0.000,0.993,137.006,-0.018,0.004,-0.008,0.007,0.000,0.000
39.943,1,0,9.274,-4.867,251.199,19.384,-9.357,258.260,13.832,-6.801,136.551,0.000,0.000,0.0116870,0.000,9144.000,0.758,6.438,291.863,253.345,883.618,7.592,1139.252,255.722,137.414,-0.208,1.117,0.020,0.017,0.011,0.000,0.000,0.000,-0.004,0.667,0.028,0.745,0.0000000,0.0000000,256.063,0.000,0.000,0.000,0,00:00:00,-825,0.000,256.063,88356.305,7.588,249.573,0.000,1.014,137.432,-0.009,-0.003,-0.001,0.010,0.000,0.000
40.044,1,0,10.217,-5.285,278.653,20.254,-9.753,272.570,13.989,-6.699,136.705,0.000,0.000,0.0116870,0.000,9144.000,0.799,6.337,318.564,267.015,880.711,7.416,1166.312,282.782,137.580,0.085,0.805,-0.013,0.013,-0.003,0.000,0.000,0.000,-0.005,0.667,0.029,0.744,0.0000000,0.0000000,282.917,0.000,0.000,0.000,0,00:00:00,-825,0.000,282.917,88073.227,7.417,263.357,0.000,0.971,137.831,-0.007,-0.013,0.004,-0.008,0.000,0.000
40.145,1,0,11.149,-5.700,307.439,21.077,-10.162,286.851,14.009,-7.044,137.276,0.000,0.000,0.0116870,0.000,9144.000,0.841,6.262,346.639,280.743,877.704,7.233,1194.383,310.853,138.165,0.101,0.918,-0.025,-0.005,-0.003,0.000,0.000,0.000,-0.006,0.667,0.030,0.744,0.0000000,0.0000000,311.146,0.000,0.000,0.000,0,00:00:00,-825,0.000,311.146,87762.508,7.229,277.174,0.000,1.056,138.131,-0.072,-0.019,0.012,-0.003,0.000,0.000
40.246,1,0,12.068,-6.115,337.536,21.863,-10.598,301.072,14.133,-7.537,137.678,0.000,0.000,0.0116870,0.000,9144.000,0.882,6.295,376.090,294.510,874.576,7.043,1223.659,340.129,138.603,0.046,1.004,-0.033,-0.011,-0.026,0.000,0.000,0.000,-0.008,0.667,0.030,0.745,0.0000000,0.0000000,340.751,0.000,0.000,0.000,0,00:00:00,-825,0.000,340.751,87446.078,7.036,291.014,0.000,1.055,138.385,0.021,0.001,-0.015,-0.006,0.000,0.000
40.347,1,0,12.971,-6.532,364.650,22.618,-11.055,311.987,14.298,-7.955,137.638,0.000,0.000,0.0116870,0.000,9144.000,0.923,6.360,406.917,308.274,874.576,7.043,1223.659,340.129,138.603,0.046,1.004,-0.033,-0.011,-0.026,0.000,0.000,0.000,-0.010,0.666,0.030,0.745,0.0000000,0.0000000,340.751,0.000,0.000,0.000,0,00:00:00,-825,0.000,340.751,87446.078,7.036,291.014,0.000,1.055,138.385,0.021,0.001,-0.015,-0.006,0.000,0.000
40.448,1,0,13.856,-6.952,388.911,23.343,-11.531,319.944,14.464,-8.372,137.595,0.000,0.000,0.0116870,0.000,9144.000,0.965,6.425,439.121,322.034,874.576,7.043,1223.659,340.129,138.603,0.046,1.004,-0.033,-0.011,-0.026,0.000,0.000,0.000,-0.012,0.666,0.030,0.745,0.0000000,0.0000000,340.751,0.000,0.000,0.000,0,00:00:00,-825,0.000,340.751,87446.078,7.036,291.014,0.000,1.055,138.385,0.021,0.001,-0.015,-0.006,0.000,0.000
40.549,1,0,14.722,-7.374,424.112,24.005,-11.947,335.463,14.297,-7.997,137.488,0.000,0.000,0.0116870,0.000,9144.000,1.007,6.490,472.699,335.783,864.236,6.410,1321.050,437.520,138.457,0.074,1.053,0.023,0.008,-0.016,0.000,0.000,0.000,-0.012,0.666,0.029,0.745,0.0000000,0.0000000,437.833,0.000,0.000,0.000,0,00:00:00,-825,0.000,437.833,86423.367,6.409,332.591,0.000,1.022,138.510,-0.076,0.003,0.002,-0.003,0.000,0.000
40.650,1,0,15.566,-7.795,460.614,24.617,-12.367,350.776,14.241,-8.261,137.413,0.000,0.000,0.0116870,0.000,9144.000,1.048,6.439,507.651,349.524,860.558,6.183,1355.921,472.391,138.392,-0.022,0.943,-0.014,0.012,-0.017,0.000,0.000,0.000,-0.013,0.667,0.028,0.745,0.0000000,0.0000000,472.946,0.000,0.000,0.000,0,00:00:00,-825,0.000,472.946,86057.289,6.184,346.435,0.000,0.994,138.404,-0.031,-0.014,-0.003,0.003,0.000,0.000
40.751,1,0,16.385,-8.214,498.444,25.216,-12.778,365.933,14.546,-8.389,137.491,0.000,0.000,0.0116870,0.000,9144.000,1.090,6.370,543.978,363.273,856.724,5.946,1392.406,508.876,138.510,0.025,0.849,-0.013,-0.014,-0.006,0.000,0.000,0.000,-0.014,0.666,0.029,0.745,0.0000000,0.0000000,509.435,0.000,0.000,0.000,0,00:00:00,-825,0.000,509.435,85669.086,5.944,360.288,0.000,1.064,138.575,-0.068,-0.017,-0.010,0.002,0.000,0.000
40.852,1,0,17.181,-8.630,537.614,25.799,-13.160,380.961,14.815,-8.316,137.637,0.000,0.000,0.0116870,0.000,9144.000,1.132,6.452,581.682,377.037,852.745,5.699,1430.401,546.871,138.677,0.165,1.026,-0.003,-0.032,0.014,0.000,0.000,0.000,-0.013,0.665,0.029,0.746,0.0000000,0.0000000,547.304,0.000,0.000,0.000,0,00:00:00,-825,0.000,547.304,85277.250,5.700,374.157,0.000,1.075,138.636,-0.077,-0.003,0.003,-0.011,0.000,0.000
40.953,1,0,17.954,-9.041,578.053,26.330,-13.530,395.819,14.700,-8.422,137.793,0.000,0.000,0.0116870,0.000,9144.000,1.173,6.633,620.764,390.816,848.686,5.446,1469.307,585.777,138.827,0.008,1.042,0.006,0.007,0.012,0.000,0.000,0.000,-0.013,0.665,0.030,0.746,0.0000000,0.0000000,586.553,0.000,0.000,0.000,0,00:00:00,-825,0.000,586.553,84874.375,5.449,388.038,0.000,1.075,138.809,-0.009,-0.009,0.025,0.002,0.000,0.000
41.054,1,0,18.701,-9.447,614.115,26.811,-13.873,406.287,14.589,-8.364,137.808,0.000,0.000,0.0116870,0.000,9144.000,1.215,6.590,661.223,404.597,848.686,5.446,1469.307,585.777,138.827,0.008,1.042,0.006,0.007,0.012,0.000,0.000,0.000,-0.012,0.665,0.030,0.746,0.0000000,0.0000000,586.553,0.000,0.000,0.000,0,00:00:00,-825,0.000,586.553,84874.375,5.449,388.038,0.000,1.075,138.809,-0.009,-0.009,0.025,0.002,0.000,0.000
41.155,1,0,19.420,-9.846,657.642,27.256,-14.224,421.550,14.618,-8.649,137.890,0.000,0.000,0.0116870,0.000,9144.000,1.257,6.548,703.062,418.386,840.097,4.907,1552.145,668.615,138.927,-0.125,1.154,-0.012,-0.009,-0.008,0.000,0.000,0.000,-0.013,0.665,0.030,0.746,0.0000000,0.0000000,669.193,0.000,0.000,0.000,0,00:00:00,-825,0.000,669.193,83998.852,4.900,415.824,0.000,1.034,138.923,-0.032,0.015,-0.001,-0.009,0.000,0.000
41.256,1,0,20.112,-10.235,702.492,27.701,-14.486,436.659,14.991,-7.979,137.979,0.000,0.000,0.0116870,0.000,9144.000,1.299,6.601,746.280,432.184,835.614,4.624,1595.653,712.123,139.017,0.104,0.956,0.033,-0.012,0.000,0.000,0.000,0.000,-0.011,0.665,0.029,0.746,0.0000000,0.0000000,712.585,0.000,0.000,0.000,0,00:00:00,-825,0.000,712.585,83561.086,4.624,429.721,0.000,0.955,139.062,-0.001,-0.003,0.000,0.004,0.000,0.000
41.357,1,0,20.777,-10.613,748.581,28.092,-14.761,451.559,14.795,-8.307,138.032,0.000,0.000,0.0116870,0.000,9144.000,1.341,6.664,790.879,445.987,831.066,4.336,1639.985,756.455,139.067,-0.090,1.063,-0.011,0.007,-0.010,0.000,0.000,0.000,-0.012,0.665,0.029,0.746,0.0000000,0.0000000,757.357,0.000,0.000,0.000,0,00:00:00,-825,0.000,757.357,83095.734,4.329,443.616,0.000,1.054,138.963,0.001,-0.012,-0.006,0.016,0.000,0.000
41.458,1,0,21.416,-10.979,795.960,28.480,-15.012,466.281,15.106,-8.250,137.865,0.000,0.000,0.0116870,0.000,9144.000,1.383,6.625,836.856,459.773,826.362,4.036,1686.046,802.516,138.932,-0.174,0.909,0.009,-0.012,-0.006,0.000,0.000,0.000,-0.012,0.665,0.028,0.747,0.0000000,0.0000000,803.510,0.000,0.000,0.000,0,00:00:00,-825,0.000,803.510,82630.852,4.033,457.507,0.000,0.950,138.884,-0.014,0.014,0.013,0.009,0.000,0.000
41.559,1,0,22.028,-11.334,844.676,28.835,-15.259,480.880,15.095,-8.414,137.749,0.000,0.000,0.0116870,0.000,9144.000,1.426,6.694,884.211,473.548,821.504,3.725,1733.842,850.312,138.825,-0.038,1.062,-0.020,-0.012,0.021,0.000,0.000,0.000,-0.012,0.664,0.030,0.747,0.0000000,0.0000000,851.041,0.000,0.000,0.000,0,00:00:00,-825,0.000,851.041,82151.641,3.726,471.389,0.000,1.000,138.750,0.028,-0.003,-0.009,0.002,0.000,0.000
41.660,1,0,22.616,-11.678,894.741,29.196,-15.499,495.374,15.473,-8.516,137.630,0.000,0.000,0.0116870,0.000,9144.000,1.468,6.766,932.942,487.311,816.517,3.405,1783.145,899.614,138.755,-0.017,1.058,-0.006,-0.029,0.025,0.000,0.000,0.000,-0.011,0.663,0.031,0.748,0.0000000,0.0000000,899.951,0.000,0.000,0.000,0,00:00:00,-825,0.000,899.951,81663.586,3.412,485.262,0.000,1.013,138.729,-0.049,-0.020,0.009,-0.013,0.000,0.000
41.761,1,0,23.180,-12.011,946.013,29.500,-15.737,509.651,15.200,-8.674,137.372,0.000,0.000,0.0116870,0.000,9144.000,1.510,6.934,983.047,501.049,811.514,3.082,1832.844,949.314,138.478,-0.219,1.052,-0.002,0.020,-0.037,0.000,0.000,0.000,-0.013,0.664,0.030,0.747,0.0000000,0.0000000,950.237,0.000,0.000,0.000,0,00:00:00,-825,0.000,950.237,81148.688,3.080,499.120,0.000,0.894,138.585,-0.045,-0.006,0.001,0.003,0.000,0.000
41.862,1,0,23.719,-12.332,998.575,29.822,-15.923,523.814,15.659,-8.322,137.367,0.000,0.000,0.0116870,0.000,9144.000,1.552,6.821,1034.526,514.785,806.343,2.746,1884.479,1000.949,138.504,0.039,0.828,0.006,-0.016,-0.013,0.000,0.000,0.000,-0.013,0.663,0.029,0.748,0.0000000,0.0000000,1001.898,0.000,0.000,0.000,0,00:00:00,-825,0.000,1001.898,80633.945,2.746,512.963,0.000,1.091,138.423,0.014,-0.016,0.011,0.008,0.000,0.000
41.963,1,0,24.237,-12.641,1052.414,30.164,-16.115,537.830,16.132,-8.552,137.041,0.000,0.000,0.0116870,0.000,9144.000,1.594,6.910,1087.375,528.489,801.072,2.402,1937.383,1053.853,138.248,-0.051,1.032,-0.017,-0.049,-0.044,0.000,0.000,0.000,-0.015,0.661,0.028,0.750,0.0000000,0.0000000,1054.932,0.000,0.000,0.000,0,00:00:00,-825,0.000,1054.932,80107.719,2.402,526.788,0.000,0.983,138.200,-0.060,0.011,0.003,0.005,0.000,0.000
42.064,1,0,24.739,-12.940,1107.581,30.520,-16.352,551.761,16.531,-9.145,136.828,0.000,0.000,0.0116870,0.000,9144.000,1.637,7.193,1141.592,542.172,795.658,2.046,1992.024,1108.494,138.123,-0.071,0.911,-0.042,-0.021,-0.002,0.000,0.000,0.000,-0.017,0.660,0.029,0.750,0.0000000,0.0000000,1109.336,0.000,0.000,0.000,0,00:00:00,-825,0.000,1109.336,79571.219,2.050,540.592,0.000,0.935,138.020,0.003,-0.006,-0.005,0.017,0.000,0.000
42.165,1,0,25.226,-13.233,1164.013,30.852,-16.581,565.552,16.551,-9.233,136.484,0.000,0.000,0.0116870,0.000,9144.000,1.679,7.318,1197.174,555.820,790.183,1.685,2047.588,1164.058,137.790,0.077,0.961,-0.018,-0.009,0.009,0.000,0.000,0.000,-0.017,0.660,0.030,0.750,0.0000000,0.0000000,1165.109,0.000,0.000,0.000,0,00:00:00,-825,0.000,1165.109,79020.844,1.687,554.374,0.000,1.084,137.725,-0.019,0.022,0.000,0.002,0.000,0.000
42.266,1,0,25.696,-13.519,1213.733,31.169,-16.822,573.284,16.660,-9.491,136.453,0.000,0.000,0.0116870,0.000,9144.000,1.720,7.369,1254.120,569.466,790.183,1.685,2047.588,1164.058,137.790,0.077,0.961,-0.018,-0.009,0.009,0.000,0.000,0.000,-0.017,0.660,0.031,0.751,0.0000000,0.0000000,1165.109,0.000,0.000,0.000,0,00:00:00,-825,0.000,1165.109,79020.844,1.687,554.374,0.000,1.084,137.725,-0.019,0.022,0.000,0.002,0.000,0.000
42.367,1,0,26.149,-13.800,1273.359,31.447,-17.045,587.798,16.497,-9.471,136.078,0.000,0.000,0.0116870,0.000,9144.000,1.763,7.420,1312.428,583.074,778.887,0.933,2163.213,1279.683,137.397,0.032,1.128,0.003,-0.004,0.000,0.000,0.000,0.000,-0.017,0.659,0.031,0.751,0.0000000,0.0000000,1280.750,0.000,0.000,0.000,0,00:00:00,-825,0.000,1280.750,77893.422,0.936,581.861,0.000,1.057,137.265,-0.013,0.002,0.011,-0.010,0.000,0.000
42.468,1,0,26.586,-14.077,1334.258,31.720,-17.307,602.139,16.688,-9.997,135.792,0.000,0.000,0.0116870,0.000,9144.000,1.806,7.442,1372.093,596.653,773.105,0.545,2222.929,1339.399,137.175,0.203,0.995,-0.052,-0.006,0.004,0.000,0.000,0.000,-0.019,0.659,0.033,0.751,0.0000000,0.0000000,1340.612,0.000,0.000,0.000,0,00:00:00,-825,0.000,1340.612,77307.516,0.543,595.563,0.000,0.992,137.028,-0.009,0.015,-0.001,0.023,0.000,0.000
42.569,1,0,27.006,-14.350,1396.426,31.992,-17.533,616.308,16.897,-9.785,135.394,0.000,0.000,0.0116870,0.000,9144.000,1.848,7.484,1433.112,610.192,767.226,0.148,2284.013,1400.483,136.791,-0.061,0.955,0.032,-0.016,-0.009,0.000,0.000,0.000,-0.018,0.659,0.031,0.752,0.0000000,0.0000000,1401.831,0.000,0.000,0.000,0,00:00:00,-825,0.000,1401.831,76728.789,0.152,609.235,0.000,1.020,136.779,0.009,-0.002,-0.010,-0.018,0.000,0.000
42.670,1,0,27.411,-14.615,1451.111,32.265,-17.700,623.818,17.122,-9.337,135.397,0.000,0.000,0.0116870,0.000,9144.000,1.889,7.573,1495.486,623.732,767.226,0.148,2284.013,1400.483,136.791,-0.061,0.955,0.032,-0.016,-0.009,0.000,0.000,0.000,-0.017,0.658,0.030,0.752,0.0000000,0.0000000,1401.831,0.000,0.000,0.000,0,00:00:00,-825,0.000,1401.831,76728.789,0.152,609.235,0.000,1.020,136.779,0.009,-0.002,-0.010,-0.018,0.000,0.000
42.771,2,0,27.683,-14.809,1515.267,29.884,-16.511,619.033,-9.023,3.988,-58.072,0.000,0.000,0.0116870,0.000,9144.000,1.874,7.662,1557.278,617.925,755.435,-0.656,2407.670,1524.140,-58.895,0.098,0.979,0.023,-0.048,0.014,0.000,0.000,0.000,-0.016,0.656,0.030,0.754,0.0000000,0.0000000,1525.421,0.000,0.000,0.000,0,00:00:00,-825,0.000,1525.421,75540.906,-0.658,617.001,0.000,0.861,-58.659,0.030,0.004,-0.013,-0.002,0.000,0.000
42.872,2,0,27.711,-14.876,1578.467,27.510,-15.335,614.016,-8.927,3.821,-56.833,0.000,0.000,0.0114601,0.000,9144.000,1.857,7.936,1618.502,612.241,749.743,-1.048,2467.930,1584.400,-57.647,-0.035,1.077,-0.004,0.003,0.023,0.000,0.000,0.000,-0.015,0.656,0.031,0.754,0.0000000,0.0000000,1585.871,0.000,0.000,0.000,0,00:00:00,-825,0.000,1585.871,74974.148,-1.048,611.246,0.000,1.082,-57.703,-0.035,-0.002,0.002,-0.002,0.000,0.000
42.973,2,0,27.520,-14.830,1640.795,25.162,-14.169,608.850,-8.779,3.747,-55.561,0.000,0.000,0.0112730,0.000,9144.000,1.841,7.919,1679.171,606.685,744.105,-1.439,2527.984,1644.454,-56.362,0.021,1.205,0.012,0.016,0.023,0.000,0.000,0.000,-0.014,0.657,0.031,0.753,0.0000000,0.0000000,1645.764,0.000,0.000,0.000,0,00:00:00,-825,0.000,1645.764,74412.578,-1.437,605.606,0.000,1.041,-56.366,0.011,0.005,0.005,-0.006,0.000,0.000
43.074,2,0,27.136,-14.682,1702.205,22.889,-13.017,603.477,-8.232,3.682,-54.631,0.000,0.000,0.0111160,0.000,9144.000,1.826,7.826,1739.293,601.222,738.604,-1.822,2586.929,1703.399,-55.364,0.007,0.856,-0.002,0.012,0.011,0.000,0.000,0.000,-0.014,0.657,0.032,0.753,0.0000000,0.0000000,1705.112,0.000,0.000,0.000,0,00:00:00,-825,0.000,1705.112,73859.305,-1.823,600.078,0.000,1.022,-55.276,-0.077,0.002,-0.009,-0.006,0.000,0.000
43.175,2,0,26.581,-14.443,1762.762,20.646,-11.872,597.969,-8.234,3.737,-53.643,0.000,0.000,0.0109950,0.000,9144.000,1.811,7.760,1798.879,595.858,733.166,-2.203,2645.554,1762.024,-54.391,0.017,1.007,-0.025,0.005,-0.032,0.000,0.000,0.000,-0.016,0.658,0.031,0.753,0.0000000,0.0000000,1763.925,0.000,0.000,0.000,0,00:00:00,-825,0.000,1763.925,73319.617,-2.201,594.657,0.000,1.124,-54.190,-0.022,0.012,0.022,-0.001,0.000,0.000
43.276,2,0,25.875,-14.124,1822.570,18.452,-10.778,592.431,-8.108,3.408,-52.474,0.000,0.000,0.0109053,0.000,9144.000,1.796,7.732,1857.940,590.611,727.764,-2.584,2704.140,1820.610,-53.196,-0.070,1.042,0.033,-0.000,0.017,0.000,0.000,0.000,-0.014,0.658,0.031,0.753,0.0000000,0.0000000,1822.213,0.000,0.000,0.000,0,00:00:00,-825,0.000,1822.213,72778.781,-2.583,589.342,0.000,1.004,-53.205,0.023,0.008,-0.007,-0.014,0.000,0.000
43.377,2,0,25.039,-13.736,1881.581,16.342,-9.711,586.824,-7.731,3.344,-51.356,0.000,0.000,0.0108290,0.000,9144.000,1.781,7.730,1916.487,585.475,722.492,-2.958,2761.661,1878.131,-52.035,0.061,0.867,0.023,0.009,0.003,0.000,0.000,0.000,-0.013,0.658,0.030,0.752,0.0000000,0.0000000,1879.987,0.000,0.000,0.000,0,00:00:00,-825,0.000,1879.987,72253.484,-2.955,584.127,0.000,1.038,-52.167,-0.023,0.002,0.005,0.004,0.000,0.000
43.478,2,0,24.090,-13.288,1931.835,14.286,-8.679,575.095,-7.685,3.228,-51.371,0.000,0.000,0.0107637,0.000,9144.000,1.765,7.677,1974.521,580.338,722.492,-2.958,2761.661,1878.131,-52.035,0.061,0.867,0.023,0.009,0.003,0.000,0.000,0.000,-0.012,0.658,0.030,0.752,0.0000000,0.0000000,1879.987,0.000,0.000,0.000,0,00:00:00,-825,0.000,1879.987,72253.484,-2.955,584.127,0.000,1.038,-52.167,-0.023,0.002,0.005,0.004,0.000,0.000
43.579,2,0,23.046,-12.790,1990.053,12.306,-7.689,570.365,-7.482,3.071,-49.692,0.000,0.000,0.0108093,0.000,9144.000,1.752,7.625,2032.058,575.369,712.108,-3.701,2875.956,1992.426,-50.336,-0.061,1.005,-0.019,0.027,-0.040,0.000,0.000,0.000,-0.014,0.659,0.029,0.751,0.0000000,0.0000000,1994.028,0.000,0.000,0.000,0,00:00:00,-825,0.000,1994.028,71216.836,-3.697,573.988,0.000,0.958,-50.220,0.018,-0.010,0.014,-0.002,0.000,0.000
43.680,2,0,21.923,-12.249,2047.526,10.417,-6.726,565.533,-7.179,3.091,-48.690,0.000,0.000,0.0108060,0.000,9144.000,1.738,7.473,2089.108,570.500,707.081,-4.064,2931.759,2048.229,-49.304,-0.007,0.934,-0.004,0.019,0.018,0.000,0.000,0.000,-0.014,0.660,0.030,0.750,0.0000000,0.0000000,2050.313,0.000,0.000,0.000,0,00:00:00,-825,0.000,2050.313,70719.367,-4.056,569.057,0.000,0.954,-49.313,0.056,-0.008,0.004,0.005,0.000,0.000
43.781,2,0,20.735,-11.672,2104.296,8.590,-5.800,560.611,-7.180,3.032,-47.963,0.000,0.000,0.0107973,0.000,9144.000,1.725,7.365,2145.678,565.703,702.118,-4.425,2987.184,2103.654,-48.578,0.003,1.173,0.007,0.030,0.007,0.000,0.000,0.000,-0.013,0.661,0.030,0.749,0.0000000,0.0000000,2106.120,0.000,0.000,0.000,0,00:00:00,-825,0.000,2106.120,70209.031,-4.427,564.216,0.000,1.101,-48.326,-0.036,0.002,0.017,-0.013,0.000,0.000
43.882,2,0,19.495,-11.068,2160.435,6.847,-4.928,555.674,-7.007,2.813,-47.086,0.000,0.000,0.0108014,0.000,9144.000,1.712,7.195,2201.778,560.995,697.194,-4.784,3042.480,2158.950,-47.674,-0.021,1.122,0.026,0.004,-0.026,0.000,0.000,0.000,-0.013,0.661,0.028,0.749,0.0000000,0.0000000,2161.457,0.000,0.000,0.000,0,00:00:00,-825,0.000,2161.457,69715.281,-4.787,559.460,0.000,1.006,-47.634,0.067,0.007,0.004,-0.014,0.000,0.000
43.983,2,0,18.215,-10.441,2216.000,5.162,-4.071,550.789,-7.105,2.997,-45.969,0.000,0.000,0.0108043,0.000,9144.000,1.699,7.170,2257.417,556.398,692.319,-5.142,3097.542,2214.012,-46.595,0.107,1.234,-0.020,-0.029,0.038,0.000,0.000,0.000,-0.013,0.660,0.030,0.750,0.0000000,0.0000000,2216.333,0.000,0.000,0.000,0,00:00:00,-825,0.000,2216.333,69233.289,-5.141,554.788,0.000,1.110,-46.679,0.012,-0.000,-0.020,0.001,0.000,0.000
44.084,2,0,16.905,-9.796,2270.957,3.575,-3.263,545.884,-6.822,2.850,-45.306,0.000,0.000,0.0107960,0.000,9144.000,1.686,7.339,2312.604,551.867,687.544,-5.495,3151.779,2268.249,-45.894,-0.093,1.039,-0.017,-0.001,0.033,0.000,0.000,0.000,-0.012,0.660,0.032,0.750,0.0000000,0.0000000,2270.754,0.000,0.000,0.000,0,00:00:00,-825,0.000,2270.754,68762.156,-5.489,550.196,0.000,0.998,-45.972,-0.028,0.014,0.013,0.024,0.000,0.000
44.185,2,0,15.577,-9.141,2325.384,2.081,-2.514,541.026,-6.605,2.606,-44.548,0.000,0.000,0.0107980,0.000,9144.000,1.673,7.345,2367.345,547.412,682.800,-5.847,3205.971,2322.441,-45.102,-0.273,0.830,0.002,-0.019,0.002,0.000,0.000,0.000,-0.012,0.660,0.032,0.751,0.0000000,0.0000000,2324.730,0.000,0.000,0.000,0,00:00:00,-825,0.000,2324.730,68279.539,-5.848,545.684,0.000,0.902,-45.148,-0.004,-0.014,0.011,0.004,0.000,0.000
44.286,2,0,14.240,-8.481,2371.762,0.649,-1.801,530.521,-6.689,2.597,-44.536,0.000,0.000,0.0108019,0.000,9144.000,1.660,7.453,2421.641,542.959,682.800,-5.847,3205.971,2322.441,-45.102,-0.273,0.830,0.002,-0.019,0.002,0.000,0.000,0.000,-0.012,0.659,0.032,0.752,0.0000000,0.0000000,2324.730,0.000,0.000,0.000,0,00:00:00,-825,0.000,2324.730,68279.539,-5.848,545.684,0.000,0.902,-45.148,-0.004,-0.014,0.011,0.004,0.000,0.000
44.387,2,0,12.901,-7.817,2425.605,-0.707,-1.096,526.544,-6.640,2.877,-42.932,0.000,0.000,0.0109024,0.000,9144.000,1.649,7.562,2475.508,538.666,673.587,-6.537,3312.079,2428.549,-43.527,0.099,0.919,-0.002,-0.018,-0.001,0.000,0.000,0.000,-0.012,0.658,0.032,0.752,0.0000000,0.0000000,2431.372,0.000,0.000,0.000,0,00:00:00,-825,0.000,2431.372,67353.055,-6.542,536.884,0.000,1.013,-43.671,0.013,-0.002,0.014,-0.014,0.000,0.000
44.488,2,0,11.566,-7.155,2478.974,-1.995,-0.455,522.573,-6.670,2.579,-42.301,0.000,0.000,0.0109284,0.000,9144.000,1.637,7.668,2528.951,534.435,669.031,-6.881,3364.978,2481.448,-42.891,-0.064,0.957,0.023,-0.017,0.004,0.000,0.000,0.000,-0.011,0.658,0.031,0.753,0.0000000,0.0000000,2484.053,0.000,0.000,0.000,0,00:00:00,-825,0.000,2484.053,66904.727,-6.880,532.593,0.000,1.090,-42.859,0.021,0.010,0.001,-0.010,0.000,0.000
44.589,2,0,10.242,-6.496,2531.806,-3.220,0.166,518.562,-6.743,2.734,-41.669,0.000,0.000,0.0109529,0.000,9144.000,1.625,7.761,2581.978,530.269,664.580,-7.219,3416.958,2533.428,-42.284,0.113,1.137,0.001,0.003,0.020,0.000,0.000,0.000,-0.010,0.658,0.032,0.753,0.0000000,0.0000000,2536.317,0.000,0.000,0.000,0,00:00:00,-825,0.000,2536.317,66462.758,-7.216,528.372,0.000,0.981,-42.204,-0.020,-0.009,-0.003,-0.004,0.000,0.000
44.690,2,0,8.933,-5.845,2584.191,-4.371,0.736,514.572,-6.700,2.571,-41.134,0.000,0.000,0.0109788,0.000,9144.000,1.614,7.744,2634.594,526.155,660.140,-7.558,3469.076,2585.546,-41.743,0.091,1.024,0.023,-0.033,-0.014,0.000,0.000,0.000,-0.010,0.656,0.031,0.754,0.0000000,0.0000000,2588.169,0.000,0.000,0.000,0,00:00:00,-825,0.000,2588.169,66018.984,-7.555,524.219,0.000,0.986,-41.561,0.025,-0.015,-0.005,0.021,0.000,0.000
44.791,2,0,7.646,-5.206,2636.020,-5.435,1.249,510.553,-6.505,2.339,-40.259,0.000,0.000,0.0110083,0.000,9144.000,1.602,7.931,2686.807,522.129,655.831,-7.889,3519.935,2636.405,-40.835,-0.088,1.029,-0.002,0.021,-0.009,0.000,0.000,0.000,-0.010,0.657,0.030,0.753,0.0000000,0.0000000,2639.617,0.000,0.000,0.000,0,00:00:00,-825,0.000,2639.617,65581.086,-7.891,520.132,0.000,1.108,-40.820,0.108,-0.011,0.013,-0.001,0.000,0.000
44.892,2,0,6.385,-4.580,2687.406,-6.429,1.747,506.573,-6.490,2.520,-39.563,0.000,0.000,0.0110145,0.000,9144.000,1.591,7.809,2738.624,518.173,651.522,-8.222,3571.066,2687.536,-40.159,0.039,0.996,-0.023,-0.029,0.007,0.000,0.000,0.000,-0.011,0.656,0.031,0.754,0.0000000,0.0000000,2690.667,0.000,0.000,0.000,0,00:00:00,-825,0.000,2690.667,65154.547,-8.220,516.108,0.000,1.116,-40.169,0.021,-0.017,-0.009,0.002,0.000,0.000
44.993,2,0,5.156,-3.969,2738.367,-7.329,2.208,502.635,-6.192,2.477,-38.956,0.000,0.000,0.0110179,0.000,9144.000,1.580,7.980,2790.052,514.277,647.263,-8.552,3621.872,2738.342,-39.513,-0.006,0.851,-0.012,0.018,-0.003,0.000,0.000,0.000,-0.011,0.657,0.032,0.753,0.0000000,0.0000000,2741.325,0.000,0.000,0.000,0,00:00:00,-825,0.000,2741.325,64724.484,-8.553,512.147,0.000,0.974,-39.669,0.009,-0.006,0.000,0.012,0.000,0.000
45.094,2,0,3.963,-3.375,2788.887,-8.165,2.637,498.686,-6.200,2.473,-38.744,0.000,0.000,0.0110183,0.000,9144.000,1.569,7.881,2841.092,510.403,643.073,-8.879,3672.124,2788.594,-39.305,-0.057,0.910,-0.016,0.007,-0.005,0.000,0.000,0.000,-0.012,0.657,0.032,0.753,0.0000000,0.0000000,2791.597,0.000,0.000,0.000,0,00:00:00,-825,0.000,2791.597,64305.547,-8.880,508.246,0.000,1.002,-39.050,-0.018,-0.002,-0.002,0.003,0.000,0.000
45.195,2,0,2.809,-2.799,2838.947,-8.932,3.026,494.776,-6.110,2.380,-37.860,0.000,0.000,0.0110497,0.000,9144.000,1.559,7.845,2891.754,506.617,638.955,-9.202,3721.771,2838.241,-38.411,0.032,0.979,0.035,0.009,0.007,0.000,0.000,0.000,-0.011,0.657,0.031,0.753,0.0000000,0.0000000,2841.488,0.000,0.000,0.000,0,00:00:00,-825,0.000,2841.488,63899.500,-9.198,504.404,0.000,1.102,-38.476,0.019,0.006,0.004,0.009,0.000,0.000
45.296,2,0,1.695,-2.243,2888.563,-9.651,3.379,490.886,-6.227,2.314,-37.288,0.000,0.000,0.0110536,0.000,9144.000,1.548,7.790,2942.042,502.888,634.886,-9.522,3771.075,2887.545,-37.859,-0.078,1.113,-0.024,-0.013,-0.024,0.000,0.000,0.000,-0.012,0.657,0.031,0.753,0.0000000,0.0000000,2891.004,0.000,0.000,0.000,0,00:00:00,-825,0.000,2891.004,63490.594,-9.521,500.620,0.000,0.991,-37.839,-0.051,0.012,-0.006,-0.003,0.000,0.000
45.397,2,0,0.624,-1.708,2937.802,-10.288,3.720,487.048,-5.982,2.482,-36.874,0.000,0.000,0.0110612,0.000,9144.000,1.538,7.869,2991.963,499.201,630.837,-9.843,3820.397,2936.867,-37.422,0.063,1.096,-0.010,0.043,0.028,0.000,0.000,0.000,-0.012,0.658,0.032,0.752,0.0000000,0.0000000,2940.151,0.000,0.000,0.000,0,00:00:00,-825,0.000,2940.151,63091.977,-9.836,496.891,0.000,0.989,-37.326,-0.020,-0.011,0.008,-0.014,0.000,0.000
45.498,2,0,-0.402,-1.192,2979.807,-10.854,4.040,478.093,-5.818,2.536,-36.896,0.000,0.000,0.0110782,0.000,9144.000,1.526,7.626,3041.514,495.511,630.837,-9.843,3820.397,2936.867,-37.422,0.063,1.096,-0.010,0.043,0.028,0.000,0.000,0.000,-0.011,0.660,0.034,0.750,0.0000000,0.0000000,2940.151,0.000,0.000,0.000,0,00:00:00,-825,0.000,2940.151,63091.977,-9.836,496.891,0.000,0.989,-37.326,-0.020,-0.011,0.008,-0.014,0.000,0.000
45.599,2,0,-1.381,-0.699,3028.735,-11.353,4.291,475.101,-5.661,2.120,-35.707,0.000,0.000,0.0111853,0.000,9144.000,1.517,7.384,3090.708,491.940,622.941,-10.473,3917.316,3033.786,-36.201,-0.205,1.015,0.019,-0.019,0.001,0.000,0.000,0.000,-0.010,0.659,0.033,0.751,0.0000000,0.0000000,3037.359,0.000,0.000,0.000,0,00:00:00,-825,0.000,3037.359,62297.539,-10.470,489.595,0.000,1.052,-36.279,0.123,0.001,0.018,-0.009,0.000,0.000
45.700,2,0,-2.311,-0.231,3070.547,-11.809,4.511,467.019,-5.730,2.053,-35.701,0.000,0.000,0.0112078,0.000,9144.000,1.506,7.490,3139.545,488.370,622.941,-10.473,3917.316,3033.786,-36.201,-0.205,1.015,0.019,-0.019,0.001,0.000,0.000,0.000,-0.010,0.659,0.032,0.752,0.0000000,0.0000000,3037.359,0.000,0.000,0.000,0,00:00:00,-825,0.000,3037.359,62297.539,-10.470,489.595,0.000,1.052,-36.279,0.123,0.001,0.018,-0.009,0.000,0.000
45.801,2,0,-3.194,0.213,3119.185,-12.222,4.727,464.746,-5.773,2.251,-34.678,0.000,0.000,0.0113148,0.000,9144.000,1.498,7.597,3188.035,484.902,615.239,-11.094,4012.816,3129.286,-35.210,0.189,1.102,0.040,-0.029,0.002,0.000,0.000,0.000,-0.008,0.658,0.031,0.753,0.0000000,0.0000000,3133.151,0.000,0.000,0.000,0,00:00:00,-825,0.000,3133.151,61527.059,-11.092,482.504,0.000,1.031,-35.279,-0.051,0.004,0.001,-0.013,0.000,0.000
45.902,2,0,-4.029,0.634,3167.499,-12.590,4.913,462.439,-5.767,2.175,-34.307,0.000,0.000,0.0113485,0.000,9144.000,1.488,7.758,3236.182,481.472,611.420,-11.404,4060.534,3177.004,-34.837,0.064,1.151,-0.019,0.002,0.009,0.000,0.000,0.000,-0.008,0.658,0.032,0.753,0.0000000,0.0000000,3180.528,0.000,0.000,0.000,0,00:00:00,-825,0.000,3180.528,61139.551,-11.406,479.033,0.000,1.139,-34.728,0.104,-0.004,-0.007,0.003,0.000,0.000
46.003,2,0,-4.818,1.032,3215.379,-12.901,5.072,460.042,-5.607,2.118,-33.686,0.000,0.000,0.0113765,0.000,9144.000,1.478,7.749,3283.992,478.103,607.706,-11.708,4107.167,3223.637,-34.199,0.092,1.040,0.018,-0.012,0.030,0.000,0.000,0.000,-0.007,0.657,0.033,0.753,0.0000000,0.0000000,3227.566,0.000,0.000,0.000,0,00:00:00,-825,0.000,3227.566,60770.312,-11.708,475.610,0.000,1.001,-34.329,-0.067,0.012,0.002,-0.009,0.000,0.000
46.104,2,0,-5.559,1.405,3262.854,-13.171,5.201,457.549,-5.596,2.023,-33.424,0.000,0.000,0.0113747,0.000,9144.000,1.469,7.817,3331.468,474.761,604.024,-12.010,4153.630,3270.100,-33.935,-0.045,0.991,-0.016,-0.021,0.009,0.000,0.000,0.000,-0.007,0.656,0.034,0.754,0.0000000,0.0000000,3274.270,0.000,0.000,0.000,0,00:00:00,-825,0.000,3274.270,60410.465,-12.003,472.233,0.000,1.059,-33.849,0.040,-0.004,-0.010,0.003,0.000,0.000
46.205,2,0,-6.251,1.755,3309.942,-13.372,5.335,455.011,-5.277,2.241,-32.847,0.000,0.000,0.0113846,0.000,9144.000,1.460,7.938,3378.616,471.476,600.377,-12.311,4199.873,3316.343,-33.332,0.161,0.875,-0.019,0.036,-0.021,0.000,0.000,0.000,-0.009,0.658,0.033,0.752,0.0000000,0.0000000,3320.642,0.000,0.000,0.000,0,00:00:00,-825,0.000,3320.642,60035.430,-12.312,468.901,0.000,1.052,-33.375,-0.038,-0.015,0.014,0.000,0.000,0.000
46.306,2,0,-6.896,2.083,3356.691,-13.540,5.432,452.453,-5.294,2.062,-32.411,0.000,0.000,0.0113709,0.000,9144.000,1.450,7.735,3425.440,468.235,596.750,-12.611,4246.102,3362.572,-32.890,-0.083,0.983,-0.026,0.012,0.009,0.000,0.000,0.000,-0.009,0.658,0.035,0.752,0.0000000,0.0000000,3366.689,0.000,0.000,0.000,0,00:00:00,-825,0.000,3366.689,59675.027,-12.611,465.613,0.000,1.007,-32.851,0.014,-0.004,0.008,-0.014,0.000,0.000
46.407,2,0,-7.495,2.389,3403.080,-13.690,5.519,449.881,-5.428,2.115,-31.781,0.000,0.000,0.0113544,0.000,9144.000,1.441,7.670,3471.945,465.057,593.177,-12.909,4291.844,3408.314,-32.292,-0.002,1.090,-0.003,-0.034,-0.005,0.000,0.000,0.000,-0.010,0.657,0.035,0.753,0.0000000,0.0000000,3412.414,0.000,0.000,0.000,0,00:00:00,-825,0.000,3412.414,59321.086,-12.906,462.369,0.000,0.956,-32.459,-0.013,0.012,-0.008,0.004,0.000,0.000
46.508,2,0,-8.049,2.673,3449.097,-13.790,5.598,447.252,-5.218,2.191,-31.492,0.000,0.000,0.0113214,0.000,9144.000,1.432,7.867,3518.136,461.908,589.656,-13.203,4337.164,3453.634,-31.981,0.026,0.987,-0.018,0.019,0.025,0.000,0.000,0.000,-0.009,0.658,0.036,0.752,0.0000000,0.0000000,3457.821,0.000,0.000,0.000,0,00:00:00,-825,0.000,3457.821,58967.605,-13.202,459.166,0.000,0.989,-32.114,-0.014,-0.007,-0.007,-0.007,0.000,0.000
46.609,2,0,-8.559,2.937,3494.743,-13.864,5.656,444.597,-5.234,2.115,-30.965,0.000,0.000,0.0113001,0.000,9144.000,1.424,7.762,3564.017,458.811,586.176,-13.496,4382.148,3498.618,-31.457,-0.036,1.064,-0.006,-0.002,-0.002,0.000,0.000,0.000,-0.010,0.657,0.036,0.753,0.0000000,0.0000000,3502.915,0.000,0.000,0.000,0,00:00:00,-825,0.000,3502.915,58625.953,-13.489,456.005,0.000,1.032,-31.678,-0.005,-0.001,-0.002,0.021,0.000,0.000
46.710,2,0,-9.025,3.182,3539.997,-13.883,5.707,441.872,-4.940,2.176,-30.722,0.000,0.000,0.0112684,0.000,9144.000,1.415,7.775,3609.591,455.739,582.752,-13.785,4426.631,3543.101,-31.181,0.015,0.842,-0.007,0.010,0.030,0.000,0.000,0.000,-0.009,0.658,0.038,0.752,0.0000000,0.0000000,3547.699,0.000,0.000,0.000,0,00:00:00,-825,0.000,3547.699,58273.535,-13.787,452.883,0.000,1.038,-31.218,-0.067,0.009,0.025,0.009,0.000,0.000
46.811,2,0,-9.450,3.407,3584.898,-13.900,5.745,439.125,-5.135,2.171,-30.357,0.000,0.000,0.0112504,0.000,9144.000,1.406,7.722,3654.861,452.703,579.349,-14.074,4471.049,3587.519,-30.847,0.004,1.028,-0.005,-0.019,0.016,0.000,0.000,0.000,-0.009,0.657,0.038,0.753,0.0000000,0.0000000,3592.177,0.000,0.000,0.000,0,00:00:00,-825,0.000,3592.177,57933.113,-14.075,449.801,0.000,1.030,-30.811,-0.017,0.011,-0.005,-0.002,0.000,0.000
46.912,2,0,-9.834,3.615,3629.471,-13.889,5.778,436.375,-5.065,2.224,-30.005,0.000,0.000,0.0112423,0.000,9144.000,1.398,7.832,3699.832,449.703,575.975,-14.362,4515.300,3631.770,-30.497,0.068,0.922,-0.008,-0.028,-0.009,0.000,0.000,0.000,-0.009,0.656,0.038,0.754,0.0000000,0.0000000,3636.352,0.000,0.000,0.000,0,00:00:00,-825,0.000,3636.352,57600.797,-14.359,446.757,0.000,1.101,-30.443,0.057,0.009,-0.005,0.021,0.000,0.000
47.013,2,0,-10.180,3.805,3673.679,-13.842,5.805,433.593,-4.884,2.271,-29.648,0.000,0.000,0.0112371,0.000,9144.000,1.389,7.992,3744.505,446.738,572.662,-14.646,4558.956,3675.426,-30.122,0.080,0.835,-0.021,0.014,0.003,0.000,0.000,0.000,-0.010,0.657,0.039,0.753,0.0000000,0.0000000,3680.229,0.000,0.000,0.000,0,00:00:00,-825,0.000,3680.229,57263.539,-14.648,443.750,0.000,1.006,-30.118,0.014,0.001,0.012,0.001,0.000,0.000
47.114,2,0,-10.489,3.980,3717.599,-13.789,5.814,430.834,-4.997,2.180,-29.365,0.000,0.000,0.0112306,0.000,9144.000,1.381,7.915,3788.885,443.801,569.348,-14.931,4602.832,3719.302,-29.850,0.013,0.995,0.006,0.003,0.018,0.000,0.000,0.000,-0.009,0.657,0.039,0.753,0.0000000,0.0000000,3723.811,0.000,0.000,0.000,0,00:00:00,-825,0.000,3723.811,56935.355,-14.930,440.779,0.000,1.029,-29.682,0.050,-0.012,-0.004,-0.012,0.000,0.000
47.215,2,0,-10.764,4.139,3761.139,-13.722,5.819,428.044,-4.990,2.233,-28.906,0.000,0.000,0.0112363,0.000,9144.000,1.373,7.897,3832.977,440.911,566.123,-15.210,4645.733,3762.203,-29.401,0.088,0.992,-0.008,-0.019,-0.026,0.000,0.000,0.000,-0.010,0.656,0.039,0.754,0.0000000,0.0000000,3767.102,0.000,0.000,0.000,0,00:00:00,-825,0.000,3767.102,56616.078,-15.207,437.844,0.000,1.025,-29.383,-0.053,-0.024,-0.004,-0.008,0.000,0.000
47.316,2,0,-11.005,4.283,3804.400,-13.640,5.817,425.303,-4.980,2.226,-28.420,0.000,0.000,0.0112312,0.000,9144.000,1.365,8.005,3876.783,438.069,562.885,-15.491,4688.991,3805.461,-28.920,0.178,1.029,0.020,-0.007,-0.010,0.000,0.000,0.000,-0.010,0.656,0.038,0.754,0.0000000,0.0000000,3810.104,0.000,0.000,0.000,0,00:00:00,-825,0.000,3810.104,56296.871,-15.484,434.944,0.000,1.035,-29.033,0.010,-0.003,0.002,-0.006,0.000,0.000
47.417,2,0,-11.216,4.411,3847.239,-13.548,5.783,422.491,-4.984,1.990,-28.035,0.000,0.000,0.0112126,0.000,9144.000,1.357,8.043,3920.310,435.265,559.761,-15.764,4730.932,3847.402,-28.525,-0.009,1.047,0.005,-0.011,-0.016,0.000,0.000,0.000,-0.010,0.655,0.037,0.754,0.0000000,0.0000000,3852.822,0.000,0.000,0.000,0,00:00:00,-825,0.000,3852.822,55974.750,-15.765,432.077,0.000,0.972,-28.681,0.013,-0.007,-0.005,0.014,0.000,0.000
47.518,2,0,-11.399,4.526,3889.826,-13.454,5.766,419.735,-5.069,2.204,-27.709,0.000,0.000,0.0111916,0.000,9144.000,1.349,8.103,3963.559,432.494,556.589,-16.042,4773.706,3890.176,-28.231,0.135,1.136,-0.029,-0.017,0.014,0.000,0.000,0.000,-0.011,0.655,0.038,0.755,0.0000000,0.0000000,3895.259,0.000,0.000,0.000,0,00:00:00,-825,0.000,3895.259,55662.344,-16.039,429.244,0.000,1.015,-28.386,0.058,0.010,0.006,-0.015,0.000,0.000
47.619,2,0,-11.556,4.626,3932.072,-13.346,5.710,416.961,-5.001,1.888,-27.415,0.000,0.000,0.0111824,0.000,9144.000,1.341,8.205,4006.535,429.753,553.499,-16.314,4815.557,3932.027,-27.910,-0.154,1.076,0.002,-0.009,0.007,0.000,0.000,0.000,-0.010,0.654,0.039,0.755,0.0000000,0.0000000,3937.417,0.000,0.000,0.000,0,00:00:00,-825,0.000,3937.417,55353.859,-16.311,426.443,0.000,1.056,-28.055,0.042,0.008,-0.009,-0.001,0.000,0.000
47.720,2,0,-11.687,4.713,3974.036,-13.231,5.685,414.187,-5.012,2.225,-27.396,0.000,0.000,0.0111743,0.000,9144.000,1.333,8.255,4049.236,427.013,550.416,-16.587,4857.510,3973.980,-27.919,0.107,1.079,-0.023,-0.009,0.027,0.000,0.000,0.000,-0.010,0.654,0.040,0.755,0.0000000,0.0000000,3979.299,0.000,0.000,0.000,0,00:00:00,-825,0.000,3979.299,55042.137,-16.587,423.674,0.000,1.010,-27.752,0.080,-0.017,0.003,-0.017,0.000,0.000
47.821,2,0,-11.796,4.790,4009.879,-13.113,5.663,407.049,-5.030,2.302,-27.387,0.000,0.000,0.0112107,0.000,9144.000,1.324,8.310,4091.663,424.275,550.416,-16.587,4857.510,3973.980,-27.919,0.107,1.079,-0.023,-0.009,0.027,0.000,0.000,0.000,-0.010,0.654,0.042,0.756,0.0000000,0.0000000,3979.299,0.000,0.000,0.000,0,00:00:00,-825,0.000,3979.299,55042.137,-16.587,423.674,0.000,1.010,-27.752,0.080,-0.017,0.003,-0.017,0.000,0.000
47.922,2,0,-11.882,4.857,4051.693,-12.974,5.627,404.984,-4.876,2.199,-26.650,0.000,0.000,0.0113297,0.000,9144.000,1.318,8.365,4133.824,421.610,544.368,-17.126,4940.369,4056.839,-27.165,0.015,0.960,-0.022,-0.024,-0.016,0.000,0.000,0.000,-0.012,0.653,0.042,0.756,0.0000000,0.0000000,4062.251,0.000,0.000,0.000,0,00:00:00,-825,0.000,4062.251,54437.406,-17.125,418.229,0.000,1.012,-27.149,0.021,0.004,0.009,0.020,0.000,0.000
48.023,2,0,-11.948,4.913,4093.203,-12.831,5.562,402.878,-4.866,1.941,-26.336,0.000,0.000,0.0113611,0.000,9144.000,1.310,8.507,4175.722,418.976,541.401,-17.392,4981.278,4097.748,-26.832,-0.100,1.041,0.041,0.020,-0.025,0.000,0.000,0.000,-0.011,0.653,0.040,0.756,0.0000000,0.0000000,4103.327,0.000,0.000,0.000,0,00:00:00,-825,0.000,4103.327,54140.582,-17.391,415.551,0.000,1.060,-26.751,0.055,-0.012,-0.004,0.019,0.000,0.000
48.124,2,0,-11.994,4.958,4134.457,-12.684,5.494,400.783,-4.851,1.936,-25.884,0.000,0.000,0.0113767,0.000,9144.000,1.303,8.384,4217.361,416.387,538.443,-17.658,5022.252,4138.722,-26.385,-0.002,1.051,0.031,-0.018,0.020,0.000,0.000,0.000,-0.009,0.653,0.040,0.756,0.0000000,0.0000000,4144.139,0.000,0.000,0.000,0,00:00:00,-825,0.000,4144.139,53844.117,-17.658,412.901,0.000,1.013,-26.518,-0.038,-0.001,0.005,-0.005,0.000,0.000
48.225,2,0,-12.021,4.992,4175.378,-12.508,5.420,398.600,-4.583,1.887,-25.861,0.000,0.000,0.0113651,0.000,9144.000,1.295,8.482,4258.741,413.801,535.556,-17.920,5062.428,4178.898,-26.316,-0.013,0.911,0.009,0.048,-0.012,0.000,0.000,0.000,-0.009,0.655,0.039,0.755,0.0000000,0.0000000,4184.689,0.000,0.000,0.000,0,00:00:00,-825,0.000,4184.689,53555.484,-17.920,410.281,0.000,1.049,-26.166,0.003,-0.005,-0.017,-0.003,0.000,0.000
48.326,2,0,-12.029,5.016,4210.374,-12.320,5.341,392.152,-4.462,1.860,-25.884,0.000,0.000,0.0113765,0.000,9144.000,1.287,8.208,4299.862,411.213,535.556,-17.920,5062.428,4178.898,-26.316,-0.013,0.911,0.009,0.048,-0.012,0.000,0.000,0.000,-0.009,0.656,0.038,0.753,0.0000000,0.0000000,4184.689,0.000,0.000,0.000,0,00:00:00,-825,0.000,4184.689,53555.484,-17.920,410.281,0.000,1.049,-26.166,0.003,-0.005,-0.017,-0.003,0.000,0.000
48.427,2,0,-12.020,5.030,4251.152,-12.158,5.256,390.583,-4.722,1.799,-25.144,0.000,0.000,0.0114683,0.000,9144.000,1.280,7.934,4340.732,408.699,529.828,-18.441,5142.653,4259.123,-25.618,0.007,1.205,0.016,-0.025,-0.008,0.000,0.000,0.000,-0.009,0.656,0.038,0.754,0.0000000,0.0000000,4265.021,0.000,0.000,0.000,0,00:00:00,-825,0.000,4265.021,52985.879,-18.438,405.122,0.000,0.995,-25.740,0.020,0.010,0.005,0.008,0.000,0.000
48.528,2,0,-11.996,5.034,4291.638,-11.968,5.156,388.920,-4.429,1.659,-25.088,0.000,0.000,0.0114797,0.000,9144.000,1.273,8.073,4381.351,406.190,527.014,-18.699,5182.312,4298.782,-25.512,-0.094,0.927,0.009,0.003,0.001,0.000,0.000,0.000,-0.009,0.656,0.037,0.754,0.0000000,0.0000000,4304.807,0.000,0.000,0.000,0,00:00:00,-825,0.000,4304.807,52703.930,-18.697,402.583,0.000,1.046,-25.474,-0.035,0.002,-0.018,-0.001,0.000,0.000
48.629,2,0,-11.957,5.030,4331.832,-11.798,5.065,387.201,-4.599,1.746,-24.707,0.000,0.000,0.0114968,0.000,9144.000,1.266,8.053,4421.723,403.719,524.229,-18.955,5221.739,4338.209,-25.165,0.088,1.165,0.030,0.005,-0.011,0.000,0.000,0.000,-0.008,0.656,0.036,0.754,0.0000000,0.0000000,4344.342,0.000,0.000,0.000,0,00:00:00,-825,0.000,4344.342,52421.719,-18.957,400.070,0.000,1.010,-25.180,-0.023,-0.024,0.003,0.003,0.000,0.000
48.730,2,0,-11.907,5.017,4366.244,-11.629,4.967,381.291,-4.590,1.667,-24.715,0.000,0.000,0.0114964,0.000,9144.000,1.258,8.021,4461.848,401.248,524.229,-18.955,5221.739,4338.209,-25.165,0.088,1.165,0.030,0.005,-0.011,0.000,0.000,0.000,-0.007,0.656,0.034,0.754,0.0000000,0.0000000,4344.342,0.000,0.000,0.000,0,00:00:00,-825,0.000,4344.342,52421.719,-18.957,400.070,0.000,1.010,-25.180,-0.023,-0.024,0.003,0.003,0.000,0.000
48.831,2,0,-11.845,4.996,4406.326,-11.439,4.868,380.107,-4.352,1.644,-24.260,0.000,0.000,0.0115760,0.000,9144.000,1.252,7.988,4501.730,398.822,518.718,-19.466,5300.261,4416.731,-24.679,0.074,1.057,-0.012,0.027,-0.007,0.000,0.000,0.000,-0.008,0.657,0.035,0.753,0.0000000,0.0000000,4422.672,0.000,0.000,0.000,0,00:00:00,-825,0.000,4422.672,51870.129,-19.468,395.120,0.000,1.014,-24.640,-0.028,0.004,-0.015,0.012,0.000,0.000
48.932,2,0,-11.771,4.967,4446.110,-11.247,4.757,378.821,-4.292,1.521,-23.941,0.000,0.000,0.0115875,0.000,9144.000,1.245,7.836,4541.373,396.428,516.021,-19.718,5338.936,4455.406,-24.351,-0.033,0.963,-0.007,-0.029,-0.026,0.000,0.000,0.000,-0.009,0.656,0.034,0.754,0.0000000,0.0000000,4461.472,0.000,0.000,0.000,0,00:00:00,-825,0.000,4461.472,51604.531,-19.715,392.682,0.000,1.046,-24.490,0.011,0.008,-0.013,0.007,0.000,0.000
49.033,2,0,-11.687,4.931,4485.612,-11.052,4.631,377.440,-4.210,1.345,-23.752,0.000,0.000,0.0115708,0.000,9144.000,1.238,8.002,4580.778,394.052,513.343,-19.968,5377.499,4493.968,-24.141,-0.194,0.918,-0.002,0.007,-0.012,0.000,0.000,0.000,-0.009,0.656,0.033,0.754,0.0000000,0.0000000,4500.032,0.000,0.000,0.000,0,00:00:00,-825,0.000,4500.032,51336.008,-19.967,390.268,0.000,1.056,-24.154,0.016,0.002,-0.004,-0.007,0.000,0.000
49.134,2,0,-11.593,4.887,4524.754,-10.861,4.532,375.906,-4.202,1.592,-23.631,0.000,0.000,0.0115496,0.000,9144.000,1.231,7.960,4619.947,391.689,510.730,-20.214,5415.287,4531.757,-24.035,0.044,0.958,-0.005,0.010,0.006,0.000,0.000,0.000,-0.009,0.657,0.034,0.753,0.0000000,0.0000000,4538.354,0.000,0.000,0.000,0,00:00:00,-825,0.000,4538.354,51072.262,-20.215,387.877,0.000,0.887,-23.960,0.009,0.013,-0.014,-0.014,0.000,0.000
49.235,2,0,-11.491,4.840,4563.647,-10.697,4.457,374.347,-4.425,1.800,-23.165,0.000,0.000,0.0115465,0.000,9144.000,1.225,7.906,4658.884,389.373,508.092,-20.463,5453.584,4570.054,-23.619,0.229,1.244,-0.011,-0.004,0.034,0.000,0.000,0.000,-0.009,0.656,0.035,0.753,0.0000000,0.0000000,4576.439,0.000,0.000,0.000,0,00:00:00,-825,0.000,4576.439,50813.188,-20.459,385.510,0.000,0.983,-23.640,0.098,0.002,0.008,-0.011,0.000,0.000
49.336,2,0,-11.383,4.789,4602.217,-10.520,4.359,372.679,-4.229,1.548,-23.008,0.000,0.000,0.0115169,0.000,9144.000,1.218,7.932,4697.591,387.072,505.517,-20.707,5491.136,4607.606,-23.417,0.118,1.121,0.055,0.022,0.007,0.000,0.000,0.000,-0.006,0.657,0.034,0.753,0.0000000,0.0000000,4614.292,0.000,0.000,0.000,0,00:00:00,-825,0.000,4614.292,50548.969,-20.710,383.165,0.000,1.022,-23.419,-0.060,0.006,0.005,0.006,0.000,0.000
49.437,2,0,-11.270,4.733,4640.509,-10.360,4.245,370.942,-4.343,1.360,-22.880,0.000,0.000,0.0114843,0.000,9144.000,1.211,7.796,4736.070,384.784,502.948,-20.952,5528.749,4645.219,-23.293,-0.025,1.272,0.014,0.013,-0.028,0.000,0.000,0.000,-0.007,0.658,0.032,0.752,0.0000000,0.0000000,4651.913,0.000,0.000,0.000,0,00:00:00,-825,0.000,4651.913,50297.301,-20.950,380.842,0.000,0.952,-23.371,-0.040,-0.009,0.011,0.011,0.000,0.000
49.538,2,0,-11.153,4.672,4678.512,-10.181,4.124,369.129,-4.101,1.262,-22.798,0.000,0.000,0.0114716,0.000,9144.000,1.205,7.722,4774.320,382.504,500.410,-21.195,5566.060,4682.530,-23.177,-0.075,0.979,0.012,-0.026,-0.011,0.000,0.000,0.000,-0.007,0.657,0.032,0.753,0.0000000,0.0000000,4689.304,0.000,0.000,0.000,0,00:00:00,-825,0.000,4689.304,50038.195,-21.197,378.540,0.000,1.085,-23.063,0.007,-0.006,0.013,0.021,0.000,0.000
49.639,2,0,-11.030,4.606,4716.241,-10.014,4.023,367.269,-4.140,1.421,-22.564,0.000,0.000,0.0114664,0.000,9144.000,1.198,7.868,4812.345,380.248,497.893,-21.436,5603.219,4719.689,-22.961,0.095,1.028,-0.002,-0.011,-0.009,0.000,0.000,0.000,-0.007,0.656,0.031,0.754,0.0000000,0.0000000,4726.468,0.000,0.000,0.000,0,00:00:00,-825,0.000,4726.468,49795.625,-21.430,376.260,0.000,1.021,-22.900,0.101,-0.023,0.006,-0.017,0.000,0.000
49.740,2,0,-10.903,4.537,4753.653,-9.844,3.915,365.329,-4.050,1.318,-22.410,0.000,0.000,0.0114620,0.000,9144.000,1.192,7.933,4850.146,378.007,495.423,-21.674,5639.832,4756.302,-22.793,0.066,0.917,0.029,-0.019,0.010,0.000,0.000,0.000,-0.005,0.656,0.031,0.754,0.0000000,0.0000000,4763.407,0.000,0.000,0.000,0,00:00:00,-825,0.000,4763.407,49544.672,-21.672,374.001,0.000,1.065,-22.662,-0.020,-0.004,-0.010,-0.009,0.000,0.000
49.841,2,0,-10.773,4.464,4790.770,-9.677,3.798,363.352,-4.013,1.185,-22.020,0.000,0.000,0.0114605,0.000,9144.000,1.185,8.038,4887.726,375.805,492.970,-21.912,5676.334,4792.804,-22.393,-0.037,0.960,0.010,0.011,0.030,0.000,0.000,0.000,-0.004,0.656,0.032,0.754,0.0000000,0.0000000,4800.123,0.000,0.000,0.000,0,00:00:00,-825,0.000,4800.123,49291.422,-21.917,371.762,0.000,1.048,-22.459,-0.056,-0.008,-0.005,0.002,0.000,0.000
49.942,2,0,-10.641,4.388,4827.651,-9.528,3.701,361.368,-4.122,1.346,-21.815,0.000,0.000,0.0114249,0.000,9144.000,1.179,7.971,4925.088,373.623,490.517,-22.150,5712.983,4829.453,-22.212,0.176,1.124,0.028,0.007,0.032,0.000,0.000,0.000,-0.002,0.657,0.032,0.754,0.0000000,0.0000000,4836.618,0.000,0.000,0.000,0,00:00:00,-825,0.000,4836.618,49046.207,-22.155,369.543,0.000,1.028,-22.163,0.023,0.001,-0.012,-0.008,0.000,0.000
50.043,2,0,-10.507,4.311,4864.290,-9.374,3.603,359.372,-4.004,1.299,-21.620,0.000,0.000,0.0114049,0.000,9144.000,1.173,7.925,4962.235,371.461,488.092,-22.386,5749.358,4865.828,-22.003,0.050,0.996,-0.041,-0.015,0.012,0.000,0.000,0.000,-0.003,0.656,0.034,0.754,0.0000000,0.0000000,4872.894,0.000,0.000,0.000,0,00:00:00,-825,0.000,4872.894,48806.180,-22.389,367.344,0.000,1.019,-22.043,-0.014,0.004,0.008,-0.004,0.000,0.000
50.144,2,0,-10.372,4.232,4900.652,-9.233,3.510,357.353,-4.061,1.306,-21.278,0.000,0.000,0.0113826,0.000,9144.000,1.167,8.021,4999.168,369.334,485.709,-22.620,5785.249,4901.719,-21.675,0.046,1.079,-0.004,-0.012,0.045,0.000,0.000,0.000,-0.002,0.655,0.036,0.754,0.0000000,0.0000000,4908.952,0.000,0.000,0.000,0,00:00:00,-825,0.000,4908.952,48561.125,-22.629,365.164,0.000,1.037,-21.843,0.005,0.015,0.005,0.008,0.000,0.000
50.245,2,0,-10.238,4.151,4936.794,-9.099,3.416,355.329,-4.057,1.247,-21.207,0.000,0.000,0.0113441,0.000,9144.000,1.160,8.092,5035.889,367.213,483.326,-22.854,5821.293,4937.763,-21.598,0.015,1.148,0.012,0.030,-0.004,0.000,0.000,0.000,-0.002,0.657,0.035,0.753,0.0000000,0.0000000,4944.794,0.000,0.000,0.000,0,00:00:00,-825,0.000,4944.794,48333.750,-22.853,363.002,0.000,1.044,-21.648,0.011,-0.003,-0.015,-0.010,0.000,0.000
50.346,2,0,-10.102,4.070,4972.621,-8.938,3.321,353.239,-3.717,1.205,-21.035,0.000,0.000,0.0113340,0.000,9144.000,1.154,7.916,5072.400,365.109,481.011,-23.083,5856.433,4972.903,-21.377,0.051,0.884,0.023,0.023,-0.014,0.000,0.000,0.000,-0.001,0.658,0.034,0.753,0.0000000,0.0000000,4980.423,0.000,0.000,0.000,0,00:00:00,-825,0.000,4980.423,48098.047,-23.086,360.860,0.000,1.091,-21.501,0.004,-0.002,-0.005,0.013,0.000,0.000
50.447,2,0,-9.965,3.988,5008.214,-8.779,3.234,351.154,-3.659,1.236,-20.803,0.000,0.000,0.0113096,0.000,9144.000,1.148,7.779,5108.703,363.029,478.686,-23.313,5891.877,5008.347,-21.140,0.094,0.862,-0.002,0.002,-0.010,0.000,0.000,0.000,-0.002,0.658,0.033,0.753,0.0000000,0.0000000,5015.840,0.000,0.000,0.000,0,00:00:00,-825,0.000,5015.840,47863.969,-23.318,358.735,0.000,1.021,-21.305,0.043,-0.016,0.012,0.007,0.000,0.000
50.548,2,0,-9.826,3.906,5038.637,-8.626,3.151,345.364,-3.656,1.236,-20.803,0.000,0.000,0.0112806,0.000,9144.000,1.142,7.767,5144.798,360.949,478.686,-23.313,5891.877,5008.347,-21.140,0.094,0.862,-0.002,0.002,-0.010,0.000,0.000,0.000,-0.002,0.658,0.033,0.753,0.0000000,0.0000000,5015.840,0.000,0.000,0.000,0,00:00:00,-825,0.000,5015.840,47863.969,-23.318,358.735,0.000,1.021,-21.305,0.043,-0.016,0.012,0.007,0.000,0.000
50.649,2,0,-9.687,3.822,5074.091,-8.493,3.031,343.804,-3.781,0.821,-20.452,0.000,0.000,0.0113405,0.000,9144.000,1.136,7.755,5180.688,358.904,474.126,-23.768,5961.772,5078.242,-20.788,-0.258,1.020,0.023,0.001,-0.016,0.000,0.000,0.000,-0.002,0.658,0.032,0.753,0.0000000,0.0000000,5086.044,0.000,0.000,0.000,0,00:00:00,-825,0.000,5086.044,47410.465,-23.770,354.539,0.000,1.001,-20.949,0.005,0.008,-0.000,0.005,0.000,0.000
50.750,2,0,-9.549,3.737,5109.296,-8.357,2.948,342.181,-3.677,1.135,-20.390,0.000,0.000,0.0113524,0.000,9144.000,1.130,7.743,5216.375,356.865,471.880,-23.993,5996.411,5112.881,-20.726,0.075,0.998,0.006,0.029,-0.005,0.000,0.000,0.000,-0.002,0.659,0.031,0.752,0.0000000,0.0000000,5120.836,0.000,0.000,0.000,0,00:00:00,-825,0.000,5120.836,47185.254,-23.996,352.467,0.000,1.006,-20.836,-0.013,-0.012,-0.001,-0.006,0.000,0.000
50.851,2,0,-9.412,3.652,5144.289,-8.234,2.857,340.531,-3.727,1.025,-20.309,0.000,0.000,0.0113793,0.000,9144.000,1.124,7.576,5251.858,354.834,469.638,-24.219,6031.110,5147.580,-20.649,-0.016,1.001,0.008,-0.026,0.001,0.000,0.000,0.000,-0.001,0.658,0.031,0.752,0.0000000,0.0000000,5155.422,0.000,0.000,0.000,0,00:00:00,-825,0.000,5155.422,46958.832,-24.224,350.411,0.000,1.047,-20.562,0.033,0.005,0.001,0.003,0.000,0.000
50.952,2,0,-9.276,3.567,5179.033,-8.100,2.786,338.846,-3.551,1.177,-20.031,0.000,0.000,0.0114173,0.000,9144.000,1.118,7.724,5287.141,352.831,467.435,-24.441,6065.343,5181.813,-20.358,0.141,0.872,-0.008,0.002,-0.003,0.000,0.000,0.000,-0.002,0.658,0.031,0.752,0.0000000,0.0000000,5189.805,0.000,0.000,0.000,0,00:00:00,-825,0.000,5189.805,46745.656,-24.439,348.372,0.000,1.007,-20.406,-0.031,-0.004,-0.013,0.012,0.000,0.000
51.053,2,0,-9.142,3.484,5213.555,-7.993,2.700,337.136,-3.752,0.974,-19.887,0.000,0.000,0.0114161,0.000,9144.000,1.113,7.715,5322.225,350.842,465.243,-24.664,6099.535,5216.005,-20.235,-0.051,1.049,0.001,-0.016,-0.025,0.000,0.000,0.000,-0.002,0.657,0.030,0.753,0.0000000,0.0000000,5223.985,0.000,0.000,0.000,0,00:00:00,-825,0.000,5223.985,46523.789,-24.664,346.350,0.000,1.083,-20.239,-0.031,-0.010,-0.015,0.015,0.000,0.000
51.154,2,0,-9.009,3.400,5247.818,-7.869,2.619,335.383,-3.510,0.990,-19.665,0.000,0.000,0.0114285,0.000,9144.000,1.107,7.806,5357.113,348.875,463.088,-24.883,6133.266,5249.736,-19.983,-0.036,0.839,-0.010,0.000,0.002,0.000,0.000,0.000,-0.003,0.657,0.031,0.753,0.0000000,0.0000000,5257.965,0.000,0.000,0.000,0,00:00:00,-825,0.000,5257.965,46306.891,-24.885,344.343,0.000,1.079,-20.068,-0.073,-0.006,0.004,-0.015,0.000,0.000
51.255,2,0,-8.879,3.319,5281.877,-7.767,2.573,333.621,-3.652,1.289,-19.560,0.000,0.000,0.0114088,0.000,9144.000,1.101,7.807,5391.805,346.919,460.932,-25.103,6167.160,5283.630,-19.916,0.206,0.966,-0.030,-0.018,-0.005,0.000,0.000,0.000,-0.004,0.657,0.031,0.754,0.0000000,0.0000000,5291.747,0.000,0.000,0.000,0,00:00:00,-825,0.000,5291.747,46089.254,-25.107,342.352,0.000,1.220,-19.923,0.017,0.015,-0.003,-0.013,0.000,0.000
51.356,2,0,-8.752,3.240,5315.688,-7.663,2.509,331.812,-3.579,1.072,-19.490,0.000,0.000,0.0114219,0.000,9144.000,1.095,7.917,5426.302,344.970,458.816,-25.320,6200.529,5316.999,-19.826,0.070,0.863,0.042,-0.020,0.022,0.000,0.000,0.000,-0.002,0.656,0.031,0.754,0.0000000,0.0000000,5325.331,0.000,0.000,0.000,0,00:00:00,-825,0.000,5325.331,45880.098,-25.322,340.376,0.000,1.080,-19.827,0.035,-0.006,0.010,-0.002,0.000,0.000
51.457,2,0,-8.629,3.162,5349.284,-7.594,2.436,330.020,-3.851,0.937,-19.085,0.000,0.000,0.0114405,0.000,9144.000,1.090,8.022,5460.608,343.062,456.707,-25.537,6233.920,5350.390,-19.459,-0.034,1.131,0.011,-0.027,-0.004,0.000,0.000,0.000,-0.001,0.655,0.030,0.755,0.0000000,0.0000000,5358.719,0.000,0.000,0.000,0,00:00:00,-825,0.000,5358.719,45671.895,-25.536,338.415,0.000,0.968,-19.602,-0.049,0.002,-0.000,-0.004,0.000,0.000
51.558,2,0,-8.510,3.084,5382.680,-7.521,2.344,328.208,-3.759,0.707,-19.137,0.000,0.000,0.0114237,0.000,9144.000,1.084,8.175,5494.723,341.148,454.613,-25.754,6267.204,5383.674,-19.486,-0.203,1.056,0.022,0.017,-0.047,0.000,0.000,0.000,-0.002,0.656,0.028,0.755,0.0000000,0.0000000,5391.913,0.000,0.000,0.000,0,00:00:00,-825,0.000,5391.913,45461.480,-25.754,336.469,0.000,1.054,-19.552,0.031,0.001,-0.007,0.007,0.000,0.000
51.659,2,0,-8.397,3.006,5415.889,-7.451,2.285,326.397,-3.715,1.001,-19.090,0.000,0.000,0.0114426,0.000,9144.000,1.079,8.074,5528.647,339.239,452.533,-25.970,6300.383,5416.853,-19.446,0.180,1.026,0.047,-0.003,0.008,0.000,0.000,0.000,-0.000,0.656,0.027,0.755,0.0000000,0.0000000,5424.913,0.000,0.000,0.000,0,00:00:00,-825,0.000,5424.913,45254.379,-25.969,334.537,0.000,1.042,-19.423,0.007,-0.003,-0.006,-0.030,0.000,0.000
51.760,2,0,-8.288,2.930,5448.845,-7.384,2.218,324.553,-3.700,0.877,-18.903,0.000,0.000,0.0114838,0.000,9144.000,1.073,8.084,5562.382,337.349,450.502,-26.181,6332.908,5449.378,-19.255,0.043,1.016,-0.015,-0.008,-0.021,0.000,0.000,0.000,-0.001,0.655,0.026,0.755,0.0000000,0.0000000,5457.722,0.000,0.000,0.000,0,00:00:00,-825,0.000,5457.722,45044.902,-26.187,332.620,0.000,1.122,-19.224,-0.051,0.007,-0.014,0.005,0.000,0.000
51.861,2,0,-8.183,2.855,5481.510,-7.320,2.154,322.651,-3.670,0.866,-18.684,0.000,0.000,0.0115071,0.000,9144.000,1.068,8.130,5595.930,335.481,448.510,-26.389,6364.915,5481.385,-19.034,0.076,1.012,0.016,-0.003,-0.011,0.000,0.000,0.000,-0.001,0.655,0.025,0.755,0.0000000,0.0000000,5490.341,0.000,0.000,0.000,0,00:00:00,-825,0.000,5490.341,44849.914,-26.390,330.717,0.000,1.064,-19.028,0.010,-0.001,-0.014,0.010,0.000,0.000
51.962,2,0,-8.082,2.781,5514.017,-7.265,2.076,320.784,-3.704,0.694,-18.587,0.000,0.000,0.0115105,0.000,9144.000,1.062,8.144,5629.292,333.622,446.481,-26.602,6397.633,5514.103,-18.937,0.013,1.031,0.055,-0.013,-0.009,0.000,0.000,0.000,0.001,0.655,0.023,0.756,0.0000000,0.0000000,5522.771,0.000,0.000,0.000,0,00:00:00,-825,0.000,5522.771,44654.078,-26.596,328.827,0.000,1.050,-18.939,0.023,0.007,-0.001,-0.004,0.000,0.000
52.063,2,0,-7.986,2.707,5546.301,-7.211,2.008,318.899,-3.665,0.748,-18.513,0.000,0.000,0.0115265,0.000,9144.000,1.057,8.211,5662.469,331.770,444.499,-26.811,6429.708,5546.178,-18.861,0.048,1.008,-0.011,0.002,0.006,0.000,0.000,0.000,0.000,0.655,0.024,0.755,0.0000000,0.0000000,5555.013,0.000,0.000,0.000,0,00:00:00,-825,0.000,5555.013,44447.266,-26.813,326.951,0.000,0.934,-18.837,-0.024,0.001,-0.019,0.000,0.000,0.000
52.164,2,0,-7.894,2.632,5578.355,-7.164,1.916,316.991,-3.681,0.470,-18.443,0.000,0.000,0.0115558,0.000,9144.000,1.051,8.202,5695.462,329.926,442.541,-27.017,6461.514,5577.984,-18.783,-0.226,1.038,0.003,0.007,0.012,0.000,0.000,0.000,0.001,0.655,0.024,0.755,0.0000000,0.0000000,5587.069,0.000,0.000,0.000,0,00:00:00,-825,0.000,5587.069,44245.867,-27.026,325.089,0.000,0.924,-18.736,-0.047,-0.001,-0.003,-0.013,0.000,0.000
52.265,2,0,-7.807,2.558,5610.228,-7.117,1.870,315.100,-3.642,0.892,-18.353,0.000,0.000,0.0115965,0.000,9144.000,1.046,8.164,5728.271,328.091,440.582,-27.225,6493.450,5609.920,-18.702,0.194,1.046,-0.005,0.011,-0.013,0.000,0.000,0.000,0.000,0.655,0.024,0.755,0.0000000,0.0000000,5618.939,0.000,0.000,0.000,0,00:00:00,-825,0.000,5618.939,44060.758,-27.222,323.239,0.000,0.993,-18.520,-0.003,-0.016,0.010,-0.005,0.000,0.000
52.366,2,0,-7.723,2.487,5641.927,-7.073,1.820,313.245,-3.629,0.809,-18.118,0.000,0.000,0.0116487,0.000,9144.000,1.040,8.100,5760.899,326.279,438.638,-27.432,6525.254,5641.724,-18.468,0.076,1.010,-0.018,-0.030,0.034,0.000,0.000,0.000,0.001,0.654,0.026,0.756,0.0000000,0.0000000,5650.626,0.000,0.000,0.000,0,00:00:00,-825,0.000,5650.626,43862.793,-27.433,321.402,0.000,0.992,-18.454,-0.038,0.007,-0.004,-0.010,0.000,0.000
52.467,2,0,-7.644,2.418,5669.023,-7.039,1.778,308.092,-3.682,0.854,-18.105,0.000,0.000,0.0116684,0.000,9144.000,1.035,8.277,5793.346,324.469,438.638,-27.432,6525.254,5641.724,-18.468,0.076,1.010,-0.018,-0.030,0.034,0.000,0.000,0.000,0.001,0.653,0.028,0.757,0.0000000,0.0000000,5650.626,0.000,0.000,0.000,0,00:00:00,-825,0.000,5650.626,43862.793,-27.433,321.402,0.000,0.992,-18.454,-0.038,0.007,-0.004,-0.010,0.000,0.000
52.568,2,0,-7.570,2.351,5700.601,-7.025,1.712,306.693,-3.839,0.585,-17.936,0.000,0.000,0.0117741,0.000,9144.000,1.030,8.454,5825.613,322.675,434.853,-27.837,6587.521,5703.991,-18.309,-0.186,1.236,0.009,0.030,0.015,0.000,0.000,0.000,0.002,0.654,0.028,0.756,0.0000000,0.0000000,5713.455,0.000,0.000,0.000,0,00:00:00,-825,0.000,5713.455,43480.035,-27.842,317.765,0.000,1.099,-18.242,0.030,0.007,0.004,-0.004,0.000,0.000
52.669,2,0,-7.501,2.285,5732.052,-7.001,1.673,305.332,-3.711,0.822,-17.652,0.000,0.000,0.0118599,0.000,9144.000,1.025,8.280,5857.704,320.910,432.946,-28.042,6619.046,5735.516,-18.018,0.114,1.174,0.026,0.007,-0.005,0.000,0.000,0.000,0.003,0.655,0.027,0.756,0.0000000,0.0000000,5744.598,0.000,0.000,0.000,0,00:00:00,-825,0.000,5744.598,43299.867,-28.036,315.966,0.000,1.082,-18.029,0.004,0.007,-0.015,0.003,0.000,0.000
52.770,2,0,-7.436,2.223,5763.301,-6.962,1.645,303.928,-3.525,0.887,-17.605,0.000,0.000,0.0118789,0.000,9144.000,1.019,8.234,5889.619,319.149,431.087,-28.242,6649.896,5766.366,-17.948,0.214,0.978,0.016,-0.013,0.009,0.000,0.000,0.000,0.004,0.654,0.027,0.756,0.0000000,0.0000000,5775.562,0.000,0.000,0.000,0,00:00:00,-825,0.000,5775.562,43108.398,-28.243,314.178,0.000,1.006,-17.988,0.028,0.018,-0.004,-0.002,0.000,0.000
52.871,2,0,-7.374,2.163,5790.048,-6.929,1.617,299.266,-3.548,0.863,-17.602,0.000,0.000,0.0118930,0.000,9144.000,1.014,8.306,5921.358,317.389,431.087,-28.242,6649.896,5766.366,-17.948,0.214,0.978,0.016,-0.013,0.009,0.000,0.000,0.000,0.005,0.654,0.027,0.756,0.0000000,0.0000000,5775.562,0.000,0.000,0.000,0,00:00:00,-825,0.000,5775.562,43108.398,-28.243,314.178,0.000,1.006,-17.988,0.028,0.018,-0.004,-0.002,0.000,0.000
52.972,2,0,-7.314,2.105,5821.197,-6.893,1.555,298.269,-3.498,0.495,-17.362,0.000,0.000,0.0119876,0.000,9144.000,1.009,8.377,5952.923,315.653,427.427,-28.639,6710.938,5827.408,-17.693,-0.108,0.936,0.024,-0.008,0.018,0.000,0.000,0.000,0.006,0.653,0.026,0.757,0.0000000,0.0000000,5836.958,0.000,0.000,0.000,0,00:00:00,-825,0.000,5836.958,42742.766,-28.639,310.641,0.000,1.065,-17.605,0.034,0.012,0.006,-0.003,0.000,0.000
53.073,2,0,-7.257,2.048,5852.202,-6.858,1.501,297.256,-3.471,0.539,-17.181,0.000,0.000,0.0120109,0.000,9144.000,1.004,8.419,5984.317,313.935,425.595,-28.839,6741.665,5858.134,-17.510,-0.077,0.969,-0.009,0.018,0.008,0.000,0.000,0.000,0.006,0.654,0.027,0.756,0.0000000,0.0000000,5867.394,0.000,0.000,0.000,0,00:00:00,-825,0.000,5867.394,42558.633,-28.840,308.896,0.000,0.976,-17.456,-0.029,-0.023,0.005,-0.012,0.000,0.000
53.174,2,0,-7.202,1.991,5882.943,-6.821,1.469,296.125,-3.416,0.729,-17.156,0.000,0.000,0.0120040,0.000,9144.000,0.999,8.319,6015.539,312.219,423.826,-29.033,6771.418,5887.888,-17.480,0.052,0.987,-0.035,0.035,0.002,0.000,0.000,0.000,0.005,0.655,0.028,0.755,0.0000000,0.0000000,5897.656,0.000,0.000,0.000,0,00:00:00,-825,0.000,5897.656,42382.445,-29.033,307.164,0.000,1.047,-17.426,0.044,-0.001,-0.004,0.011,0.000,0.000
53.275,2,0,-7.148,1.938,5909.278,-6.780,1.446,291.787,-3.356,0.790,-17.165,0.000,0.000,0.0120157,0.000,9144.000,0.993,8.125,6046.589,310.503,423.826,-29.033,6771.418,5887.888,-17.480,0.052,0.987,-0.035,0.035,0.002,0.000,0.000,0.000,0.004,0.657,0.029,0.754,0.0000000,0.0000000,5897.656,0.000,0.000,0.000,0,00:00:00,-825,0.000,5897.656,42382.445,-29.033,307.164,0.000,1.047,-17.426,0.044,-0.001,-0.004,0.011,0.000,0.000
53.376,2,0,-7.096,1.887,5939.946,-6.735,1.415,291.051,-3.288,0.684,-16.778,0.000,0.000,0.0121011,0.000,9144.000,0.989,7.931,6077.471,308.825,420.282,-29.422,6831.351,5947.821,-17.081,-0.045,0.999,-0.001,0.017,0.014,0.000,0.000,0.000,0.004,0.657,0.030,0.753,0.0000000,0.0000000,5957.667,0.000,0.000,0.000,0,00:00:00,-825,0.000,5957.667,42025.695,-29.425,303.743,0.000,1.072,-17.069,-0.065,0.009,-0.017,0.000,0.000,0.000
53.477,2,0,-7.045,1.839,5970.432,-6.698,1.404,290.226,-3.331,0.866,-16.860,0.000,0.000,0.0120706,0.000,9144.000,0.984,7.833,6108.185,307.139,418.527,-29.616,6861.171,5977.641,-17.179,0.125,0.999,-0.001,-0.024,0.021,0.000,0.000,0.000,0.005,0.656,0.031,0.754,0.0000000,0.0000000,5987.417,0.000,0.000,0.000,0,00:00:00,-825,0.000,5987.417,41852.363,-29.617,302.053,0.000,0.978,-16.974,0.002,-0.010,-0.018,0.003,0.000,0.000
53.578,2,0,-6.994,1.793,6000.696,-6.658,1.373,289.324,-3.289,0.631,-16.600,0.000,0.000,0.0121026,0.000,9144.000,0.979,7.968,6138.733,305.479,416.803,-29.808,6890.583,6007.053,-16.905,-0.051,0.997,0.023,0.008,-0.027,0.000,0.000,0.000,0.005,0.657,0.029,0.754,0.0000000,0.0000000,6017.000,0.000,0.000,0.000,0,00:00:00,-825,0.000,6017.000,41676.113,-29.812,300.375,0.000,0.981,-16.904,-0.020,0.002,0.007,-0.017,0.000,0.000
53.679,2,0,-6.945,1.749,6030.754,-6.615,1.340,288.367,-3.222,0.590,-16.273,0.000,0.000,0.0120652,0.000,9144.000,0.974,7.913,6169.118,303.852,415.088,-29.998,6919.924,6036.394,-16.571,-0.044,0.964,0.019,-0.007,-0.009,0.000,0.000,0.000,0.005,0.656,0.028,0.754,0.0000000,0.0000000,6046.415,0.000,0.000,0.000,0,00:00:00,-825,0.000,6046.415,41511.742,-29.995,298.710,0.000,1.048,-16.762,0.093,0.001,-0.006,0.015,0.000,0.000
53.780,2,0,-6.898,1.707,6060.617,-6.589,1.322,287.352,-3.371,0.726,-16.125,0.000,0.000,0.0119558,0.000,9144.000,0.969,7.950,6199.342,302.239,413.384,-30.189,6949.182,6065.652,-16.450,0.122,1.145,0.014,0.005,-0.030,0.000,0.000,0.000,0.005,0.657,0.026,0.754,0.0000000,0.0000000,6075.665,0.000,0.000,0.000,0,00:00:00,-825,0.000,6075.665,41340.602,-30.186,297.058,0.000,1.036,-16.575,0.065,0.001,0.004,0.006,0.000,0.000
53.881,2,0,-6.851,1.666,6090.163,-6.536,1.285,286.170,-3.073,0.508,-16.184,0.000,0.000,0.0118762,0.000,9144.000,0.964,7.918,6229.404,300.621,411.745,-30.372,6977.411,6093.881,-16.459,-0.146,0.837,-0.029,0.003,0.046,0.000,0.000,0.000,0.005,0.657,0.029,0.754,0.0000000,0.0000000,6104.751,0.000,0.000,0.000,0,00:00:00,-825,0.000,6104.751,41172.965,-30.374,295.417,0.000,1.071,-16.487,0.006,0.014,-0.017,0.001,0.000,0.000
53.982,2,0,-6.804,1.625,6119.592,-6.502,1.246,284.996,-3.241,0.472,-16.113,0.000,0.000,0.0118065,0.000,9144.000,0.960,7.909,6259.305,299.009,410.041,-30.564,7006.851,6123.321,-16.411,-0.160,1.016,0.018,0.002,0.002,0.000,0.000,0.000,0.006,0.657,0.029,0.754,0.0000000,0.0000000,6133.673,0.000,0.000,0.000,0,00:00:00,-825,0.000,6133.673,41000.992,-30.567,293.789,0.000,1.014,-16.372,0.022,0.003,0.002,0.004,0.000,0.000
54.083,2,0,-6.759,1.586,6148.832,-6.455,1.219,283.795,-3.097,0.566,-15.859,0.000,0.000,0.0117803,0.000,9144.000,0.955,7.894,6289.047,297.423,408.380,-30.751,7035.649,6152.119,-16.141,-0.080,0.935,-0.022,0.016,-0.022,0.000,0.000,0.000,0.004,0.657,0.029,0.753,0.0000000,0.0000000,6162.434,0.000,0.000,0.000,0,00:00:00,-825,0.000,6162.434,40839.691,-30.749,292.172,0.000,1.019,-16.229,-0.042,0.022,-0.001,-0.011,0.000,0.000
54.184,2,0,-6.713,1.547,6177.865,-6.413,1.198,282.537,-3.114,0.604,-15.789,0.000,0.000,0.0116921,0.000,9144.000,0.950,7.811,6318.632,295.844,406.741,-30.936,7064.161,6180.631,-16.077,-0.094,0.942,-0.040,-0.010,-0.028,0.000,0.000,0.000,0.002,0.657,0.029,0.753,0.0000000,0.0000000,6191.033,0.000,0.000,0.000,0,00:00:00,-825,0.000,6191.033,40679.824,-30.930,290.567,0.000,1.002,-16.116,0.006,-0.005,0.005,-0.013,0.000,0.000
54.285,2,0,-6.669,1.511,6206.684,-6.381,1.188,281.221,-3.193,0.692,-15.708,0.000,0.000,0.0116323,0.000,9144.000,0.946,7.877,6348.059,294.274,405.121,-31.120,7092.437,6208.907,-16.013,-0.019,0.987,-0.011,-0.030,-0.010,0.000,0.000,0.000,0.001,0.656,0.029,0.754,0.0000000,0.0000000,6219.473,0.000,0.000,0.000,0,00:00:00,-825,0.000,6219.473,40511.598,-31.121,288.973,0.000,0.989,-16.066,0.041,0.010,-0.010,0.003,0.000,0.000
54.386,2,0,-6.624,1.479,6235.325,-6.333,1.200,279.877,-3.002,0.894,-15.662,0.000,0.000,0.0116043,0.000,9144.000,0.941,8.048,6377.330,292.708,403.501,-31.305,7120.805,6237.275,-15.946,0.169,0.884,-0.009,0.044,0.020,0.000,0.000,0.000,0.001,0.657,0.030,0.753,0.0000000,0.0000000,6247.753,0.000,0.000,0.000,0,00:00:00,-825,0.000,6247.753,40350.922,-31.304,287.390,0.000,1.038,-15.930,-0.012,-0.004,0.005,0.008,0.000,0.000
54.487,2,0,-6.580,1.449,6263.753,-6.293,1.193,278.478,-3.062,0.701,-15.633,0.000,0.000,0.0115752,0.000,9144.000,0.936,7.796,6406.444,291.144,401.909,-31.486,7148.759,6265.229,-15.917,-0.025,0.953,0.001,0.009,0.002,0.000,0.000,0.000,0.001,0.658,0.030,0.753,0.0000000,0.0000000,6275.876,0.000,0.000,0.000,0,00:00:00,-825,0.000,6275.876,40193.633,-31.483,285.818,0.000,1.037,-15.796,0.040,-0.005,0.010,-0.021,0.000,0.000
54.588,2,0,-6.536,1.422,6291.985,-6.242,1.189,277.065,-2.942,0.706,-15.354,0.000,0.000,0.0115752,0.000,9144.000,0.932,7.747,6435.405,289.609,400.327,-31.668,7176.646,6293.115,-15.622,0.046,0.913,0.030,0.026,-0.020,0.000,0.000,0.000,0.002,0.659,0.028,0.752,0.0000000,0.0000000,6303.843,0.000,0.000,0.000,0,00:00:00,-825,0.000,6303.843,40038.645,-31.661,284.256,0.000,1.012,-15.677,-0.025,0.006,0.006,0.002,0.000,0.000
54.689,2,0,-6.492,1.397,6320.027,-6.205,1.174,275.624,-3.048,0.582,-15.266,0.000,0.000,0.0114994,0.000,9144.000,0.927,7.592,6464.214,288.082,398.757,-31.848,7204.390,6320.860,-15.542,-0.081,1.049,0.000,0.016,0.001,0.000,0.000,0.000,0.002,0.659,0.028,0.751,0.0000000,0.0000000,6331.653,0.000,0.000,0.000,0,00:00:00,-825,0.000,6331.653,39881.879,-31.841,282.705,0.000,1.101,-15.571,0.034,0.020,0.002,-0.003,0.000,0.000
54.790,2,0,-6.449,1.374,6347.906,-6.163,1.183,274.189,-2.972,0.815,-15.079,0.000,0.000,0.0114554,0.000,9144.000,0.923,7.502,6492.871,286.574,397.191,-32.029,7232.159,6348.629,-15.356,0.153,1.016,-0.006,0.006,-0.001,0.000,0.000,0.000,0.002,0.660,0.028,0.751,0.0000000,0.0000000,6359.309,0.000,0.000,0.000,0,00:00:00,-825,0.000,6359.309,39714.898,-32.034,281.163,0.000,1.074,-15.550,-0.041,-0.001,0.013,0.007,0.000,0.000
54.891,2,0,-6.406,1.354,6375.543,-6.119,1.196,272.693,-2.929,0.836,-14.969,0.000,0.000,0.0113880,0.000,9144.000,0.918,7.471,6521.379,285.078,395.671,-32.205,7259.198,6375.668,-15.241,0.196,1.009,0.009,0.013,-0.010,0.000,0.000,0.000,0.002,0.660,0.028,0.751,0.0000000,0.0000000,6386.811,0.000,0.000,0.000,0,00:00:00,-825,0.000,6386.811,39564.527,-32.208,279.632,0.000,1.005,-15.377,-0.060,0.000,0.000,-0.010,0.000,0.000
54.992,2,0,-6.364,1.335,6403.008,-6.099,1.181,271.174,-3.151,0.560,-15.032,0.000,0.000,0.0113239,0.000,9144.000,0.914,7.393,6549.736,283.574,394.139,-32.382,7286.533,6403.003,-15.324,-0.088,1.178,0.005,-0.021,0.016,0.000,0.000,0.000,0.002,0.659,0.028,0.751,0.0000000,0.0000000,6414.160,0.000,0.000,0.000,0,00:00:00,-825,0.000,6414.160,39413.055,-32.383,278.110,0.000,1.010,-15.330,-0.004,0.017,-0.003,-0.028,0.000,0.000
55.093,2,0,-6.323,1.318,6430.303,-6.075,1.171,269.650,-3.092,0.594,-14.962,0.000,0.000,0.0113545,0.000,9144.000,0.909,7.513,6577.944,282.078,392.620,-32.559,7313.732,6430.202,-15.250,-0.066,1.105,-0.010,-0.016,0.009,0.000,0.000,0.000,0.002,0.659,0.029,0.752,0.0000000,0.0000000,6441.357,0.000,0.000,0.000,0,00:00:00,-825,0.000,6441.357,39257.973,-32.564,276.598,0.000,1.013,-15.229,-0.051,-0.002,0.005,0.002,0.000,0.000
55.194,2,0,-6.285,1.301,6457.449,-6.060,1.175,268.145,-3.154,0.718,-14.810,0.000,0.000,0.0113792,0.000,9144.000,0.905,7.610,6606.004,280.597,391.107,-32.736,7340.897,6457.367,-15.112,0.043,1.192,-0.016,0.002,-0.022,0.000,0.000,0.000,0.001,0.659,0.028,0.752,0.0000000,0.0000000,6468.404,0.000,0.000,0.000,0,00:00:00,-825,0.000,6468.404,39112.105,-32.734,275.095,0.000,1.007,-15.114,0.029,0.009,-0.003,-0.009,0.000,0.000
55.295,2,0,-6.248,1.287,6484.437,-6.015,1.179,266.643,-2.836,0.720,-14.720,0.000,0.000,0.0114000,0.000,9144.000,0.900,7.604,6633.916,279.125,389.611,-32.911,7367.844,6484.314,-14.979,0.067,0.929,0.006,0.026,0.013,0.000,0.000,0.000,0.002,0.660,0.029,0.751,0.0000000,0.0000000,6495.300,0.000,0.000,0.000,0,00:00:00,-825,0.000,6495.300,38960.367,-32.912,273.602,0.000,1.031,-15.057,-0.016,0.004,-0.015,0.001,0.000,0.000
55.396,2,0,-6.211,1.274,6511.244,-6.002,1.182,265.129,-3.141,0.698,-14.633,0.000,0.000,0.0113559,0.000,9144.000,0.896,7.455,6661.682,277.662,388.137,-33.084,7394.478,6510.948,-14.937,0.076,1.171,0.032,-0.050,0.022,0.000,0.000,0.000,0.004,0.658,0.029,0.753,0.0000000,0.0000000,6522.046,0.000,0.000,0.000,0,00:00:00,-825,0.000,6522.046,38817.090,-33.080,272.117,0.000,1.136,-14.885,0.030,-0.001,-0.008,-0.008,0.000,0.000
55.497,2,0,-6.177,1.263,6537.858,-5.993,1.180,263.572,-3.164,0.647,-14.751,0.000,0.000,0.0113856,0.000,9144.000,0.891,7.732,6689.301,276.187,386.683,-33.256,7420.840,6537.310,-15.057,0.053,1.151,0.016,-0.016,-0.026,0.000,0.000,0.000,0.003,0.657,0.027,0.753,0.0000000,0.0000000,6548.645,0.000,0.000,0.000,0,00:00:00,-825,0.000,6548.645,38667.492,-33.257,270.641,0.000,1.026,-14.865,0.001,0.004,0.014,0.008,0.000,0.000
55.598,2,0,-6.145,1.251,6564.304,-5.978,1.163,262.033,-3.077,0.486,-14.494,0.000,0.000,0.0114860,0.000,9144.000,0.887,7.821,6716.775,274.737,385.232,-33.427,7447.217,6563.687,-14.783,-0.076,1.116,0.012,0.015,-0.013,0.000,0.000,0.000,0.003,0.658,0.026,0.753,0.0000000,0.0000000,6575.096,0.000,0.000,0.000,0,00:00:00,-825,0.000,6575.096,38523.676,-33.427,269.174,0.000,1.056,-14.713,-0.005,0.021,0.005,-0.019,0.000,0.000
55.699,2,0,-6.114,1.240,6590.600,-5.945,1.152,260.506,-2.891,0.541,-14.409,0.000,0.000,0.0114879,0.000,9144.000,0.883,7.731,6744.104,273.296,383.788,-33.598,7473.542,6590.012,-14.676,0.004,0.932,0.006,-0.009,-0.019,0.000,0.000,0.000,0.003,0.657,0.025,0.753,0.0000000,0.0000000,6601.400,0.000,0.000,0.000,0,00:00:00,-826,0.000,6601.400,38379.273,-33.598,267.715,0.000,1.023,-14.655,0.084,0.005,0.003,-0.006,0.000,0.000
55.800,2,0,-6.083,1.229,6616.716,-5.929,1.144,258.960,-3.045,0.567,-14.406,0.000,0.000,0.0114545,0.000,9144.000,0.878,7.781,6771.290,271.856,382.369,-33.767,7499.496,6615.966,-14.694,0.012,1.097,-0.008,0.008,0.002,0.000,0.000,0.000,0.003,0.658,0.026,0.753,0.0000000,0.0000000,6627.558,0.000,0.000,0.000,0,00:00:00,-826,0.000,6627.558,38238.219,-33.766,266.265,0.000,1.119,-14.581,-0.079,0.005,-0.005,-0.004,0.000,0.000
55.901,2,0,-6.054,1.218,6642.700,-5.901,1.136,257.447,-2.900,0.563,-14.249,0.000,0.000,0.0114966,0.000,9144.000,0.874,7.737,6798.333,270.431,380.945,-33.937,7525.627,6642.097,-14.519,-0.001,0.981,-0.011,0.004,0.015,0.000,0.000,0.000,0.003,0.658,0.027,0.753,0.0000000,0.0000000,6653.571,0.000,0.000,0.000,0,00:00:00,-826,0.000,6653.571,38093.453,-33.938,264.823,0.000,1.074,-14.612,0.070,-0.007,0.002,0.009,0.000,0.000
56.002,2,0,-6.024,1.207,6664.911,-5.873,1.131,253.230,-2.894,0.583,-14.250,0.000,0.000,0.0114751,0.000,9144.000,0.869,7.716,6825.234,269.006,380.945,-33.937,7525.627,6642.097,-14.519,-0.001,0.981,-0.011,0.004,0.015,0.000,0.000,0.000,0.003,0.658,0.027,0.752,0.0000000,0.0000000,6653.571,0.000,0.000,0.000,0,00:00:00,-826,0.000,6653.571,38093.453,-33.938,264.823,0.000,1.074,-14.612,0.070,-0.007,0.002,0.009,0.000,0.000
56.103,2,0,-5.996,1.196,6690.877,-5.862,1.099,252.144,-3.043,0.317,-14.168,0.000,0.000,0.0115398,0.000,9144.000,0.865,7.695,6851.992,267.589,378.144,-34.273,7577.242,6693.712,-14.449,-0.321,1.102,-0.038,-0.017,-0.009,0.000,0.000,0.000,0.001,0.657,0.028,0.753,0.0000000,0.0000000,6705.166,0.000,0.000,0.000,0,00:00:00,-826,0.000,6705.166,37810.391,-34.278,261.962,0.000,1.016,-14.266,-0.017,0.010,0.007,-0.002,0.000,0.000
56.204,2,0,-5.969,1.184,6716.654,-5.848,1.094,251.030,-3.004,0.569,-13.855,0.000,0.000,0.0116159,0.000,9144.000,0.861,7.801,6878.613,266.204,376.778,-34.437,7602.527,6718.997,-14.144,-0.058,1.123,-0.002,0.006,-0.006,0.000,0.000,0.000,0.001,0.658,0.028,0.753,0.0000000,0.0000000,6730.748,0.000,0.000,0.000,0,00:00:00,-826,0.000,6730.748,37682.023,-34.432,260.544,0.000,0.986,-14.287,-0.027,-0.016,-0.005,-0.014,0.000,0.000
56.305,2,0,-5.943,1.173,6742.271,-5.824,1.093,249.863,-2.888,0.614,-14.025,0.000,0.000,0.0115899,0.000,9144.000,0.857,7.769,6905.093,264.801,375.414,-34.602,7627.854,6744.323,-14.297,0.036,1.004,0.040,0.009,0.016,0.000,0.000,0.000,0.003,0.658,0.027,0.753,0.0000000,0.0000000,6756.188,0.000,0.000,0.000,0,00:00:00,-826,0.000,6756.188,37541.363,-34.602,259.133,0.000,0.949,-14.309,-0.001,0.009,0.008,0.007,0.000,0.000
56.406,2,0,-5.917,1.163,6767.741,-5.797,1.094,248.692,-2.842,0.615,-13.848,0.000,0.000,0.0116320,0.000,9144.000,0.853,7.706,6931.435,263.416,374.056,-34.766,7653.134,6769.604,-14.119,0.049,0.935,0.001,-0.033,-0.002,0.000,0.000,0.000,0.003,0.657,0.027,0.754,0.0000000,0.0000000,6781.487,0.000,0.000,0.000,0,00:00:00,-826,0.000,6781.487,37402.488,-34.770,257.730,0.000,0.963,-14.078,-0.014,0.007,-0.008,0.004,0.000,0.000
56.507,2,0,-5.892,1.153,6793.012,-5.792,1.081,247.483,-3.052,0.475,-13.623,0.000,0.000,0.0116160,0.000,9144.000,0.849,7.894,6957.640,262.054,372.729,-34.927,7677.912,6794.382,-13.923,-0.071,1.125,0.014,-0.032,-0.001,0.000,0.000,0.000,0.003,0.656,0.027,0.755,0.0000000,0.0000000,6806.645,0.000,0.000,0.000,0,00:00:00,-826,0.000,6806.645,37274.227,-34.926,256.334,0.000,1.069,-14.046,-0.008,-0.024,0.015,-0.000,0.000,0.000
56.608,2,0,-5.868,1.144,6818.176,-5.781,1.081,246.292,-2.973,0.606,-13.543,0.000,0.000,0.0115999,0.000,9144.000,0.845,8.074,6983.710,260.700,371.381,-35.092,7703.159,6819.629,-13.837,0.068,1.084,0.009,0.014,0.028,0.000,0.000,0.000,0.005,0.656,0.028,0.754,0.0000000,0.0000000,6831.663,0.000,0.000,0.000,0,00:00:00,-826,0.000,6831.663,37138.684,-35.091,254.945,0.000,1.002,-13.959,-0.025,-0.018,0.017,0.001,0.000,0.000
56.709,2,0,-5.846,1.135,6843.177,-5.773,1.081,245.067,-2.997,0.597,-13.562,0.000,0.000,0.0115702,0.000,9144.000,0.841,7.993,7009.644,259.343,370.063,-35.253,7727.901,6844.371,-13.857,0.062,1.115,0.010,0.006,0.027,0.000,0.000,0.000,0.006,0.656,0.028,0.754,0.0000000,0.0000000,6856.542,0.000,0.000,0.000,0,00:00:00,-826,0.000,6856.542,37009.953,-35.248,253.563,0.000,0.951,-13.995,0.055,-0.005,-0.001,0.006,0.000,0.000
56.810,2,0,-5.826,1.127,6868.028,-5.768,1.063,243.821,-3.016,0.416,-13.591,0.000,0.000,0.0115895,0.000,9144.000,0.836,7.954,7035.443,257.984,368.753,-35.413,7752.593,6869.063,-13.882,-0.108,1.116,0.011,-0.005,0.014,0.000,0.000,0.000,0.007,0.656,0.028,0.754,0.0000000,0.0000000,6881.283,0.000,0.000,0.000,0,00:00:00,-826,0.000,6881.283,36878.602,-35.409,252.188,0.000,1.066,-13.784,0.017,-0.004,0.014,0.010,0.000,0.000
56.911,2,0,-5.806,1.118,6892.701,-5.751,1.058,242.526,-2.879,0.537,-13.688,0.000,0.000,0.0116430,0.000,9144.000,0.832,7.982,7061.104,256.616,367.463,-35.571,7776.949,6893.419,-13.964,0.010,0.963,-0.002,-0.007,0.013,0.000,0.000,0.000,0.007,0.656,0.029,0.754,0.0000000,0.0000000,6905.885,0.000,0.000,0.000,0,00:00:00,-826,0.000,6905.885,36743.695,-35.575,250.820,0.000,1.043,-13.800,-0.003,-0.028,-0.000,-0.003,0.000,0.000
57.012,2,0,-5.787,1.110,6917.292,-5.747,1.055,241.298,-3.006,0.552,-13.369,0.000,0.000,0.0117204,0.000,9144.000,0.828,8.024,7086.632,255.279,366.150,-35.733,7801.827,6918.297,-13.666,0.048,1.140,0.019,0.004,0.013,0.000,0.000,0.000,0.008,0.656,0.029,0.754,0.0000000,0.0000000,6930.350,0.000,0.000,0.000,0,00:00:00,-826,0.000,6930.350,36617.457,-35.730,249.459,0.000,1.046,-13.731,0.073,-0.000,0.009,-0.011,0.000,0.000
57.113,2,0,-5.770,1.102,6941.652,-5.745,1.042,239.991,-3.020,0.454,-13.364,0.000,0.000,0.0117292,0.000,9144.000,0.824,7.997,7112.026,253.942,364.902,-35.887,7825.532,6942.002,-13.660,-0.026,1.155,0.012,0.003,-0.028,0.000,0.000,0.000,0.008,0.656,0.027,0.754,0.0000000,0.0000000,6954.678,0.000,0.000,0.000,0,00:00:00,-826,0.000,6954.678,36491.641,-35.886,248.104,0.000,0.983,-13.607,-0.078,0.003,0.012,0.000,0.000,0.000
57.214,2,0,-5.754,1.093,6965.840,-5.741,1.035,238.655,-2.988,0.508,-13.347,0.000,0.000,0.0117660,0.000,9144.000,0.820,7.974,7137.287,252.608,363.645,-36.043,7849.474,6965.944,-13.641,-0.029,1.119,-0.042,-0.005,0.011,0.000,0.000,0.000,0.007,0.656,0.029,0.754,0.0000000,0.0000000,6978.871,0.000,0.000,0.000,0,00:00:00,-826,0.000,6978.871,36360.738,-36.048,246.756,0.000,1.053,-13.512,0.032,-0.010,0.010,-0.012,0.000,0.000
57.315,2,0,-5.739,1.086,6990.017,-5.737,1.039,237.406,-2.971,0.610,-13.417,0.000,0.000,0.0118143,0.000,9144.000,0.816,8.014,7162.414,251.266,362.340,-36.205,7874.412,6990.882,-13.712,0.076,1.085,0.010,-0.011,0.032,0.000,0.000,0.000,0.008,0.656,0.030,0.755,0.0000000,0.0000000,7002.927,0.000,0.000,0.000,0,00:00:00,-826,0.000,7002.927,36240.152,-36.198,245.414,0.000,0.998,-13.540,0.101,-0.013,0.002,0.015,0.000,0.000
57.416,2,0,-5.725,1.078,7013.908,-5.723,1.022,236.058,-2.878,0.399,-13.202,0.000,0.000,0.0119136,0.000,9144.000,0.812,8.072,7187.408,249.946,361.145,-36.354,7897.317,7013.787,-13.477,-0.110,1.039,0.011,0.019,-0.002,0.000,0.000,0.000,0.008,0.656,0.030,0.754,0.0000000,0.0000000,7026.850,0.000,0.000,0.000,0,00:00:00,-826,0.000,7026.850,36109.328,-36.361,244.078,0.000,1.014,-13.494,-0.048,0.005,0.011,0.009,0.000,0.000
57.517,2,0,-5.712,1.070,7037.694,-5.732,1.018,234.738,-3.090,0.520,-13.156,0.000,0.000,0.0118975,0.000,9144.000,0.808,7.961,7212.271,248.630,359.896,-36.510,7921.295,7037.765,-13.463,0.034,1.277,0.030,0.010,0.017,0.000,0.000,0.000,0.010,0.657,0.029,0.754,0.0000000,0.0000000,7050.637,0.000,0.000,0.000,0,00:00:00,-826,0.000,7050.637,35991.445,-36.508,242.749,0.000,0.959,-13.472,-0.012,0.000,0.000,0.011,0.000,0.000
57.618,2,0,-5.699,1.062,7061.327,-5.698,1.002,233.414,-2.661,0.403,-13.039,0.000,0.000,0.0119811,0.000,9144.000,0.804,7.894,7237.004,247.326,358.676,-36.663,7944.805,7061.274,-13.285,-0.042,0.879,0.011,0.011,0.002,0.000,0.000,0.000,0.011,0.657,0.029,0.753,0.0000000,0.0000000,7074.292,0.000,0.000,0.000,0,00:00:00,-826,0.000,7074.292,35866.973,-36.664,241.426,0.000,1.015,-13.325,0.035,-0.005,-0.007,0.010,0.000,0.000
57.719,2,0,-5.685,1.054,7084.798,-5.697,0.993,232.075,-2.976,0.467,-12.977,0.000,0.000,0.0118756,0.000,9144.000,0.800,7.825,7261.607,246.028,357.471,-36.814,7968.092,7084.562,-13.269,-0.004,1.189,-0.002,-0.010,0.024,0.000,0.000,0.000,0.011,0.657,0.030,0.753,0.0000000,0.0000000,7097.812,0.000,0.000,0.000,0,00:00:00,-826,0.000,7097.812,35746.668,-36.815,240.108,0.000,1.052,-13.376,0.073,0.012,0.001,0.009,0.000,0.000
57.820,3,0,-5.671,1.045,7108.199,-5.655,0.969,230.783,-2.565,0.308,-13.006,0.000,0.000,0.0119160,0.000,9144.000,0.796,7.884,7286.080,244.728,356.241,-36.969,7991.905,7108.375,-13.236,-0.129,0.790,0.004,0.015,-0.020,0.000,0.000,0.000,0.011,0.657,0.029,0.753,0.0000000,0.0000000,7121.201,0.000,0.000,0.000,0,00:00:00,-826,0.000,7121.201,35623.934,-36.970,238.797,0.000,1.022,-13.259,-0.035,-0.008,-0.017,-0.006,0.000,0.000
57.921,3,0,-5.655,1.035,7131.472,-5.632,0.953,229.504,-2.747,0.385,-12.877,15.000,0.000,0.0119160,9382.481,9144.000,0.792,7.795,7310.424,243.440,355.043,-37.121,8015.181,7131.651,-13.133,-0.050,1.025,0.002,0.026,-0.034,0.000,0.000,0.000,0.010,0.658,0.028,0.752,0.0000000,0.0000000,7144.458,0.000,0.000,0.000,0,00:00:00,-3497,0.000,7144.458,35505.840,-37.119,237.491,0.000,1.071,-13.173,0.026,-0.007,-0.004,-0.005,0.000,0.000
58.022,3,0,-5.638,1.023,7154.583,-5.598,0.916,228.203,-2.630,0.170,-12.854,15.000,0.000,0.0119160,9386.181,9144.000,0.788,7.648,7334.639,242.155,353.867,-37.270,8038.092,7154.562,-13.088,-0.283,0.885,-0.016,-0.012,0.024,0.000,0.000,0.000,0.010,0.658,0.029,0.753,0.0000000,0.0000000,7167.583,0.000,0.000,0.000,0,00:00:00,-19907,0.000,7167.583,35386.082,-37.270,236.191,0.000,1.067,-13.107,0.035,-0.010,-0.004,-0.014,0.000,0.000
58.123,3,0,-5.620,1.010,7177.584,-5.560,0.896,227.046,-2.584,0.333,-11.534,15.000,-6.000,0.0119160,9493.727,9144.000,0.785,7.720,7358.739,241.001,352.684,-37.420,8061.183,7177.653,-11.778,-0.082,1.050,0.006,0.020,0.001,0.000,0.000,0.000,0.010,0.659,0.029,0.752,0.0000000,0.0000000,7190.596,0.000,0.000,0.000,0,00:00:00,-40446,0.000,7190.596,35272.477,-37.415,235.027,0.000,0.926,-11.718,-0.045,0.011,0.002,0.000,0.000,0.000
58.224,3,0,-5.600,0.996,7200.428,-5.542,0.877,225.839,-2.766,0.337,-11.752,20.000,-4.000,0.0119160,9460.858,9144.000,0.781,7.604,7382.722,239.826,351.530,-37.567,8083.792,7200.262,-12.021,-0.094,1.163,-0.004,-0.030,-0.010,0.000,0.000,0.000,0.010,0.657,0.029,0.753,0.0000000,0.0000000,7213.486,0.000,0.000,0.000,0,00:00:00,-62091,0.000,7213.486,35152.926,-37.567,233.824,0.000,0.956,-12.054,-0.018,0.011,0.008,-0.005,0.000,0.000
58.325,3,0,-5.581,0.983,7223.136,-5.515,0.873,224.576,-2.665,0.480,-12.211,20.000,-2.000,0.0119160,9426.499,9144.000,0.777,7.779,7406.582,238.605,350.377,-37.714,8106.419,7222.889,-12.467,0.075,0.996,0.017,-0.010,-0.036,0.000,0.000,0.000,0.009,0.657,0.027,0.753,0.0000000,0.0000000,7236.248,0.000,0.000,0.000,0,00:00:00,-83352,0.000,7236.248,35036.934,-37.715,232.583,0.000,1.029,-12.548,-0.028,0.015,0.008,0.003,0.000,0.000
58.426,3,0,-5.561,0.970,7245.739,-5.507,0.859,223.291,-2.841,0.364,-12.612,20.000,0.000,0.0119160,9394.928,9144.000,0.773,7.832,7430.317,237.344,349.221,-37.862,8129.181,7245.651,-12.886,-0.062,1.094,-0.006,-0.012,-0.012,0.000,0.000,0.000,0.008,0.657,0.027,0.754,0.0000000,0.0000000,7258.878,0.000,0.000,0.000,0,00:00:00,-104842,0.000,7258.878,34922.258,-37.862,231.303,0.000,0.950,-12.876,-0.028,-0.007,-0.002,0.011,0.000,0.000
58.527,3,0,-5.543,0.958,7268.194,-5.501,0.866,221.978,-2.862,0.576,-12.771,20.000,1.000,0.0119160,9380.377,9144.000,0.770,7.901,7453.923,236.067,348.089,-38.007,8151.527,7267.997,-13.051,0.133,1.126,-0.018,0.020,-0.044,0.000,0.000,0.000,0.006,0.657,0.026,0.753,0.0000000,0.0000000,7281.376,0.000,0.000,0.000,0,00:00:00,-126654,0.000,7281.376,34810.676,-38.005,230.009,0.000,0.938,-13.150,-0.031,-0.008,-0.022,-0.005,0.000,0.000
58.628,3,0,-5.526,0.947,7287.388,-5.494,0.875,218.326,-2.839,0.586,-12.775,20.000,3.000,0.0119160,9353.346,9144.000,0.765,7.794,7477.402,234.789,348.089,-38.007,8151.527,7267.997,-13.051,0.133,1.126,-0.018,0.020,-0.044,0.000,0.000,0.000,0.004,0.658,0.025,0.753,0.0000000,0.0000000,7281.376,0.000,0.000,0.000,0,00:00:00,-148507,0.000,7281.376,34810.676,-38.005,230.009,0.000,0.938,-13.150,-0.031,-0.008,-0.022,-0.005,0.000,0.000
58.729,3,0,-5.510,0.938,7309.773,-5.488,0.871,217.267,-2.833,0.460,-13.453,20.000,5.000,0.0119160,9288.222,9144.000,0.761,7.686,7500.747,233.444,345.856,-38.295,8195.769,7312.239,-13.717,-0.035,1.042,-0.017,0.015,-0.001,0.000,0.000,0.000,0.003,0.659,0.025,0.752,0.0000000,0.0000000,7325.959,0.000,0.000,0.000,0,00:00:00,-170685,0.000,7325.959,34585.688,-38.295,227.315,0.000,0.976,-13.857,-0.013,-0.001,0.018,-0.016,0.000,0.000
58.830,3,0,-5.495,0.930,7332.016,-5.484,0.867,216.152,-2.854,0.447,-13.778,20.000,7.000,0.0119160,9270.002,9144.000,0.757,7.607,7523.953,232.066,344.748,-38.438,8217.812,7334.282,-14.040,-0.073,1.022,-0.015,0.002,-0.019,0.000,0.000,0.000,0.002,0.659,0.025,0.752,0.0000000,0.0000000,7348.038,0.000,0.000,0.000,0,00:00:00,-192697,0.000,7348.038,34473.270,-38.440,225.918,0.000,1.004,-14.085,-0.036,-0.019,0.011,0.005,0.000,0.000
58.931,3,0,-5.480,0.923,7354.167,-5.473,0.885,215.020,-2.774,0.662,-14.105,20.000,9.000,0.0119160,9251.862,9144.000,0.753,7.597,7547.019,230.656,343.631,-38.583,8240.100,7356.570,-14.364,0.090,0.872,-0.035,-0.023,-0.006,0.000,0.000,0.000,0.001,0.658,0.026,0.753,0.0000000,0.0000000,7369.970,0.000,0.000,0.000,0,00:00:00,-214927,0.000,7369.970,34367.566,-38.577,224.490,0.000,1.009,-14.480,-0.005,0.009,0.002,-0.007,0.000,0.000
59.032,3,0,-5.467,0.918,7376.097,-5.470,0.897,213.766,-2.841,0.607,-14.539,20.000,11.000,0.0119160,9233.791,9144.000,0.748,7.737,7569.939,229.202,342.566,-38.722,8261.392,7377.862,-14.804,0.001,0.824,-0.009,-0.036,0.015,0.000,0.000,0.000,0.001,0.656,0.027,0.754,0.0000000,0.0000000,7391.753,0.000,0.000,0.000,0,00:00:00,-236992,0.000,7391.753,34253.289,-38.726,223.032,0.000,1.000,-14.769,-0.085,0.000,-0.004,-0.007,0.000,0.000
59.133,3,0,-5.456,0.915,7397.889,-5.505,0.917,212.480,-3.219,0.671,-14.777,20.000,13.000,0.0119160,9214.780,9144.000,0.744,7.947,7592.711,227.724,341.483,-38.863,8283.114,7399.584,-15.093,0.041,1.169,0.004,0.000,0.021,0.000,0.000,0.000,0.002,0.656,0.027,0.754,0.0000000,0.0000000,7413.384,0.000,0.000,0.000,0,00:00:00,-259201,0.000,7413.384,34152.062,-38.858,221.546,0.000,1.003,-14.986,-0.040,0.001,-0.012,-0.016,0.000,0.000
59.234,3,0,-5.449,0.913,7419.521,-5.530,0.935,211.142,-3.112,0.663,-15.089,20.000,16.000,0.0119160,9188.720,9144.000,0.739,7.946,7615.333,226.215,340.415,-39.003,8304.580,7421.050,-15.389,0.014,0.998,-0.011,-0.013,-0.011,0.000,0.000,0.000,0.001,0.656,0.027,0.754,0.0000000,0.0000000,7434.858,0.000,0.000,0.000,0,00:00:00,-281320,0.000,7434.858,34044.758,-38.998,220.015,0.000,1.004,-15.386,0.002,-0.010,-0.001,0.000,0.000,0.000
59.335,3,0,-5.445,0.914,7440.975,-5.567,0.951,209.745,-3.223,0.643,-15.358,20.000,18.000,0.0119160,9173.165,9144.000,0.734,8.025,7637.801,224.679,339.363,-39.140,8325.770,7442.240,-15.667,-0.028,1.104,0.001,0.021,0.028,0.000,0.000,0.000,0.002,0.657,0.028,0.754,0.0000000,0.0000000,7456.173,0.000,0.000,0.000,0,00:00:00,-303494,0.000,7456.173,33936.820,-39.140,218.459,0.000,0.840,-15.701,-0.005,-0.010,-0.014,-0.002,0.000,0.000
59.436,3,0,-5.444,0.916,7462.274,-5.586,0.973,208.308,-3.051,0.699,-15.673,20.000,20.000,0.0119160,9159.761,9144.000,0.729,7.904,7660.112,223.112,338.312,-39.278,8346.997,7463.467,-15.955,-0.016,0.937,-0.026,0.029,-0.004,0.000,0.000,0.000,0.001,0.658,0.029,0.753,0.0000000,0.0000000,7477.327,0.000,0.000,0.000,0,00:00:00,-314944,0.000,7477.327,33834.875,-39.274,216.880,0.000,1.081,-16.045,0.010,0.004,0.002,-0.010,0.000,0.000
59.537,3,0,-5.447,0.921,7483.370,-5.630,1.005,206.836,-3.306,0.803,-15.585,20.000,21.000,0.0119160,9155.640,9144.000,0.724,7.745,7682.267,221.554,337.288,-39.413,8367.738,7484.208,-15.912,0.039,1.135,-0.024,-0.043,0.016,0.000,0.000,0.000,0.001,0.656,0.030,0.754,0.0000000,0.0000000,7498.320,0.000,0.000,0.000,0,00:00:00,-315060,0.000,7498.320,33738.562,-39.400,215.296,0.000,1.034,-16.015,0.052,0.005,0.009,-0.015,0.000,0.000
59.638,3,0,-5.452,0.928,7504.245,-5.670,1.035,205.323,-3.257,0.781,-15.452,20.000,21.000,0.0119160,9156.258,9144.000,0.720,8.000,7704.268,220.008,336.282,-39.546,8388.165,7504.635,-15.775,0.046,1.068,0.014,-0.024,0.004,0.000,0.000,0.000,0.001,0.655,0.030,0.755,0.0000000,0.0000000,7519.154,0.000,0.000,0.000,0,00:00:00,-315060,0.000,7519.154,33629.301,-39.545,213.723,0.000,1.081,-15.817,-0.037,-0.002,0.008,0.022,0.000,0.000
59.739,3,0,-5.461,0.936,7524.954,-5.699,1.044,203.791,-3.158,0.579,-15.538,20.000,21.000,0.0119160,9157.095,9144.000,0.715,8.133,7726.114,218.455,335.268,-39.680,8408.794,7525.264,-15.833,-0.216,1.001,-0.037,0.034,0.008,0.000,0.000,0.000,0.000,0.656,0.032,0.754,0.0000000,0.0000000,7539.831,0.000,0.000,0.000,0,00:00:00,-315060,0.000,7539.831,33522.844,-39.686,212.162,0.000,0.995,-15.797,-0.057,-0.017,0.013,-0.001,0.000,0.000
59.840,3,0,-5.471,0.945,7545.533,-5.725,1.073,202.283,-3.138,0.784,-15.488,25.000,21.000,0.0119160,9160.125,9144.000,0.710,7.945,7747.804,216.906,334.252,-39.815,8429.527,7545.997,-15.791,-0.014,0.998,0.003,-0.001,0.033,0.000,0.000,0.000,0.001,0.656,0.033,0.754,0.0000000,0.0000000,7560.351,0.000,0.000,0.000,0,00:00:00,-320967,0.000,7560.351,33423.402,-39.817,210.612,0.000,0.990,-15.603,0.102,0.000,-0.013,-0.009,0.000,0.000
59.941,3,0,-5.483,0.957,7565.932,-5.764,1.127,200.772,-3.274,1.037,-15.309,25.000,21.000,0.0119160,9161.791,9144.000,0.705,7.949,7769.342,215.375,333.263,-39.947,8449.748,7566.218,-15.648,0.202,1.129,-0.028,-0.023,-0.018,0.000,0.000,0.000,-0.000,0.655,0.033,0.754,0.0000000,0.0000000,7580.716,0.000,0.000,0.000,0,00:00:00,-341261,0.000,7580.716,33329.113,-39.943,209.074,0.000,1.015,-15.634,-0.042,0.004,-0.008,-0.018,0.000,0.000
60.042,3,0,-5.498,0.971,7586.178,-5.801,1.147,199.223,-3.252,0.711,-15.684,25.000,23.000,0.0119160,9147.475,9144.000,0.700,8.087,7790.722,213.806,332.275,-40.078,8470.000,7586.470,-15.995,-0.164,1.094,-0.015,0.034,0.004,0.000,0.000,0.000,-0.001,0.657,0.034,0.753,0.0000000,0.0000000,7600.921,0.000,0.000,0.000,0,00:00:00,-363433,0.000,7600.921,33224.523,-40.082,207.515,0.000,0.960,-15.680,0.044,0.006,-0.006,-0.024,0.000,0.000
60.143,3,0,-5.515,0.986,7606.315,-5.841,1.173,197.703,-3.300,0.779,-15.768,25.000,26.000,0.0119160,9129.560,9144.000,0.695,7.896,7811.945,212.230,331.280,-40.211,8490.437,7606.907,-16.089,-0.091,1.131,0.015,-0.004,0.036,0.000,0.000,0.000,0.001,0.657,0.034,0.753,0.0000000,0.0000000,7620.964,0.000,0.000,0.000,0,00:00:00,-375226,0.000,7620.964,33128.797,-40.210,205.925,0.000,1.053,-16.119,-0.091,0.012,0.016,-0.001,0.000,0.000
60.244,3,0,-5.533,1.002,7626.224,-5.863,1.189,196.121,-3.124,0.685,-15.818,25.000,27.000,0.0119160,9124.950,9144.000,0.690,7.912,7833.010,210.648,330.336,-40.338,8509.888,7626.358,-16.110,-0.144,0.944,0.019,-0.002,-0.009,0.000,0.000,0.000,0.001,0.657,0.034,0.753,0.0000000,0.0000000,7640.845,0.000,0.000,0.000,0,00:00:00,-375269,0.000,7640.845,33034.449,-40.337,204.332,0.000,1.002,-16.145,0.027,-0.001,0.009,-0.013,0.000,0.000
60.345,3,0,-5.552,1.018,7645.968,-5.913,1.228,194.542,-3.418,0.923,-15.753,25.000,27.000,0.0119160,9126.045,9144.000,0.685,7.916,7853.917,209.072,329.382,-40.466,8529.592,7646.062,-16.099,0.038,1.231,-0.025,-0.014,0.013,0.000,0.000,0.000,0.001,0.656,0.035,0.754,0.0000000,0.0000000,7660.566,0.000,0.000,0.000,0,00:00:00,-375269,0.000,7660.566,32940.082,-40.463,202.752,0.000,1.017,-16.023,0.010,0.018,-0.000,0.011,0.000,0.000
60.446,3,0,-5.573,1.037,7665.482,-5.930,1.261,192.926,-3.101,0.867,-15.588,25.000,27.000,0.0119160,9126.435,9144.000,0.680,8.003,7874.669,207.514,328.460,-40.590,8548.672,7665.142,-15.886,0.011,0.994,0.012,0.033,0.037,0.000,0.000,0.000,0.002,0.657,0.036,0.753,0.0000000,0.0000000,7680.129,0.000,0.000,0.000,0,00:00:00,-375269,0.000,7680.129,32841.906,-40.595,201.184,0.000,0.936,-15.890,-0.031,0.004,0.013,-0.006,0.000,0.000
60.547,3,0,-5.594,1.056,7684.869,-5.957,1.280,191.341,-3.201,0.746,-15.555,25.000,27.000,0.0119160,9128.099,9144.000,0.675,7.811,7895.265,205.958,327.514,-40.717,8568.282,7684.752,-15.858,-0.083,1.126,0.020,0.021,-0.006,0.000,0.000,0.000,0.003,0.658,0.035,0.752,0.0000000,0.0000000,7699.534,0.000,0.000,0.000,0,00:00:00,-375269,0.000,7699.534,32749.576,-40.720,199.627,0.000,1.075,-15.838,-0.022,0.008,0.007,-0.000,0.000,0.000
60.648,3,0,-5.615,1.075,7704.091,-5.986,1.307,189.767,-3.241,0.835,-15.395,25.000,27.000,0.0119160,9129.555,9144.000,0.671,7.683,7915.706,204.419,326.591,-40.842,8587.470,7703.940,-15.706,0.020,1.239,0.010,0.029,0.010,0.000,0.000,0.000,0.004,0.659,0.035,0.751,0.0000000,0.0000000,7718.783,0.000,0.000,0.000,0,00:00:00,-375269,0.000,7718.783,32660.592,-40.840,198.082,0.000,1.090,-15.640,-0.057,-0.005,-0.014,-0.013,0.000,0.000
60.749,3,0,-5.636,1.095,7723.222,-5.994,1.331,188.254,-3.050,0.806,-15.297,25.000,27.000,0.0119160,9131.250,9144.000,0.666,7.514,7935.995,202.889,325.653,-40.969,8607.010,7723.480,-15.585,-0.003,1.026,-0.007,-0.022,-0.001,0.000,0.000,0.000,0.003,0.658,0.035,0.752,0.0000000,0.0000000,7737.876,0.000,0.000,0.000,0,00:00:00,-375269,0.000,7737.876,32571.582,-40.961,196.549,0.000,1.009,-15.584,0.080,-0.004,0.004,0.018,0.000,0.000
60.850,3,0,-5.656,1.115,7742.089,-5.996,1.365,186.674,-2.992,0.926,-15.131,25.000,27.000,0.0119160,9131.643,9144.000,0.661,7.641,7956.133,201.376,324.783,-41.087,8625.193,7741.663,-15.418,0.162,1.021,0.024,0.014,-0.001,0.000,0.000,0.000,0.004,0.659,0.034,0.751,0.0000000,0.0000000,7756.815,0.000,0.000,0.000,0,00:00:00,-375269,0.000,7756.815,32481.789,-41.083,195.026,0.000,1.045,-15.451,0.033,0.013,0.013,0.001,0.000,0.000
60.951,3,0,-5.674,1.137,7760.764,-6.004,1.392,185.095,-3.059,0.862,-14.865,25.000,27.000,0.0119160,9132.368,9144.000,0.656,7.553,7976.122,199.889,323.900,-41.208,8643.662,7760.132,-15.164,0.068,1.057,-0.023,-0.041,0.022,0.000,0.000,0.000,0.004,0.657,0.036,0.753,0.0000000,0.0000000,7775.602,0.000,0.000,0.000,0,00:00:00,-375269,0.000,7775.602,32382.543,-41.218,193.515,0.000,1.048,-15.329,0.025,-0.022,-0.012,0.002,0.000,0.000
61.052,3,0,-5.692,1.157,7779.337,-6.020,1.375,183.560,-3.155,0.446,-14.867,25.000,27.000,0.0119160,9130.842,9144.000,0.652,7.792,7995.962,198.403,322.998,-41.331,8662.586,7779.056,-15.160,-0.330,1.115,0.013,-0.010,-0.011,0.000,0.000,0.000,0.004,0.657,0.035,0.753,0.0000000,0.0000000,7794.235,0.000,0.000,0.000,0,00:00:00,-375269,0.000,7794.235,32299.648,-41.331,192.014,0.000,1.021,-15.321,0.113,0.016,-0.012,0.009,0.000,0.000
61.153,3,0,-5.709,1.175,7797.772,-6.036,1.390,182.045,-3.159,0.762,-14.786,25.000,27.000,0.0119160,9130.954,9144.000,0.647,7.848,8015.654,196.924,322.116,-41.451,8681.128,7797.598,-15.096,0.007,1.141,0.014,-0.004,0.008,0.000,0.000,0.000,0.005,0.657,0.035,0.753,0.0000000,0.0000000,7812.718,0.000,0.000,0.000,0,00:00:00,-375269,0.000,7812.718,32213.332,-41.449,190.524,0.000,1.015,-15.153,-0.082,0.011,-0.010,-0.003,0.000,0.000
61.254,3,0,-5.727,1.193,7816.063,-6.054,1.418,180.530,-3.192,0.906,-14.847,25.000,27.000,0.0119160,9131.453,9144.000,0.642,7.867,8035.198,195.439,321.245,-41.570,8699.469,7815.939,-15.173,0.108,1.100,-0.026,-0.048,0.012,0.000,0.000,0.000,0.005,0.655,0.036,0.755,0.0000000,0.0000000,7831.051,0.000,0.000,0.000,0,00:00:00,-375269,0.000,7831.051,32125.887,-41.569,189.044,0.000,1.004,-15.027,-0.042,0.032,-0.019,-0.016,0.000,0.000
61.355,3,0,-5.743,1.211,7834.211,-6.057,1.420,179.044,-3.049,0.657,-14.636,25.000,27.000,0.0119160,9130.147,9144.000,0.638,8.149,8054.596,193.976,320.383,-41.689,8717.675,7834.145,-14.934,-0.051,0.953,0.044,-0.016,-0.025,0.000,0.000,0.000,0.005,0.655,0.034,0.755,0.0000000,0.0000000,7849.234,0.000,0.000,0.000,0,00:00:00,-375269,0.000,7849.234,32037.014,-41.691,187.574,0.000,1.010,-14.941,0.022,0.004,0.019,0.008,0.000,0.000
61.456,3,0,-5.759,1.228,7852.151,-6.069,1.437,177.533,-3.145,0.817,-14.444,25.000,27.000,0.0119160,9130.401,9144.000,0.633,8.226,8073.849,192.531,319.552,-41.803,8735.251,7851.721,-14.767,0.125,1.054,0.010,-0.022,0.007,0.000,0.000,0.000,0.006,0.654,0.034,0.756,0.0000000,0.0000000,7867.270,0.000,0.000,0.000,0,00:00:00,-375269,0.000,7867.270,31954.150,-41.805,186.114,0.000,0.970,-14.768,-0.020,-0.007,0.008,0.001,0.000,0.000
61.557,3,0,-5.775,1.244,7869.997,-6.095,1.425,176.071,-3.300,0.531,-14.382,25.000,27.000,0.0119160,9129.935,9144.000,0.628,8.346,8092.958,191.093,318.694,-41.921,8753.453,7869.923,-14.712,-0.178,1.247,-0.008,0.032,-0.008,0.000,0.000,0.000,0.005,0.655,0.034,0.755,0.0000000,0.0000000,7885.157,0.000,0.000,0.000,0,00:00:00,-375269,0.000,7885.157,31869.049,-41.922,184.664,0.000,1.024,-14.744,0.002,-0.012,0.006,0.005,0.000,0.000
61.658,3,0,-5.791,1.258,7887.663,-6.100,1.437,174.578,-3.095,0.783,-14.470,25.000,27.000,0.0119160,9131.890,9144.000,0.624,8.165,8111.923,189.646,317.872,-42.035,8770.930,7887.400,-14.781,0.088,1.048,0.003,0.002,-0.007,0.000,0.000,0.000,0.005,0.655,0.033,0.755,0.0000000,0.0000000,7902.898,0.000,0.000,0.000,0,00:00:00,-375269,0.000,7902.898,31787.021,-42.035,183.224,0.000,1.013,-14.719,-0.009,-0.008,-0.002,0.003,0.000,0.000
61.759,3,0,-5.806,1.271,7905.145,-6.096,1.439,173.099,-3.013,0.685,-14.058,25.000,27.000,0.0119160,9132.235,9144.000,0.619,8.154,8130.747,188.240,317.061,-42.147,8788.194,7904.664,-14.354,0.023,1.059,0.013,0.026,0.009,0.000,0.000,0.000,0.006,0.656,0.033,0.754,0.0000000,0.0000000,7920.495,0.000,0.000,0.000,0,00:00:00,-375269,0.000,7920.495,31701.324,-42.154,181.793,0.000,1.035,-14.603,-0.071,0.004,0.021,0.004,0.000,0.000
61.860,3,0,-5.819,1.284,7922.543,-6.112,1.437,171.636,-3.218,0.653,-14.399,25.000,27.000,0.0119160,9133.463,9144.000,0.615,8.001,8149.427,186.800,316.227,-42.263,8805.997,7922.466,-14.719,-0.042,1.211,-0.003,-0.001,0.020,0.000,0.000,0.000,0.007,0.656,0.034,0.754,0.0000000,0.0000000,7937.946,0.000,0.000,0.000,0,00:00:00,-375269,0.000,7937.946,31624.090,-42.261,180.371,0.000,1.033,-14.474,-0.105,-0.010,-0.009,0.004,0.000,0.000
61.961,3,0,-5.832,1.295,7939.832,-6.091,1.443,170.235,-2.861,0.742,-14.063,25.000,27.000,0.0119160,9133.849,9144.000,0.610,8.008,8167.966,185.394,315.407,-42.377,8823.520,7939.990,-14.339,0.061,0.947,-0.009,0.026,0.010,0.000,0.000,0.000,0.007,0.657,0.035,0.753,0.0000000,0.0000000,7955.253,0.000,0.000,0.000,0,00:00:00,-375269,0.000,7955.253,31541.332,-42.376,178.958,0.000,1.093,-14.345,0.029,0.001,0.017,-0.003,0.000,0.000
62.062,3,0,-5.841,1.305,7956.967,-6.074,1.441,168.835,-2.905,0.674,-13.952,25.000,27.000,0.0119160,9135.773,9144.000,0.606,7.863,8186.366,183.999,314.612,-42.488,8840.574,7957.044,-14.232,0.042,1.004,0.032,0.001,-0.009,0.000,0.000,0.000,0.007,0.657,0.033,0.753,0.0000000,0.0000000,7972.417,0.000,0.000,0.000,0,00:00:00,-375269,0.000,7972.417,31460.416,-42.489,177.555,0.000,0.961,-14.271,-0.067,-0.011,-0.008,0.013,0.000,0.000
62.163,3,0,-5.849,1.314,7973.997,-6.076,1.436,167.465,-3.094,0.639,-13.922,25.000,27.000,0.0119160,9136.818,9144.000,0.601,7.850,8204.627,182.607,313.808,-42.600,8857.824,7974.294,-14.228,0.034,1.165,0.035,-0.023,0.042,0.000,0.000,0.000,0.010,0.656,0.034,0.754,0.0000000,0.0000000,7989.440,0.000,0.000,0.000,0,00:00:00,-375269,0.000,7989.440,31382.168,-42.598,176.160,0.000,0.889,-14.243,0.059,0.012,0.005,-0.007,0.000,0.000
62.264,3,0,-5.856,1.322,7990.841,-6.067,1.425,166.056,-2.992,0.588,-13.961,25.000,27.000,0.0119160,9137.396,9144.000,0.597,7.972,8222.748,181.211,313.039,-42.708,8874.378,7990.848,-14.253,-0.038,1.023,-0.023,-0.022,-0.011,0.000,0.000,0.000,0.009,0.655,0.034,0.755,0.0000000,0.0000000,8006.321,0.000,0.000,0.000,0,00:00:00,-375269,0.000,8006.321,31301.996,-42.710,174.774,0.000,1.015,-14.170,0.064,0.002,0.004,0.007,0.000,0.000
62.365,3,0,-5.860,1.328,8007.518,-6.050,1.413,164.656,-2.915,0.574,-13.674,25.000,27.000,0.0119160,9137.306,9144.000,0.593,8.104,8240.732,179.843,312.273,-42.815,8890.894,8007.364,-13.957,-0.051,0.999,-0.004,0.008,0.021,0.000,0.000,0.000,0.010,0.656,0.035,0.754,0.0000000,0.0000000,8023.061,0.000,0.000,0.000,0,00:00:00,-375269,0.000,8023.061,31222.846,-42.821,173.396,0.000,1.073,-14.094,0.000,0.012,0.002,-0.017,0.000,0.000
62.466,3,0,-5.863,1.332,8024.044,-6.027,1.407,163.253,-2.851,0.643,-13.639,25.000,27.000,0.0119160,9138.189,9144.000,0.588,8.060,8258.580,178.479,311.511,-42.922,8907.360,8023.830,-13.916,0.036,0.945,0.008,0.001,-0.010,0.000,0.000,0.000,0.010,0.656,0.034,0.754,0.0000000,0.0000000,8039.662,0.000,0.000,0.000,0,00:00:00,-375269,0.000,8039.662,31147.465,-42.927,172.027,0.000,1.031,-13.969,-0.009,0.008,-0.006,0.013,0.000,0.000
62.567,3,0,-5.863,1.336,8040.419,-5.999,1.402,161.850,-2.810,0.657,-13.560,25.000,27.000,0.0119160,9138.706,9144.000,0.584,8.054,8276.293,177.123,310.757,-43.028,8923.677,8040.147,-13.830,0.056,0.964,0.005,0.034,0.014,0.000,0.000,0.000,0.010,0.657,0.035,0.753,0.0000000,0.0000000,8056.124,0.000,0.000,0.000,0,00:00:00,-375269,0.000,8056.124,31069.537,-43.037,170.666,0.000,1.009,-13.854,-0.054,-0.013,-0.002,-0.001,0.000,0.000
62.668,3,0,-5.862,1.338,8056.684,-5.996,1.380,160.463,-3.050,0.477,-13.644,25.000,27.000,0.0119160,9140.134,9144.000,0.580,7.859,8293.869,175.759,309.998,-43.135,8940.138,8056.608,-13.942,-0.165,1.127,-0.024,-0.036,-0.023,0.000,0.000,0.000,0.009,0.656,0.035,0.754,0.0000000,0.0000000,8072.447,0.000,0.000,0.000,0,00:00:00,-375269,0.000,8072.447,31002.607,-43.131,169.313,0.000,1.057,-13.863,0.049,-0.019,0.011,-0.011,0.000,0.000
62.769,3,0,-5.859,1.338,8072.782,-5.973,1.381,159.067,-2.850,0.722,-13.531,25.000,27.000,0.0119160,9139.510,9144.000,0.575,8.071,8311.309,174.406,309.265,-43.239,8956.071,8072.541,-13.812,0.101,0.978,0.003,0.013,-0.006,0.000,0.000,0.000,0.008,0.656,0.034,0.754,0.0000000,0.0000000,8088.633,0.000,0.000,0.000,0,00:00:00,-375269,0.000,8088.633,30923.025,-43.244,167.968,0.000,1.002,-13.825,-0.011,-0.017,0.009,-0.019,0.000,0.000
62.870,3,0,-5.855,1.338,8088.691,-5.955,1.362,157.637,-2.905,0.508,-13.500,25.000,27.000,0.0119160,9140.189,9144.000,0.571,7.994,8328.615,173.056,308.548,-43.341,8971.679,8088.148,-13.776,-0.107,1.068,0.005,0.032,-0.010,0.000,0.000,0.000,0.008,0.657,0.034,0.753,0.0000000,0.0000000,8104.682,0.000,0.000,0.000,0,00:00:00,-375269,0.000,8104.682,30851.520,-43.345,166.631,0.000,1.043,-13.666,-0.119,-0.001,0.007,-0.005,0.000,0.000
62.971,3,0,-5.850,1.336,8104.509,-5.935,1.339,156.276,-2.877,0.481,-13.223,25.000,27.000,0.0119160,9140.877,9144.000,0.567,7.809,8345.788,171.734,307.808,-43.446,8987.823,8104.293,-13.500,-0.095,1.052,0.023,-0.020,0.011,0.000,0.000,0.000,0.009,0.657,0.034,0.753,0.0000000,0.0000000,8120.595,0.000,0.000,0.000,0,00:00:00,-375269,0.000,8120.595,30778.650,-43.449,165.302,0.000,1.083,-13.635,-0.124,0.002,0.004,0.000,0.000,0.000
63.072,3,0,-5.843,1.333,8120.193,-5.930,1.337,154.907,-3.026,0.681,-13.312,25.000,27.000,0.0119160,9140.819,9144.000,0.562,7.915,8362.828,170.402,307.089,-43.548,9003.522,8119.992,-13.616,0.127,1.187,0.028,-0.011,0.014,0.000,0.000,0.000,0.011,0.656,0.033,0.754,0.0000000,0.0000000,8136.374,0.000,0.000,0.000,0,00:00:00,-375269,0.000,8136.374,30706.090,-43.552,163.980,0.000,1.056,-13.597,-0.043,0.007,-0.008,-0.007,0.000,0.000
63.173,3,0,-5.837,1.330,8135.841,-5.916,1.325,153.624,-2.930,0.582,-13.214,25.000,27.000,0.0119160,9140.885,9144.000,0.558,7.967,8379.736,169.081,306.346,-43.653,9019.799,8136.269,-13.507,0.049,1.050,0.010,-0.038,0.012,0.000,0.000,0.000,0.012,0.655,0.033,0.755,0.0000000,0.0000000,8152.017,0.000,0.000,0.000,0,00:00:00,-375269,0.000,8152.017,30635.631,-43.652,162.666,0.000,0.988,-13.408,0.010,0.004,-0.019,0.002,0.000,0.000
63.274,3,0,-5.831,1.326,8151.332,-5.922,1.309,152.339,-3.123,0.532,-13.032,25.000,27.000,0.0119160,9141.156,9144.000,0.554,8.178,8396.514,167.778,305.648,-43.753,9035.118,8151.588,-13.353,0.012,1.247,0.020,-0.015,0.023,0.000,0.000,0.000,0.013,0.654,0.033,0.755,0.0000000,0.0000000,8167.526,0.000,0.000,0.000,0,00:00:00,-375269,0.000,8167.526,30567.205,-43.750,161.359,0.000,1.033,-13.359,0.026,0.006,-0.002,0.004,0.000,0.000
63.375,3,0,-5.825,1.320,8166.643,-5.903,1.297,151.002,-2.881,0.578,-13.180,25.000,27.000,0.0119160,9141.966,9144.000,0.550,8.258,8413.160,166.460,304.965,-43.851,9050.127,8166.596,-13.465,0.026,1.022,-0.036,0.027,-0.016,0.000,0.000,0.000,0.012,0.655,0.034,0.755,0.0000000,0.0000000,8182.902,0.000,0.000,0.000,0,00:00:00,-375269,0.000,8182.902,30497.150,-43.850,160.060,0.000,0.994,-13.312,0.002,-0.001,-0.008,0.008,0.000,0.000
63.476,3,0,-5.817,1.315,8181.844,-5.867,1.297,149.692,-2.698,0.692,-13.095,25.000,27.000,0.0119160,9143.140,9144.000,0.546,8.116,8429.675,165.150,304.268,-43.951,9065.473,8181.942,-13.359,0.122,0.860,-0.023,0.002,0.008,0.000,0.000,0.000,0.011,0.655,0.035,0.755,0.0000000,0.0000000,8198.146,0.000,0.000,0.000,0,00:00:00,-375269,0.000,8198.146,30427.707,-43.949,158.767,0.000,0.932,-13.216,0.046,-0.001,0.022,-0.006,0.000,0.000
63.577,3,0,-5.806,1.310,8196.888,-5.832,1.288,148.367,-2.706,0.599,-13.057,25.000,27.000,0.0119160,9143.847,9144.000,0.541,8.115,8446.060,163.845,303.592,-44.047,9080.371,8196.841,-13.319,0.081,0.871,0.039,-0.000,-0.004,0.000,0.000,0.000,0.012,0.655,0.034,0.755,0.0000000,0.0000000,8213.257,0.000,0.000,0.000,0,00:00:00,-375269,0.000,8213.257,30360.721,-44.045,157.482,0.000,1.030,-13.202,-0.106,-0.005,-0.006,0.014,0.000,0.000
63.678,3,0,-5.794,1.304,8211.793,-5.814,1.276,147.050,-2.867,0.565,-12.930,25.000,27.000,0.0119160,9144.342,9144.000,0.537,8.104,8462.315,162.552,302.920,-44.144,9095.232,8211.701,-13.216,0.053,1.027,0.009,-0.015,-0.000,0.000,0.000,0.000,0.013,0.655,0.033,0.755,0.0000000,0.0000000,8228.236,0.000,0.000,0.000,0,00:00:00,-375269,0.000,8228.236,30293.730,-44.142,156.204,0.000,0.933,-13.092,-0.042,-0.003,0.016,-0.005,0.000,0.000
63.779,3,0,-5.781,1.297,8226.588,-5.793,1.249,145.755,-2.839,0.418,-12.885,25.000,27.000,0.0119160,9144.415,9144.000,0.533,8.184,8478.441,161.263,302.245,-44.241,9110.171,8226.640,-13.163,-0.113,0.990,-0.015,-0.004,0.011,0.000,0.000,0.000,0.012,0.655,0.034,0.755,0.0000000,0.0000000,8243.086,0.000,0.000,0.000,0,00:00:00,-375269,0.000,8243.086,30225.756,-44.239,154.932,0.000,0.996,-13.073,-0.097,-0.018,-0.003,-0.003,0.000,0.000
63.880,3,0,-5.768,1.289,8241.240,-5.768,1.236,144.466,-2.786,0.550,-12.733,25.000,27.000,0.0119160,9144.928,9144.000,0.529,8.212,8494.440,159.990,301.588,-44.336,9124.746,8241.216,-13.008,0.023,0.989,0.002,0.016,0.017,0.000,0.000,0.000,0.013,0.655,0.035,0.755,0.0000000,0.0000000,8257.805,0.000,0.000,0.000,0,00:00:00,-375269,0.000,8257.805,30160.539,-44.333,153.667,0.000,1.086,-13.028,-0.006,-0.007,-0.007,-0.002,0.000,0.000
63.981,3,0,-5.753,1.281,8255.809,-5.745,1.229,143.226,-2.794,0.605,-12.600,35.000,27.000,0.0119160,9145.938,9144.000,0.525,8.121,8510.313,158.730,300.919,-44.433,9139.601,8256.071,-12.884,0.067,0.966,-0.017,-0.039,-0.020,0.000,0.000,0.000,0.012,0.654,0.035,0.756,0.0000000,0.0000000,8272.394,0.000,0.000,0.000,0,00:00:00,-381361,0.000,8272.394,30091.789,-44.433,152.409,0.000,1.062,-12.874,-0.063,-0.004,-0.009,0.011,0.000,0.000
64.082,3,0,-5.737,1.273,8270.218,-5.706,1.218,141.971,-2.630,0.561,-12.462,35.000,27.000,0.0119160,9146.045,9144.000,0.521,8.353,8526.062,157.484,300.282,-44.525,9153.784,8270.254,-12.719,0.067,0.866,0.023,0.033,-0.009,0.000,0.000,0.000,0.012,0.655,0.034,0.755,0.0000000,0.0000000,8286.854,0.000,0.000,0.000,0,00:00:00,-401749,0.000,8286.854,30027.156,-44.526,151.158,0.000,1.028,-12.804,0.029,-0.018,0.015,-0.003,0.000,0.000
64.183,3,0,-5.720,1.264,8284.496,-5.688,1.204,140.671,-2.829,0.528,-12.912,35.000,29.000,0.0119160,9143.537,9144.000,0.517,8.153,8541.681,156.192,299.642,-44.618,9168.054,8284.524,-13.190,0.026,1.017,0.018,0.014,0.013,0.000,0.000,0.000,0.013,0.655,0.033,0.754,0.0000000,0.0000000,8301.185,0.000,0.000,0.000,0,00:00:00,-423909,0.000,8301.185,29965.281,-44.616,149.899,0.000,1.075,-13.020,0.025,-0.009,0.003,0.002,0.000,0.000
64.284,3,0,-5.703,1.255,8298.657,-5.666,1.183,139.410,-2.788,0.446,-12.619,35.000,31.000,0.0119160,9140.354,9144.000,0.513,8.064,8557.174,154.931,299.004,-44.710,9182.300,8298.770,-12.891,-0.035,1.004,0.003,-0.007,-0.021,0.000,0.000,0.000,0.013,0.655,0.033,0.755,0.0000000,0.0000000,8315.384,0.000,0.000,0.000,0,00:00:00,-446088,0.000,8315.384,29900.068,-44.711,148.634,0.000,0.926,-13.073,-0.030,-0.007,-0.003,0.008,0.000,0.000
64.385,3,0,-5.686,1.244,8312.664,-5.655,1.157,138.110,-2.873,0.400,-12.806,35.000,33.000,0.0119160,9137.369,9144.000,0.509,8.101,8572.539,153.650,298.386,-44.800,9196.140,8312.610,-13.091,-0.075,1.018,0.009,-0.032,-0.009,0.000,0.000,0.000,0.013,0.654,0.032,0.756,0.0000000,0.0000000,8329.450,0.000,0.000,0.000,0,00:00:00,-457507,0.000,8329.450,29837.047,-44.802,147.363,0.000,1.033,-13.139,0.064,-0.007,-0.006,-0.009,0.000,0.000
64.486,3,0,-5.669,1.232,8326.535,-5.639,1.138,136.791,-2.824,0.459,-12.968,35.000,35.000,0.0119160,9133.633,9144.000,0.504,8.279,8587.774,152.353,297.768,-44.890,9209.993,8326.463,-13.247,0.014,0.940,0.022,-0.009,-0.005,0.000,0.000,0.000,0.014,0.654,0.031,0.756,0.0000000,0.0000000,8343.386,0.000,0.000,0.000,0,00:00:00,-457481,0.000,8343.386,29775.457,-44.892,146.087,0.000,1.008,-13.142,0.012,-0.016,-0.005,-0.005,0.000,0.000
64.587,3,0,-5.652,1.220,8340.323,-5.614,1.123,135.536,-2.727,0.494,-12.703,35.000,35.000,0.0119160,9133.824,9144.000,0.500,8.322,8602.883,151.083,297.140,-44.982,9224.082,8340.552,-12.974,0.022,0.852,-0.039,-0.022,-0.032,0.000,0.000,0.000,0.011,0.653,0.031,0.757,0.0000000,0.0000000,8357.189,0.000,0.000,0.000,0,00:00:00,-457481,0.000,8357.189,29713.846,-44.982,144.818,0.000,1.113,-13.104,0.096,0.009,-0.001,0.006,0.000,0.000
64.688,3,0,-5.634,1.207,8353.942,-5.606,1.104,134.247,-2.880,0.447,-12.720,35.000,35.000,0.0119160,9134.262,9144.000,0.496,8.459,8617.864,149.811,296.546,-45.069,9237.437,8353.907,-13.012,-0.023,0.996,0.007,-0.002,-0.010,0.000,0.000,0.000,0.011,0.653,0.030,0.757,0.0000000,0.0000000,8370.862,0.000,0.000,0.000,0,00:00:00,-457481,0.000,8370.862,29654.766,-45.069,143.557,0.000,1.039,-13.062,-0.010,0.005,-0.005,0.009,0.000,0.000
64.789,3,0,-5.619,1.194,8367.422,-5.621,1.076,132.967,-3.105,0.349,-12.571,35.000,35.000,0.0119160,9134.778,9144.000,0.492,8.468,8632.719,148.554,295.950,-45.156,9250.863,8367.333,-12.895,-0.117,1.220,0.013,-0.013,0.011,0.000,0.000,0.000,0.012,0.652,0.030,0.757,0.0000000,0.0000000,8384.406,0.000,0.000,0.000,0,00:00:00,-457481,0.000,8384.406,29594.189,-45.157,142.303,0.000,1.037,-12.938,-0.009,0.008,0.002,-0.001,0.000,0.000
64.890,3,0,-5.606,1.180,8380.788,-5.612,1.059,131.672,-2.857,0.457,-12.831,35.000,35.000,0.0119160,9135.069,9144.000,0.488,8.537,8647.446,147.271,295.353,-45.244,9264.325,8380.795,-13.120,-0.013,0.929,-0.012,-0.010,-0.007,0.000,0.000,0.000,0.011,0.652,0.031,0.757,0.0000000,0.0000000,8397.821,0.000,0.000,0.000,0,00:00:00,-457481,0.000,8397.821,29534.189,-45.245,141.056,0.000,1.086,-12.844,-0.015,-0.024,0.016,0.009,0.000,0.000
64.991,3,0,-5.593,1.165,8394.050,-5.597,1.043,130.424,-2.799,0.450,-12.551,35.000,35.000,0.0119160,9135.193,9144.000,0.484,8.596,8662.048,146.016,294.759,-45.331,9277.746,8394.216,-12.834,-0.002,0.918,0.002,0.005,-0.018,0.000,0.000,0.000,0.011,0.652,0.030,0.757,0.0000000,0.0000000,8411.106,0.000,0.000,0.000,0,00:00:00,-457481,0.000,8411.106,29475.891,-45.331,139.815,0.000,1.062,-12.884,0.003,0.002,0.003,0.002,0.000,0.000
65.092,3,0,-5.580,1.151,8407.209,-5.590,1.038,129.182,-2.868,0.555,-12.679,35.000,35.000,0.0119160,9136.097,9144.000,0.480,8.569,8676.522,144.748,294.171,-45.417,9291.050,8407.520,-12.973,0.088,1.000,-0.004,0.021,0.001,0.000,0.000,0.000,0.011,0.653,0.030,0.757,0.0000000,0.0000000,8424.265,0.000,0.000,0.000,0,00:00:00,-457481,0.000,8424.265,29414.301,-45.422,138.582,0.000,1.086,-12.732,-0.033,-0.017,-0.020,0.003,0.000,0.000
65.193,3,0,-5.567,1.137,8420.216,-5.585,1.015,127.928,-2.871,0.374,-12.590,35.000,35.000,0.0119160,9137.356,9144.000,0.476,8.450,8690.871,143.489,293.605,-45.501,9303.892,8420.362,-12.879,-0.088,1.005,-0.000,-0.001,-0.009,0.000,0.000,0.000,0.010,0.653,0.030,0.757,0.0000000,0.0000000,8437.296,0.000,0.000,0.000,0,00:00:00,-457481,0.000,8437.296,29360.783,-45.500,137.355,0.000,1.022,-12.729,0.011,-0.008,-0.010,-0.008,0.000,0.000
65.294,3,0,-5.555,1.122,8433.111,-5.570,1.001,126.718,-2.779,0.448,-12.248,35.000,35.000,0.0119160,9137.932,9144.000,0.472,8.455,8705.098,142.264,293.033,-45.585,9316.866,8433.336,-12.530,0.002,0.974,0.005,0.004,0.013,0.000,0.000,0.000,0.011,0.653,0.030,0.757,0.0000000,0.0000000,8450.199,0.000,0.000,0.000,0,00:00:00,-457481,0.000,8450.199,29304.521,-45.584,136.135,0.000,1.012,-12.660,-0.024,-0.002,-0.008,0.000,0.000,0.000
65.395,3,0,-5.542,1.108,8445.892,-5.543,0.983,125.515,-2.646,0.410,-12.249,35.000,35.000,0.0119160,9139.012,9144.000,0.468,8.428,8719.202,141.039,292.469,-45.669,9329.700,8446.170,-12.507,-0.038,0.879,-0.011,0.031,-0.018,0.000,0.000,0.000,0.010,0.654,0.030,0.756,0.0000000,0.0000000,8462.978,0.000,0.000,0.000,0,00:00:00,-457481,0.000,8462.978,29250.266,-45.664,134.922,0.000,1.004,-12.559,-0.020,0.006,-0.006,0.001,0.000,0.000
65.496,3,0,-5.529,1.094,8458.509,-5.535,0.979,124.272,-2.830,0.532,-12.333,35.000,35.000,0.0119160,9140.619,9144.000,0.464,8.251,8733.182,139.806,291.926,-45.749,9342.057,8458.527,-12.623,0.052,1.025,-0.011,-0.024,0.020,0.000,0.000,0.000,0.010,0.653,0.031,0.756,0.0000000,0.0000000,8475.629,0.000,0.000,0.000,0,00:00:00,-457481,0.000,8475.629,29191.869,-45.750,133.714,0.000,1.110,-12.481,-0.008,-0.006,0.022,-0.005,0.000,0.000
65.597,3,0,-5.516,1.081,8470.991,-5.524,0.981,123.040,-2.791,0.587,-12.136,35.000,35.000,0.0119160,9140.607,9144.000,0.460,8.392,8747.041,138.592,291.382,-45.830,9354.477,8470.947,-12.425,0.130,1.013,0.002,-0.003,-0.045,0.000,0.000,0.000,0.009,0.653,0.029,0.756,0.0000000,0.0000000,8488.156,0.000,0.000,0.000,0,00:00:00,-457481,0.000,8488.156,29141.562,-45.825,132.514,0.000,1.020,-12.511,-0.032,0.002,0.009,0.002,0.000,0.000
65.698,3,0,-5.504,1.068,8483.311,-5.520,0.954,121.783,-2.853,0.295,-12.110,35.000,35.000,0.0119160,9141.084,9144.000,0.456,8.409,8760.779,137.381,290.853,-45.908,9366.558,8483.028,-12.399,-0.088,1.067,0.067,-0.001,0.016,0.000,0.000,0.000,0.012,0.653,0.027,0.756,0.0000000,0.0000000,8500.559,0.000,0.000,0.000,0,00:00:00,-457481,0.000,8500.559,29083.350,-45.911,131.320,0.000,1.075,-12.436,0.016,-0.020,0.005,-0.001,0.000,0.000
65.799,3,0,-5.493,1.054,8495.497,-5.524,0.935,120.522,-2.928,0.369,-12.098,35.000,35.000,0.0119160,9141.320,9144.000,0.452,8.393,8774.397,136.171,290.322,-45.987,9378.710,8495.180,-12.401,-0.012,1.128,0.000,-0.014,-0.018,0.000,0.000,0.000,0.011,0.653,0.027,0.757,0.0000000,0.0000000,8512.837,0.000,0.000,0.000,0,00:00:00,-457481,0.000,8512.837,29035.078,-45.983,130.131,0.000,1.061,-12.411,0.089,-0.004,-0.006,-0.007,0.000,0.000
65.900,3,0,-5.482,1.040,8507.556,-5.518,0.921,119.265,-2.819,0.401,-12.062,35.000,35.000,0.0119160,9141.146,9144.000,0.448,8.473,8787.893,134.965,289.796,-46.066,9390.762,8507.232,-12.356,0.008,0.963,-0.027,-0.050,-0.037,0.000,0.000,0.000,0.009,0.651,0.026,0.759,0.0000000,0.0000000,8524.992,0.000,0.000,0.000,0,00:00:00,-457481,0.000,8524.992,28978.297,-46.068,128.950,0.000,0.966,-12.438,-0.050,0.009,0.020,0.003,0.000,0.000
66.001,3,0,-5.473,1.026,8517.815,-5.518,0.909,116.759,-2.881,0.423,-12.047,35.000,35.000,0.0119160,9140.220,9144.000,0.444,8.769,8801.269,133.760,289.796,-46.066,9390.762,8507.232,-12.356,0.008,0.963,-0.027,-0.050,-0.037,0.000,0.000,0.000,0.007,0.649,0.026,0.760,0.0000000,0.0000000,8524.992,0.000,0.000,0.000,0,00:00:00,-457481,0.000,8524.992,28978.297,-46.068,128.950,0.000,0.966,-12.438,-0.050,0.009,0.020,0.003,0.000,0.000
66.102,3,0,-5.464,1.013,8526.419,-5.525,0.900,113.208,-2.943,0.445,-12.031,15.000,35.000,0.0119160,9125.763,9144.000,0.440,9.064,8814.525,132.557,289.796,-46.066,9390.762,8507.232,-12.356,0.008,0.963,-0.027,-0.050,-0.037,0.000,0.000,0.000,0.005,0.647,0.025,0.762,0.0000000,0.0000000,8524.992,0.000,0.000,0.000,0,00:00:00,-457481,0.000,8524.992,28978.297,-46.068,128.950,0.000,0.966,-12.438,-0.050,0.009,0.020,0.003,0.000,0.000
66.203,3,0,-5.458,1.000,8533.509,-5.539,0.894,108.794,-3.006,0.467,-12.015,0.000,35.000,0.0119160,9100.335,9144.000,0.436,9.359,8827.660,131.356,289.796,-46.066,9390.762,8507.232,-12.356,0.008,0.963,-0.027,-0.050,-0.037,0.000,0.000,0.000,0.003,0.645,0.025,0.764,0.0000000,0.0000000,8524.992,0.000,0.000,0.000,0,00:00:00,-457481,0.000,8524.992,28978.297,-46.068,128.950,0.000,0.966,-12.438,-0.050,0.009,0.020,0.003,0.000,0.000
66.304,3,0,-5.453,0.987,8545.905,-5.550,0.878,108.710,-2.979,0.364,-11.694,0.000,35.000,0.0119160,9066.402,9144.000,0.432,9.653,8840.679,130.186,287.722,-46.376,9438.441,8554.910,-12.034,-0.080,0.965,0.002,-0.018,-0.002,0.000,0.000,0.000,0.003,0.644,0.024,0.764,0.0000000,0.0000000,8572.386,0.000,0.000,0.000,0,00:00:00,-457481,0.000,8572.386,28772.234,-46.376,124.282,0.000,0.908,-12.113,0.015,0.015,0.001,0.007,0.000,0.000
66.405,3,0,-5.450,0.974,8556.557,-5.563,0.863,107.329,-3.000,0.361,-11.689,0.000,35.000,0.0119160,9077.782,9144.000,0.429,9.757,8853.581,129.018,287.722,-46.376,9438.441,8554.910,-12.034,-0.080,0.965,0.002,-0.018,-0.002,0.000,0.000,0.000,0.003,0.644,0.024,0.765,0.0000000,0.0000000,8572.386,0.000,0.000,0.000,0,00:00:00,-457481,0.000,8572.386,28772.234,-46.376,124.282,0.000,0.908,-12.113,0.015,0.015,0.001,0.007,0.000,0.000
66.506,3,0,-5.448,0.961,8568.779,-5.577,0.862,107.222,-2.997,0.499,-11.722,0.000,35.000,0.0119160,9075.845,9144.000,0.425,9.861,8866.365,127.845,286.739,-46.524,9461.155,8577.625,-12.071,0.085,0.961,0.025,-0.001,0.001,0.000,0.000,0.000,0.004,0.644,0.024,0.765,0.0000000,0.0000000,8595.354,0.000,0.000,0.000,0,00:00:00,-457481,0.000,8595.354,28675.537,-46.521,121.984,0.000,1.023,-12.022,-0.026,0.002,-0.001,0.005,0.000,0.000
