State - Time (s),State - Stage,State - Stage,State - PX (m),State - PY (m),State - PZ (m),State - VX (m/s),State - VY (m/s),State - VZ (m/s),State - AX (m/s/s),State - AY (m/s/s),State - AZ (m/s/s),State - Actuation Angle (deg),State - Acutal Angle (deg),State - CdA,State - Est Apo (m),State - Target Apogee (m),State - Mach Number,State - Tilt [deg],MockBarometer - Pres (hPa),MockBarometer - Temp (C),MockBarometer - Alt ASL (m),MockBarometer - Alt AGL (m),MockIMU - AccX (m/s^2),MockIMU - AccY (m/s^2),MockIMU - AccZ (m/s^2),MockIMU - GyroX (rad/s),MockIMU - GyroY (rad/s),MockIMU - GyroZ (rad/s),MockIMU - MagX (uT),MockIMU - MagY (uT),MockIMU - MagZ (uT),MockIMU - OriX,MockIMU - OriY,MockIMU - OriZ,MockIMU - OriW,MockGPS - Lat,MockGPS - Lon,MockGPS - Alt (m),MockGPS - Disp X (m),MockGPS - Disp Y (m),MockGPS - Disp Z (m),MockGPS - Fix Quality,MockGPS - Time of Day,E5 - Rel Steps,BR - Battery Voltage (V),BR - ALT (m),BR - PRES (Pa),BR - TEMP (C),BR - VEL (m/s),BR - ANG (deg),BR - ACCX (m/s^2),BR - ACCY (m/s^2),BR - ACCZ (m/s^2),BR - GYROX (rad/s),BR - GYROY (rad/s),BR - GYROZ (rad/s),BR - ROLL (deg),BR - TILT (deg),
21.428,1,0,-1.254,0.541,-10.744,-0.936,0.246,-2.005,3.179,-3.110,96.622,0.000,0.000,0.0103675,0.000,7500.000,0.039,2.234,1013.060,15.040,1.585,1.656,96.723,0.241,0.269,0.006,0.033,-0.005,0.000,0.000,0.000,-0.012,0.694,0.013,0.719,0.0000000,0.0000000,1.451,0.000,0.000,0.000,0,00:00:00,0,0.000,0.000,0.000,0.000,0.000,0.000,0.000,0.000,0.000,0.000,0.000,0.000,0.000,0.000
21.529,1,0,-1.206,0.497,-8.756,-0.583,-0.089,9.023,2.860,-3.054,96.634,0.000,0.000,0.0103675,0.000,7500.000,0.007,2.044,1013.060,15.040,1.585,1.656,96.723,0.241,0.269,0.006,0.033,-0.005,0.000,0.000,0.000,-0.012,0.695,0.012,0.718,0.0000000,0.0000000,1.451,0.000,0.000,0.000,0,00:00:00,0,0.000,0.000,0.000,0.000,0.000,0.000,0.000,0.000,0.000,0.000,0.000,0.000,0.000,0.000
21.630,1,0,-1.129,0.428,-5.324,-0.197,-0.414,20.489,3.230,-2.994,98.594,0.000,0.000,0.0103675,0.000,7500.000,0.027,1.854,1012.411,14.999,6.986,7.058,98.692,0.170,0.158,0.019,-0.019,-0.017,0.000,0.000,0.000,-0.012,0.695,0.011,0.719,0.0000000,0.0000000,7.305,0.000,0.000,0.000,0,00:00:00,0,0.000,0.000,0.000,0.000,0.000,0.000,0.000,0.000,0.000,0.000,0.000,0.000,0.000,0.000
21.731,1,0,-1.024,0.334,-0.714,0.170,-0.750,32.055,3.098,-3.143,99.475,0.000,0.000,0.0103675,0.000,7500.000,0.060,1.965,1011.846,14.974,11.688,11.760,99.572,-0.092,0.345,0.014,-0.002,0.000,0.000,0.000,0.000,-0.011,0.695,0.010,0.719,0.0000000,0.0000000,11.727,0.000,0.000,0.000,0,00:00:00,0,0.000,0.000,0.000,0.000,0.000,0.000,0.000,0.000,0.000,0.000,0.000,0.000,0.000,0.000
21.832,1,0,-0.897,0.220,5.016,0.498,-1.054,43.668,2.779,-2.903,100.325,0.000,0.000,0.0103675,0.000,7500.000,0.094,1.979,1011.197,14.939,17.096,17.168,100.404,-0.029,0.573,0.020,0.012,-0.003,0.000,0.000,0.000,-0.011,0.695,0.010,0.719,0.0000000,0.0000000,17.158,0.000,0.000,0.000,0,00:00:00,0,0.000,0.000,0.000,0.000,0.000,0.000,0.000,0.000,0.000,0.000,0.000,0.000,0.000,0.000
21.933,1,0,-0.752,0.089,11.860,0.831,-1.359,55.339,2.898,-2.968,101.382,0.000,0.000,0.0103675,0.000,7500.000,0.129,1.910,1010.423,14.895,23.549,23.620,101.466,0.075,0.355,-0.014,0.013,-0.003,0.000,0.000,0.000,-0.011,0.696,0.010,0.718,0.0000000,0.0000000,23.608,0.000,0.000,0.000,0,00:00:00,0,0.000,0.000,0.000,0.000,0.000,0.000,0.000,0.000,0.000,0.000,0.000,0.000,0.000,0.000
22.034,1,0,-0.592,-0.056,19.829,1.122,-1.639,67.058,2.571,-2.805,102.286,0.000,0.000,0.0103675,0.000,7500.000,0.163,1.833,1009.512,14.846,31.154,31.225,102.355,0.011,0.442,0.025,0.027,-0.011,0.000,0.000,0.000,-0.011,0.697,0.009,0.717,0.0000000,0.0000000,31.085,0.000,0.000,0.000,0,00:00:00,0,0.000,0.000,0.000,0.000,0.000,0.000,0.000,0.000,0.000,0.000,0.000,0.000,0.000,0.000
22.135,1,0,-0.421,-0.213,28.887,1.402,-1.911,78.799,2.548,-2.799,103.231,0.000,0.000,0.0103675,0.000,7500.000,0.198,1.682,1008.499,14.790,39.609,39.680,103.299,-0.131,0.337,0.017,0.015,0.007,0.000,0.000,0.000,-0.010,0.697,0.008,0.717,0.0000000,0.0000000,39.598,0.000,0.000,0.000,0,00:00:00,0,0.000,0.000,0.000,0.000,0.000,0.000,0.000,0.000,0.000,0.000,0.000,0.000,0.000,0.000
22.236,1,0,-0.242,-0.379,39.040,1.641,-2.147,90.556,2.240,-2.536,104.108,0.000,0.000,0.0103675,0.000,7500.000,0.232,1.597,1007.354,14.727,49.175,49.246,104.162,-0.064,0.397,0.020,0.027,-0.037,0.000,0.000,0.000,-0.011,0.698,0.006,0.716,0.0000000,0.0000000,49.157,0.000,0.000,0.000,0,00:00:00,0,0.000,0.000,0.000,0.000,0.000,0.000,0.000,0.000,0.000,0.000,0.000,0.000,0.000,0.000
22.337,1,0,-0.058,-0.550,50.243,1.882,-2.370,102.295,2.358,-2.501,104.978,0.000,0.000,0.0103675,0.000,7500.000,0.267,1.442,1006.120,14.659,59.501,59.573,105.033,0.184,0.286,-0.019,0.002,-0.017,0.000,0.000,0.000,-0.012,0.698,0.006,0.716,0.0000000,0.0000000,59.771,0.000,0.000,0.000,0,00:00:00,0,0.000,0.000,0.000,0.000,0.000,0.000,0.000,0.000,0.000,0.000,0.000,0.000,0.000,0.000
22.438,1,0,0.127,-0.727,62.570,2.046,-2.612,114.090,1.684,-2.780,106.022,0.000,0.000,0.0103675,0.000,7500.000,0.301,1.431,1004.696,14.580,71.422,71.494,106.071,-0.066,0.462,-0.000,0.050,-0.003,0.000,0.000,0.000,-0.012,0.700,0.006,0.714,0.0000000,0.0000000,71.447,0.000,0.000,0.000,0,00:00:00,0,0.000,0.000,0.000,0.000,0.000,0.000,0.000,0.000,0.000,0.000,0.000,0.000,0.000,0.000
22.539,1,0,0.309,-0.909,76.053,2.204,-2.854,125.935,1.735,-2.875,106.807,0.000,0.000,0.0103675,0.000,7500.000,0.336,1.147,1003.116,14.498,84.664,84.736,106.860,-0.087,0.266,-0.005,0.015,-0.011,0.000,0.000,0.000,-0.013,0.700,0.006,0.714,0.0000000,0.0000000,84.197,0.000,0.000,0.000,0,00:00:00,0,0.000,0.000,0.000,0.000,0.000,0.000,0.000,0.000,0.000,0.000,0.000,0.000,0.000,0.000
22.640,1,0,0.490,-1.095,90.520,2.377,-3.091,137.715,1.971,-2.923,107.770,0.000,0.000,0.0103675,0.000,7500.000,0.371,1.058,1001.552,14.406,97.798,97.870,107.828,0.049,0.168,-0.015,-0.011,-0.025,0.000,0.000,0.000,-0.014,0.700,0.006,0.714,0.0000000,0.0000000,98.027,0.000,0.000,0.000,0,00:00:00,0,0.000,0.000,0.000,0.000,0.000,0.000,0.000,0.000,0.000,0.000,0.000,0.000,0.000,0.000
22.741,1,0,0.667,-1.286,106.062,2.502,-3.321,149.496,1.581,-2.954,108.665,0.000,0.000,0.0103675,0.000,7500.000,0.406,1.118,999.790,14.311,112.605,112.676,108.715,0.073,0.435,-0.003,0.013,-0.016,0.000,0.000,0.000,-0.015,0.701,0.005,0.713,0.0000000,0.0000000,112.947,0.000,0.000,0.000,0,00:00:00,0,0.000,0.000,0.000,0.000,0.000,0.000,0.000,0.000,0.000,0.000,0.000,0.000,0.000,0.000
22.842,1,0,0.840,-1.478,122.786,2.644,-3.512,161.351,1.847,-2.665,109.489,0.000,0.000,0.0103675,0.000,7500.000,0.441,1.041,997.811,14.204,129.262,129.333,109.537,0.175,0.329,0.018,-0.012,-0.044,0.000,0.000,0.000,-0.015,0.700,0.003,0.714,0.0000000,0.0000000,128.965,0.000,0.000,0.000,0,00:00:00,0,0.000,0.000,0.000,0.000,0.000,0.000,0.000,0.000,0.000,0.000,0.000,0.000,0.000,0.000
22.943,1,0,1.009,-1.668,140.539,2.767,-3.682,173.158,1.749,-2.564,110.281,0.000,0.000,0.0103675,0.000,7500.000,0.476,1.113,995.832,14.092,145.951,146.022,110.324,0.113,0.466,0.016,-0.001,-0.031,0.000,0.000,0.000,-0.016,0.700,0.001,0.714,0.0000000,0.0000000,146.090,0.000,0.000,0.000,0,00:00:00,0,0.000,0.000,0.000,0.000,0.000,0.000,0.000,0.000,0.000,0.000,0.000,0.000,0.000,0.000
23.044,1,0,1.174,-1.858,159.388,2.905,-3.883,184.965,1.984,-2.959,111.033,0.000,0.000,0.0103675,0.000,7500.000,0.511,1.123,993.673,13.975,164.186,164.258,111.090,-0.012,0.257,-0.023,-0.001,0.010,0.000,0.000,0.000,-0.016,0.700,0.002,0.714,0.0000000,0.0000000,164.330,0.000,0.000,0.000,0,00:00:00,0,0.000,0.000,0.000,0.000,0.000,0.000,0.000,0.000,0.000,0.000,0.000,0.000,0.000,0.000
23.145,1,0,1.335,-2.047,179.429,3.029,-4.069,196.852,1.936,-2.920,111.852,0.000,0.000,0.0103675,0.000,7500.000,0.546,1.125,991.308,13.847,184.201,184.272,111.906,-0.086,0.298,0.012,0.002,-0.007,0.000,0.000,0.000,-0.016,0.700,0.002,0.714,0.0000000,0.0000000,183.693,0.000,0.000,0.000,0,00:00:00,0,0.000,0.000,0.000,0.000,0.000,0.000,0.000,0.000,0.000,0.000,0.000,0.000,0.000,0.000
23.246,1,0,1.492,-2.235,200.518,3.136,-4.222,208.724,1.835,-2.689,112.882,0.000,0.000,0.0103675,0.000,7500.000,0.581,1.113,988.935,13.710,204.316,204.388,112.928,0.019,0.415,0.013,0.001,-0.016,0.000,0.000,0.000,-0.016,0.700,0.001,0.714,0.0000000,0.0000000,204.187,0.000,0.000,0.000,0,00:00:00,0,0.000,0.000,0.000,0.000,0.000,0.000,0.000,0.000,0.000,0.000,0.000,0.000,0.000,0.000
23.347,1,0,1.645,-2.418,222.740,3.262,-4.371,220.610,2.121,-2.748,113.519,0.000,0.000,0.0103675,0.000,7500.000,0.616,1.111,986.368,13.570,226.120,226.192,113.571,0.185,0.358,-0.019,-0.019,-0.002,0.000,0.000,0.000,-0.017,0.699,0.001,0.715,0.0000000,0.0000000,225.821,0.000,0.000,0.000,0,00:00:00,0,0.000,0.000,0.000,0.000,0.000,0.000,0.000,0.000,0.000,0.000,0.000,0.000,0.000,0.000
23.448,1,0,1.796,-2.599,246.081,3.418,-4.538,232.506,2.489,-3.024,114.268,0.000,0.000,0.0103675,0.000,7500.000,0.651,1.219,983.689,13.420,248.928,248.999,114.335,0.058,0.257,-0.011,-0.022,0.016,0.000,0.000,0.000,-0.017,0.699,0.002,0.715,0.0000000,0.0000000,248.602,0.000,0.000,0.000,0,00:00:00,0,0.000,0.000,0.000,0.000,0.000,0.000,0.000,0.000,0.000,0.000,0.000,0.000,0.000,0.000
23.549,1,0,1.948,-2.779,270.512,3.583,-4.737,244.381,2.657,-3.429,114.895,0.000,0.000,0.0103675,0.000,7500.000,0.687,1.345,980.907,13.261,272.664,272.736,114.977,0.092,0.298,-0.037,-0.017,-0.011,0.000,0.000,0.000,-0.019,0.698,0.003,0.716,0.0000000,0.0000000,272.537,0.000,0.000,0.000,0,00:00:00,0,0.000,0.000,0.000,0.000,0.000,0.000,0.000,0.000,0.000,0.000,0.000,0.000,0.000,0.000
23.650,1,0,2.101,-2.963,292.551,3.759,-4.968,253.571,2.850,-3.849,114.877,0.000,0.000,0.0103675,0.000,7500.000,0.722,1.435,980.907,13.261,272.664,272.736,114.977,0.092,0.298,-0.037,-0.017,-0.011,0.000,0.000,0.000,-0.020,0.697,0.004,0.716,0.0000000,0.0000000,272.537,0.000,0.000,0.000,0,00:00:00,0,0.000,0.000,0.000,0.000,0.000,0.000,0.000,0.000,0.000,0.000,0.000,0.000,0.000,0.000
23.751,1,0,2.254,-3.150,319.495,3.905,-5.211,265.898,2.623,-4.059,116.580,0.000,0.000,0.0103675,0.000,7500.000,0.749,1.524,974.918,12.928,323.956,324.027,116.680,0.098,0.348,-0.013,0.018,0.023,0.000,0.000,0.000,-0.020,0.698,0.005,0.716,0.0000000,0.0000000,323.901,0.000,0.000,0.000,0,00:00:00,0,0.000,0.000,0.000,0.000,0.000,0.000,0.000,0.000,0.000,0.000,0.000,0.000,0.000,0.000
23.852,1,0,2.407,-3.342,347.578,4.055,-5.432,278.219,2.754,-3.944,117.337,0.000,0.000,0.0103675,0.000,7500.000,0.786,1.417,971.729,12.746,351.367,351.438,117.434,0.168,0.452,0.007,-0.020,0.050,0.000,0.000,0.000,-0.018,0.697,0.007,0.716,0.0000000,0.0000000,351.345,0.000,0.000,0.000,0,00:00:00,0,0.000,0.000,0.000,0.000,0.000,0.000,0.000,0.000,0.000,0.000,0.000,0.000,0.000,0.000
23.953,1,0,2.560,-3.534,372.796,4.219,-5.635,287.469,2.973,-3.871,117.334,0.000,0.000,0.0103675,0.000,7500.000,0.823,1.534,971.729,12.746,351.367,351.438,117.434,0.168,0.452,0.007,-0.020,0.050,0.000,0.000,0.000,-0.016,0.697,0.008,0.717,0.0000000,0.0000000,351.345,0.000,0.000,0.000,0,00:00:00,0,0.000,0.000,0.000,0.000,0.000,0.000,0.000,0.000,0.000,0.000,0.000,0.000,0.000,0.000
24.054,1,0,2.712,-3.730,403.499,4.347,-5.881,300.253,2.690,-4.399,118.709,0.000,0.000,0.0103675,0.000,7500.000,0.850,1.651,964.942,12.364,409.954,410.025,118.820,-0.171,0.351,-0.012,0.036,0.006,0.000,0.000,0.000,-0.016,0.698,0.009,0.716,0.0000000,0.0000000,409.791,0.000,0.000,0.000,0,00:00:00,0,0.000,0.000,0.000,0.000,0.000,0.000,0.000,0.000,0.000,0.000,0.000,0.000,0.000,0.000
24.155,1,0,2.861,-3.931,435.393,4.472,-6.168,313.019,2.746,-4.905,119.297,0.000,0.000,0.0103675,0.000,7500.000,0.888,1.445,961.337,12.161,441.207,441.279,119.429,-0.186,0.282,-0.040,0.003,-0.010,0.000,0.000,0.000,-0.018,0.698,0.010,0.716,0.0000000,0.0000000,440.806,0.000,0.000,0.000,0,00:00:00,0,0.000,0.000,0.000,0.000,0.000,0.000,0.000,0.000,0.000,0.000,0.000,0.000,0.000,0.000
24.256,1,0,3.007,-4.141,463.925,4.587,-6.491,322.308,2.719,-5.374,119.277,0.000,0.000,0.0103675,0.000,7500.000,0.926,1.427,961.337,12.161,441.207,441.279,119.429,-0.186,0.282,-0.040,0.003,-0.010,0.000,0.000,0.000,-0.020,0.698,0.011,0.716,0.0000000,0.0000000,440.806,0.000,0.000,0.000,0,00:00:00,0,0.000,0.000,0.000,0.000,0.000,0.000,0.000,0.000,0.000,0.000,0.000,0.000,0.000,0.000
24.357,1,0,3.149,-4.363,489.265,4.692,-6.849,328.509,2.692,-5.844,119.256,0.000,0.000,0.0103675,0.000,7500.000,0.954,1.408,961.337,12.161,441.207,441.279,119.429,-0.186,0.282,-0.040,0.003,-0.010,0.000,0.000,0.000,-0.021,0.698,0.012,0.716,0.0000000,0.0000000,440.806,0.000,0.000,0.000,0,00:00:00,0,0.000,0.000,0.000,0.000,0.000,0.000,0.000,0.000,0.000,0.000,0.000,0.000,0.000,0.000
24.458,1,0,3.288,-4.595,525.681,4.804,-7.163,342.724,2.843,-5.521,121.377,0.000,0.000,0.0103675,0.000,7500.000,0.972,1.390,949.823,11.504,541.669,541.740,121.535,-0.010,0.398,0.021,-0.019,0.014,0.000,0.000,0.000,-0.020,0.698,0.012,0.716,0.0000000,0.0000000,541.101,0.000,0.000,0.000,0,00:00:00,0,0.000,0.000,0.000,0.000,0.000,0.000,0.000,0.000,0.000,0.000,0.000,0.000,0.000,0.000
24.559,1,0,3.424,-4.831,563.302,4.912,-7.421,356.817,2.867,-5.098,121.900,0.000,0.000,0.0103675,0.000,7500.000,1.015,1.497,945.702,11.267,577.862,577.934,122.040,0.092,0.242,0.028,0.012,0.002,0.000,0.000,0.000,-0.019,0.698,0.011,0.716,0.0000000,0.0000000,576.968,0.000,0.000,0.000,0,00:00:00,0,0.000,0.000,0.000,0.000,0.000,0.000,0.000,0.000,0.000,0.000,0.000,0.000,0.000,0.000
24.660,1,0,3.558,-5.069,601.985,5.033,-7.691,370.691,3.067,-5.335,122.421,0.000,0.000,0.0103675,0.000,7500.000,1.058,1.432,941.568,11.025,614.303,614.375,122.575,-0.181,0.344,0.005,-0.024,0.008,0.000,0.000,0.000,-0.019,0.697,0.011,0.717,0.0000000,0.0000000,614.064,0.000,0.000,0.000,0,00:00:00,0,0.000,0.000,0.000,0.000,0.000,0.000,0.000,0.000,0.000,0.000,0.000,0.000,0.000,0.000
24.761,1,0,3.690,-5.308,641.837,5.145,-7.930,384.445,3.045,-5.154,122.972,0.000,0.000,0.0103675,0.000,7500.000,1.099,1.568,937.226,10.772,652.716,652.788,123.118,0.087,0.245,-0.005,0.011,-0.003,0.000,0.000,0.000,-0.019,0.698,0.011,0.716,0.0000000,0.0000000,652.393,0.000,0.000,0.000,0,00:00:00,0,0.000,0.000,0.000,0.000,0.000,0.000,0.000,0.000,0.000,0.000,0.000,0.000,0.000,0.000
24.862,1,0,3.819,-5.547,682.824,5.243,-8.179,398.045,2.984,-5.384,123.343,0.000,0.000,0.0103675,0.000,7500.000,1.141,1.505,932.787,10.516,692.135,692.206,123.496,-0.106,0.324,-0.001,-0.001,0.019,0.000,0.000,0.000,-0.018,0.697,0.012,0.716,0.0000000,0.0000000,691.960,0.000,0.000,0.000,0,00:00:00,0,0.000,0.000,0.000,0.000,0.000,0.000,0.000,0.000,0.000,0.000,0.000,0.000,0.000,0.000
24.963,1,0,3.944,-5.786,719.248,5.336,-8.417,407.209,2.989,-5.404,123.342,0.000,0.000,0.0103675,0.000,7500.000,1.181,1.512,932.787,10.516,692.135,692.206,123.496,-0.106,0.324,-0.001,-0.001,0.019,0.000,0.000,0.000,-0.018,0.697,0.013,0.716,0.0000000,0.0000000,691.960,0.000,0.000,0.000,0,00:00:00,0,0.000,0.000,0.000,0.000,0.000,0.000,0.000,0.000,0.000,0.000,0.000,0.000,0.000,0.000
25.064,1,0,4.066,-6.022,763.042,5.424,-8.619,421.309,3.019,-5.162,124.574,0.000,0.000,0.0103675,0.000,7500.000,1.209,1.519,923.463,9.970,775.431,775.503,124.717,-0.008,0.403,0.016,-0.006,0.004,0.000,0.000,0.000,-0.017,0.697,0.012,0.717,0.0000000,0.0000000,774.832,0.000,0.000,0.000,0,00:00:00,0,0.000,0.000,0.000,0.000,0.000,0.000,0.000,0.000,0.000,0.000,0.000,0.000,0.000,0.000
25.165,1,0,4.185,-6.254,807.989,5.516,-8.790,435.257,3.105,-4.988,125.114,0.000,0.000,0.0103675,0.000,7500.000,1.252,1.556,918.650,9.690,818.693,818.765,125.252,-0.000,0.210,0.015,0.009,0.010,0.000,0.000,0.000,-0.016,0.698,0.012,0.716,0.0000000,0.0000000,818.145,0.000,0.000,0.000,0,00:00:00,0,0.000,0.000,0.000,0.000,0.000,0.000,0.000,0.000,0.000,0.000,0.000,0.000,0.000,0.000
25.266,1,0,4.301,-6.477,847.848,5.588,-8.931,444.353,2.982,-4.801,125.124,0.000,0.000,0.0103675,0.000,7500.000,1.294,1.503,918.650,9.690,818.693,818.765,125.252,-0.000,0.210,0.015,0.009,0.010,0.000,0.000,0.000,-0.015,0.698,0.012,0.716,0.0000000,0.0000000,818.145,0.000,0.000,0.000,0,00:00:00,0,0.000,0.000,0.000,0.000,0.000,0.000,0.000,0.000,0.000,0.000,0.000,0.000,0.000,0.000
25.367,1,0,4.414,-6.692,895.570,5.709,-9.039,458.699,3.510,-4.592,125.751,0.000,0.000,0.0103675,0.000,7500.000,1.321,1.450,908.669,9.097,909.005,909.077,125.884,0.019,0.181,0.017,-0.038,-0.003,0.000,0.000,0.000,-0.015,0.697,0.011,0.717,0.0000000,0.0000000,908.550,0.000,0.000,0.000,0,00:00:00,0,0.000,0.000,0.000,0.000,0.000,0.000,0.000,0.000,0.000,0.000,0.000,0.000,0.000,0.000
25.468,1,0,4.528,-6.896,944.435,5.841,-9.139,472.871,3.697,-4.614,126.326,0.000,0.000,0.0103675,0.000,7500.000,1.365,1.670,903.513,8.787,955.968,956.040,126.464,0.030,0.152,-0.001,-0.011,0.010,0.000,0.000,0.000,-0.014,0.696,0.012,0.718,0.0000000,0.0000000,955.650,0.000,0.000,0.000,0,00:00:00,0,0.000,0.000,0.000,0.000,0.000,0.000,0.000,0.000,0.000,0.000,0.000,0.000,0.000,0.000
25.569,1,0,4.643,-7.090,994.535,5.947,-9.250,486.936,3.483,-4.822,126.729,0.000,0.000,0.0103675,0.000,7500.000,1.408,1.736,898.171,8.469,1004.859,1004.930,126.867,0.041,0.522,-0.016,-0.012,0.017,0.000,0.000,0.000,-0.014,0.696,0.013,0.718,0.0000000,0.0000000,1004.020,0.000,0.000,0.000,0,00:00:00,0,0.000,0.000,0.000,0.000,0.000,0.000,0.000,0.000,0.000,0.000,0.000,0.000,0.000,0.000
25.670,1,0,4.756,-7.276,1038.836,6.060,-9.371,495.606,3.626,-5.025,126.717,0.000,0.000,0.0103675,0.000,7500.000,1.450,1.804,898.171,8.469,1004.859,1004.930,126.867,0.041,0.522,-0.016,-0.012,0.017,0.000,0.000,0.000,-0.014,0.695,0.014,0.718,0.0000000,0.0000000,1004.020,0.000,0.000,0.000,0,00:00:00,0,0.000,0.000,0.000,0.000,0.000,0.000,0.000,0.000,0.000,0.000,0.000,0.000,0.000,0.000
25.771,1,0,4.870,-7.457,1077.681,6.182,-9.502,499.544,3.768,-5.228,126.704,0.000,0.000,0.0103675,0.000,7500.000,1.476,1.872,898.171,8.469,1004.859,1004.930,126.867,0.041,0.522,-0.016,-0.012,0.017,0.000,0.000,0.000,-0.014,0.695,0.015,0.719,0.0000000,0.0000000,1004.020,0.000,0.000,0.000,0,00:00:00,0,0.000,0.000,0.000,0.000,0.000,0.000,0.000,0.000,0.000,0.000,0.000,0.000,0.000,0.000
25.872,1,0,4.985,-7.633,1132.736,6.315,-9.627,515.407,3.934,-5.245,127.843,0.000,0.000,0.0103675,0.000,7500.000,1.488,1.940,881.722,7.470,1156.895,1156.966,128.011,0.017,0.343,0.004,0.004,-0.001,0.000,0.000,0.000,-0.014,0.695,0.015,0.719,0.0000000,0.0000000,1156.787,0.000,0.000,0.000,0,00:00:00,0,0.000,0.000,0.000,0.000,0.000,0.000,0.000,0.000,0.000,0.000,0.000,0.000,0.000,0.000
25.973,1,0,5.101,-7.804,1189.027,6.451,-9.765,531.004,4.028,-5.474,127.928,0.000,0.000,0.0103675,0.000,7500.000,1.538,1.917,875.934,7.121,1210.937,1211.009,128.108,0.000,0.297,-0.017,-0.002,-0.026,0.000,0.000,0.000,-0.016,0.695,0.015,0.719,0.0000000,0.0000000,1210.272,0.000,0.000,0.000,0,00:00:00,0,0.000,0.000,0.000,0.000,0.000,0.000,0.000,0.000,0.000,0.000,0.000,0.000,0.000,0.000
26.074,1,0,5.217,-7.970,1246.425,6.545,-9.877,546.304,3.674,-5.298,128.467,0.000,0.000,0.0103675,0.000,7500.000,1.586,1.931,870.128,6.760,1265.442,1265.514,128.628,0.037,0.489,0.013,0.013,0.027,0.000,0.000,0.000,-0.014,0.695,0.015,0.718,0.0000000,0.0000000,1265.043,0.000,0.000,0.000,0,00:00:00,0,0.000,0.000,0.000,0.000,0.000,0.000,0.000,0.000,0.000,0.000,0.000,0.000,0.000,0.000
26.175,1,0,5.328,-8.133,1304.990,6.589,-10.031,561.346,3.245,-5.801,128.728,0.000,0.000,0.0103675,0.000,7500.000,1.632,1.857,864.170,6.392,1321.675,1321.747,128.899,-0.077,0.405,-0.029,0.041,-0.002,0.000,0.000,0.000,-0.015,0.697,0.016,0.717,0.0000000,0.0000000,1321.104,0.000,0.000,0.000,0,00:00:00,0,0.000,0.000,0.000,0.000,0.000,0.000,0.000,0.000,0.000,0.000,0.000,0.000,0.000,0.000
26.276,2,0,5.409,-8.255,1363.512,6.106,-9.327,557.401,-1.936,2.631,-54.627,0.000,0.000,0.0103675,0.000,7500.000,1.678,1.625,858.409,6.037,1376.352,1376.424,-54.723,0.183,0.329,-0.004,-0.009,-0.028,0.000,0.000,0.000,-0.017,0.696,0.015,0.717,0.0000000,0.0000000,1375.701,0.000,0.000,0.000,0,00:00:00,0,0.000,0.000,0.000,0.000,0.000,0.000,0.000,0.000,0.000,0.000,0.000,0.000,0.000,0.000
26.377,2,0,5.438,-8.303,1421.036,5.627,-8.646,553.102,-1.886,2.377,-53.669,0.000,0.000,0.0125439,0.000,7500.000,1.667,1.678,852.769,5.680,1430.173,1430.245,-53.754,-0.012,0.239,0.002,-0.011,-0.036,0.000,0.000,0.000,-0.018,0.696,0.014,0.718,0.0000000,0.0000000,1429.767,0.000,0.000,0.000,0,00:00:00,0,0.000,0.000,0.000,0.000,0.000,0.000,0.000,0.000,0.000,0.000,0.000,0.000,0.000,0.000
26.478,2,0,5.421,-8.284,1477.693,5.148,-7.972,548.594,-1.892,2.316,-52.486,0.000,0.000,0.0125650,0.000,7500.000,1.656,1.742,847.144,5.331,1484.131,1484.203,-52.570,0.059,0.342,0.015,0.012,0.004,0.000,0.000,0.000,-0.017,0.696,0.013,0.717,0.0000000,0.0000000,1483.313,0.000,0.000,0.000,0,00:00:00,0,0.000,0.000,0.000,0.000,0.000,0.000,0.000,0.000,0.000,0.000,0.000,0.000,0.000,0.000
26.579,2,0,5.362,-8.207,1533.443,4.686,-7.334,543.859,-1.751,2.000,-51.349,0.000,0.000,0.0125711,0.000,7500.000,1.643,1.677,841.654,4.982,1537.077,1537.149,-51.416,-0.317,0.259,-0.021,0.004,0.009,0.000,0.000,0.000,-0.017,0.697,0.014,0.717,0.0000000,0.0000000,1536.350,0.000,0.000,0.000,0,00:00:00,0,0.000,0.000,0.000,0.000,0.000,0.000,0.000,0.000,0.000,0.000,0.000,0.000,0.000,0.000
26.680,2,0,5.267,-8.078,1588.371,4.230,-6.690,538.961,-1.748,2.128,-50.383,0.000,0.000,0.0125764,0.000,7500.000,1.630,1.654,836.209,4.639,1589.866,1589.937,-50.458,0.072,0.243,0.044,-0.008,0.009,0.000,0.000,0.000,-0.016,0.696,0.013,0.717,0.0000000,0.0000000,1588.887,0.000,0.000,0.000,0,00:00:00,0,0.000,0.000,0.000,0.000,0.000,0.000,0.000,0.000,0.000,0.000,0.000,0.000,0.000,0.000
26.781,2,0,5.138,-7.904,1642.393,3.763,-6.066,533.829,-1.924,2.022,-49.621,0.000,0.000,0.0125916,0.000,7500.000,1.616,1.702,830.928,4.297,1641.339,1641.411,-49.698,-0.067,0.484,-0.013,0.008,-0.001,0.000,0.000,0.000,-0.016,0.697,0.014,0.717,0.0000000,0.0000000,1640.934,0.000,0.000,0.000,0,00:00:00,0,0.000,0.000,0.000,0.000,0.000,0.000,0.000,0.000,0.000,0.000,0.000,0.000,0.000,0.000
26.882,2,0,4.982,-7.688,1695.662,3.349,-5.442,528.626,-1.477,2.136,-48.557,0.000,0.000,0.0126217,0.000,7500.000,1.602,1.653,825.640,3.959,1693.134,1693.206,-48.626,-0.069,0.108,-0.033,0.009,-0.004,0.000,0.000,0.000,-0.017,0.697,0.015,0.717,0.0000000,0.0000000,1692.500,0.000,0.000,0.000,0,00:00:00,0,0.000,0.000,0.000,0.000,0.000,0.000,0.000,0.000,0.000,0.000,0.000,0.000,0.000,0.000
26.983,2,0,4.801,-7.436,1748.153,2.927,-4.811,523.326,-1.652,2.334,-47.620,0.000,0.000,0.0126488,0.000,7500.000,1.587,1.603,820.469,3.623,1744.054,1744.125,-47.705,0.040,0.280,-0.028,-0.005,-0.015,0.000,0.000,0.000,-0.019,0.697,0.015,0.717,0.0000000,0.0000000,1743.595,0.000,0.000,0.000,0,00:00:00,0,0.000,0.000,0.000,0.000,0.000,0.000,0.000,0.000,0.000,0.000,0.000,0.000,0.000,0.000
27.084,2,0,4.600,-7.151,1799.965,2.520,-4.211,518.014,-1.616,2.174,-46.626,0.000,0.000,0.0126793,0.000,7500.000,1.572,1.633,815.327,3.292,1794.942,1795.014,-46.704,-0.091,0.213,-0.004,-0.013,0.009,0.000,0.000,0.000,-0.019,0.696,0.016,0.717,0.0000000,0.0000000,1794.226,0.000,0.000,0.000,0,00:00:00,0,0.000,0.000,0.000,0.000,0.000,0.000,0.000,0.000,0.000,0.000,0.000,0.000,0.000,0.000
27.185,2,0,4.379,-6.837,1851.113,2.092,-3.604,512.692,-1.934,2.420,-45.752,0.000,0.000,0.0127093,0.000,7500.000,1.557,1.708,810.265,2.963,1845.288,1845.360,-45.853,0.280,0.457,0.018,-0.022,0.012,0.000,0.000,0.000,-0.018,0.695,0.015,0.718,0.0000000,0.0000000,1844.403,0.000,0.000,0.000,0,00:00:00,0,0.000,0.000,0.000,0.000,0.000,0.000,0.000,0.000,0.000,0.000,0.000,0.000,0.000,0.000
27.286,2,0,4.142,-6.500,1901.607,1.716,-3.042,507.336,-1.541,2.147,-45.210,0.000,0.000,0.0127431,0.000,7500.000,1.542,1.837,805.288,2.637,1895.048,1895.120,-45.286,0.015,0.260,-0.003,0.039,0.014,0.000,0.000,0.000,-0.017,0.697,0.016,0.717,0.0000000,0.0000000,1894.133,0.000,0.000,0.000,0,00:00:00,0,0.000,0.000,0.000,0.000,0.000,0.000,0.000,0.000,0.000,0.000,0.000,0.000,0.000,0.000
27.387,2,0,3.894,-6.144,1951.491,1.365,-2.507,502.027,-1.432,2.060,-44.189,0.000,0.000,0.0127869,0.000,7500.000,1.527,1.616,800.368,2.317,1944.476,1944.548,-44.260,-0.002,0.186,0.004,0.003,-0.038,0.000,0.000,0.000,-0.019,0.697,0.014,0.717,0.0000000,0.0000000,1943.424,0.000,0.000,0.000,0,00:00:00,0,0.000,0.000,0.000,0.000,0.000,0.000,0.000,0.000,0.000,0.000,0.000,0.000,0.000,0.000
27.488,2,0,3.637,-5.773,2000.737,0.996,-1.995,496.729,-1.734,2.037,-43.302,0.000,0.000,0.0128268,0.000,7500.000,1.512,1.598,795.555,1.994,1993.072,1993.143,-43.382,0.087,0.435,0.016,-0.017,-0.011,0.000,0.000,0.000,-0.018,0.696,0.014,0.717,0.0000000,0.0000000,1992.284,0.000,0.000,0.000,0,00:00:00,0,0.000,0.000,0.000,0.000,0.000,0.000,0.000,0.000,0.000,0.000,0.000,0.000,0.000,0.000
27.589,2,0,3.371,-5.392,2049.456,0.643,-1.514,491.485,-1.723,1.925,-42.807,0.000,0.000,0.0128670,0.000,7500.000,1.497,1.698,790.749,1.678,2041.826,2041.897,-42.884,-0.046,0.293,-0.010,-0.034,-0.004,0.000,0.000,0.000,-0.019,0.695,0.014,0.719,0.0000000,0.0000000,2040.721,0.000,0.000,0.000,0,00:00:00,0,0.000,0.000,0.000,0.000,0.000,0.000,0.000,0.000,0.000,0.000,0.000,0.000,0.000,0.000
27.690,2,0,3.097,-5.002,2097.636,0.284,-1.035,486.327,-1.931,2.112,-41.847,0.000,0.000,0.0129154,0.000,7500.000,1.482,1.892,786.032,1.360,2089.918,2089.990,-41.942,0.086,0.464,-0.024,-0.016,0.001,0.000,0.000,0.000,-0.020,0.694,0.015,0.719,0.0000000,0.0000000,2088.740,0.000,0.000,0.000,0,00:00:00,0,0.000,0.000,0.000,0.000,0.000,0.000,0.000,0.000,0.000,0.000,0.000,0.000,0.000,0.000
27.791,2,0,2.818,-4.606,2145.296,-0.033,-0.566,481.229,-1.653,2.220,-41.240,0.000,0.000,0.0129607,0.000,7500.000,1.467,1.985,781.382,1.051,2137.563,2137.634,-41.333,0.083,0.150,-0.034,-0.014,-0.004,0.000,0.000,0.000,-0.021,0.694,0.016,0.720,0.0000000,0.0000000,2136.351,0.000,0.000,0.000,0,00:00:00,0,0.000,0.000,0.000,0.000,0.000,0.000,0.000,0.000,0.000,0.000,0.000,0.000,0.000,0.000
27.892,2,0,2.535,-4.206,2192.426,-0.363,-0.138,476.174,-1.938,2.028,-40.677,0.000,0.000,0.0130100,0.000,7500.000,1.452,2.062,776.814,0.742,2184.581,2184.652,-40.772,0.045,0.380,0.031,-0.019,0.005,0.000,0.000,0.000,-0.020,0.693,0.015,0.720,0.0000000,0.0000000,2183.558,0.000,0.000,0.000,0,00:00:00,0,0.000,0.000,0.000,0.000,0.000,0.000,0.000,0.000,0.000,0.000,0.000,0.000,0.000,0.000
27.993,2,0,2.250,-3.806,2239.058,-0.660,0.261,471.199,-1.759,1.954,-39.953,0.000,0.000,0.0130634,0.000,7500.000,1.438,2.171,772.300,0.436,2231.271,2231.342,-40.039,-0.002,0.213,-0.001,-0.005,0.024,0.000,0.000,0.000,-0.019,0.693,0.016,0.720,0.0000000,0.0000000,2230.369,0.000,0.000,0.000,0,00:00:00,0,0.000,0.000,0.000,0.000,0.000,0.000,0.000,0.000,0.000,0.000,0.000,0.000,0.000,0.000
28.094,2,0,1.965,-3.407,2285.237,-0.951,0.634,466.333,-1.844,1.893,-39.203,0.000,0.000,0.0131168,0.000,7500.000,1.424,2.202,767.829,0.130,2277.724,2277.796,-39.291,-0.007,0.291,0.006,-0.010,0.018,0.000,0.000,0.000,-0.018,0.693,0.016,0.721,0.0000000,0.0000000,2276.790,0.000,0.000,0.000,0,00:00:00,0,0.000,0.000,0.000,0.000,0.000,0.000,0.000,0.000,0.000,0.000,0.000,0.000,0.000,0.000
28.195,2,0,1.680,-3.013,2330.969,-1.246,0.996,461.556,-2.042,1.999,-38.650,0.000,0.000,0.0131694,0.000,7500.000,1.410,2.258,763.424,-0.171,2323.720,2323.791,-38.753,0.171,0.405,0.013,-0.028,0.014,0.000,0.000,0.000,-0.017,0.692,0.016,0.722,0.0000000,0.0000000,2322.827,0.000,0.000,0.000,0,00:00:00,0,0.000,0.000,0.000,0.000,0.000,0.000,0.000,0.000,0.000,0.000,0.000,0.000,0.000,0.000
28.296,2,0,1.396,-2.625,2376.314,-1.513,1.302,456.908,-1.908,1.653,-38.039,0.000,0.000,0.0132248,0.000,7500.000,1.396,2.418,759.047,-0.472,2369.625,2369.696,-38.121,-0.225,0.304,-0.021,0.002,0.003,0.000,0.000,0.000,-0.018,0.692,0.017,0.722,0.0000000,0.0000000,2368.487,0.000,0.000,0.000,0,00:00:00,0,0.000,0.000,0.000,0.000,0.000,0.000,0.000,0.000,0.000,0.000,0.000,0.000,0.000,0.000
28.397,2,0,1.114,-2.246,2421.240,-1.779,1.594,452.346,-2.049,1.713,-37.551,0.000,0.000,0.0132808,0.000,7500.000,1.383,2.409,754.756,-0.766,2414.847,2414.919,-37.643,-0.015,0.449,0.034,-0.005,0.009,0.000,0.000,0.000,-0.016,0.692,0.016,0.722,0.0000000,0.0000000,2413.774,0.000,0.000,0.000,0,00:00:00,0,0.000,0.000,0.000,0.000,0.000,0.000,0.000,0.000,0.000,0.000,0.000,0.000,0.000,0.000
28.498,2,0,0.836,-1.876,2465.779,-2.011,1.879,447.911,-1.853,1.834,-36.807,0.000,0.000,0.0133395,0.000,7500.000,1.370,2.438,750.507,-1.058,2459.821,2459.893,-36.898,0.056,0.348,-0.022,0.016,0.014,0.000,0.000,0.000,-0.016,0.692,0.018,0.721,0.0000000,0.0000000,2458.696,0.000,0.000,0.000,0,00:00:00,0,0.000,0.000,0.000,0.000,0.000,0.000,0.000,0.000,0.000,0.000,0.000,0.000,0.000,0.000
28.599,2,0,0.564,-1.516,2509.949,-2.225,2.159,443.589,-1.817,1.973,-36.249,0.000,0.000,0.0133958,0.000,7500.000,1.357,2.344,746.310,-1.353,2504.452,2504.523,-36.346,0.052,0.308,-0.046,-0.007,0.003,0.000,0.000,0.000,-0.018,0.692,0.019,0.721,0.0000000,0.0000000,2503.256,0.000,0.000,0.000,0,00:00:00,0,0.000,0.000,0.000,0.000,0.000,0.000,0.000,0.000,0.000,0.000,0.000,0.000,0.000,0.000
28.700,2,0,0.298,-1.164,2553.751,-2.431,2.405,439.365,-1.891,1.820,-35.769,0.000,0.000,0.0134528,0.000,7500.000,1.345,2.385,742.172,-1.642,2548.656,2548.727,-35.863,-0.048,0.387,0.008,-0.004,0.003,0.000,0.000,0.000,-0.018,0.692,0.019,0.722,0.0000000,0.0000000,2547.461,0.000,0.000,0.000,0,00:00:00,0,0.000,0.000,0.000,0.000,0.000,0.000,0.000,0.000,0.000,0.000,0.000,0.000,0.000,0.000
28.801,2,0,0.039,-0.825,2597.209,-2.621,2.628,435.260,-1.855,1.776,-35.183,0.000,0.000,0.0103675,0.000,7500.000,1.333,2.410,738.076,-1.929,2592.610,2592.682,-35.274,-0.033,0.412,0.009,0.009,0.018,0.000,0.000,0.000,-0.017,0.692,0.019,0.721,0.0000000,0.0000000,2591.316,0.000,0.000,0.000,0,00:00:00,0,0.000,0.000,0.000,0.000,0.000,0.000,0.000,0.000,0.000,0.000,0.000,0.000,0.000,0.000
28.902,2,0,-0.213,-0.498,2634.220,-2.793,2.831,426.648,-1.820,1.748,-35.186,0.000,0.000,0.0105462,0.000,7500.000,1.321,2.357,738.076,-1.929,2592.610,2592.682,-35.274,-0.033,0.412,0.009,0.009,0.018,0.000,0.000,0.000,-0.016,0.693,0.020,0.721,0.0000000,0.0000000,2591.316,0.000,0.000,0.000,0,00:00:00,0,0.000,0.000,0.000,0.000,0.000,0.000,0.000,0.000,0.000,0.000,0.000,0.000,0.000,0.000
29.003,2,0,-0.454,-0.184,2677.463,-2.909,3.008,423.446,-1.386,1.659,-34.108,0.000,0.000,0.0107366,0.000,7500.000,1.295,2.304,730.043,-2.499,2679.384,2679.456,-34.177,0.049,0.006,0.032,-0.004,-0.021,0.000,0.000,0.000,-0.015,0.692,0.018,0.721,0.0000000,0.0000000,2677.996,0.000,0.000,0.000,0,00:00:00,0,0.000,0.000,0.000,0.000,0.000,0.000,0.000,0.000,0.000,0.000,0.000,0.000,0.000,0.000
29.104,2,0,-0.684,0.115,2720.387,-3.052,3.150,420.287,-1.771,1.461,-33.695,0.000,0.000,0.0109066,0.000,7500.000,1.286,2.324,726.094,-2.780,2722.325,2722.396,-33.771,-0.227,0.338,-0.030,-0.019,-0.025,0.000,0.000,0.000,-0.017,0.692,0.018,0.722,0.0000000,0.0000000,2720.830,0.000,0.000,0.000,0,00:00:00,0,0.000,0.000,0.000,0.000,0.000,0.000,0.000,0.000,0.000,0.000,0.000,0.000,0.000,0.000
29.205,2,0,-0.904,0.399,2762.962,-3.172,3.299,417.121,-1.662,1.686,-33.547,0.000,0.000,0.0110688,0.000,7500.000,1.277,2.435,722.213,-3.056,2764.713,2764.785,-33.630,-0.081,0.188,-0.026,-0.014,-0.006,0.000,0.000,0.000,-0.018,0.691,0.019,0.722,0.0000000,0.0000000,2763.334,0.000,0.000,0.000,0,00:00:00,0,0.000,0.000,0.000,0.000,0.000,0.000,0.000,0.000,0.000,0.000,0.000,0.000,0.000,0.000
29.306,2,0,-1.115,0.670,2805.147,-3.286,3.428,413.975,-1.722,1.633,-32.802,0.000,0.000,0.0112282,0.000,7500.000,1.268,2.514,718.408,-3.333,2806.449,2806.521,-32.886,-0.071,0.256,0.009,-0.009,0.024,0.000,0.000,0.000,-0.017,0.691,0.019,0.722,0.0000000,0.0000000,2805.512,0.000,0.000,0.000,0,00:00:00,0,0.000,0.000,0.000,0.000,0.000,0.000,0.000,0.000,0.000,0.000,0.000,0.000,0.000,0.000
29.407,2,0,-1.316,0.926,2847.099,-3.398,3.534,410.937,-1.793,1.541,-32.341,0.000,0.000,0.0113759,0.000,7500.000,1.260,2.563,714.555,-3.607,2848.902,2848.974,-32.426,-0.042,0.267,0.029,-0.024,-0.014,0.000,0.000,0.000,-0.017,0.690,0.018,0.723,0.0000000,0.0000000,2847.368,0.000,0.000,0.000,0,00:00:00,0,0.000,0.000,0.000,0.000,0.000,0.000,0.000,0.000,0.000,0.000,0.000,0.000,0.000,0.000
29.508,2,0,-1.509,1.167,2888.726,-3.509,3.639,407.937,-1.892,1.648,-31.810,0.000,0.000,0.0115168,0.000,7500.000,1.251,2.702,710.804,-3.881,2890.398,2890.469,-31.906,0.178,0.420,0.025,0.011,-0.044,0.000,0.000,0.000,-0.017,0.690,0.015,0.723,0.0000000,0.0000000,2888.907,0.000,0.000,0.000,0,00:00:00,0,0.000,0.000,0.000,0.000,0.000,0.000,0.000,0.000,0.000,0.000,0.000,0.000,0.000,0.000
29.609,2,0,-1.692,1.394,2930.015,-3.599,3.716,404.961,-1.790,1.494,-31.295,0.000,0.000,0.0116505,0.000,7500.000,1.242,2.637,707.108,-4.149,2931.462,2931.533,-31.380,0.034,0.319,-0.003,-0.009,0.024,0.000,0.000,0.000,-0.017,0.690,0.016,0.723,0.0000000,0.0000000,2930.133,0.000,0.000,0.000,0,00:00:00,0,0.000,0.000,0.000,0.000,0.000,0.000,0.000,0.000,0.000,0.000,0.000,0.000,0.000,0.000
29.710,2,0,-1.868,1.605,2970.959,-3.707,3.764,401.950,-2.051,1.326,-31.298,0.000,0.000,0.0117773,0.000,7500.000,1.234,2.686,703.464,-4.417,2972.126,2972.198,-31.389,-0.090,0.509,0.016,-0.024,0.036,0.000,0.000,0.000,-0.015,0.689,0.017,0.724,0.0000000,0.0000000,2971.049,0.000,0.000,0.000,0,00:00:00,0,0.000,0.000,0.000,0.000,0.000,0.000,0.000,0.000,0.000,0.000,0.000,0.000,0.000,0.000
29.811,2,0,-2.035,1.801,3011.632,-3.787,3.809,399.042,-1.855,1.387,-30.510,0.000,0.000,0.0119059,0.000,7500.000,1.225,2.825,699.817,-4.683,3012.982,3013.054,-30.596,0.074,0.376,0.021,0.008,-0.012,0.000,0.000,0.000,-0.014,0.690,0.016,0.724,0.0000000,0.0000000,3011.661,0.000,0.000,0.000,0,00:00:00,0,0.000,0.000,0.000,0.000,0.000,0.000,0.000,0.000,0.000,0.000,0.000,0.000,0.000,0.000
29.912,2,0,-2.194,1.981,3052.016,-3.855,3.819,396.159,-1.831,1.140,-30.279,0.000,0.000,0.0120242,0.000,7500.000,1.217,2.777,696.227,-4.950,3053.385,3053.457,-30.353,-0.138,0.381,0.009,0.005,0.014,0.000,0.000,0.000,-0.014,0.690,0.016,0.724,0.0000000,0.0000000,3051.972,0.000,0.000,0.000,0,00:00:00,0,0.000,0.000,0.000,0.000,0.000,0.000,0.000,0.000,0.000,0.000,0.000,0.000,0.000,0.000
30.013,2,0,-2.343,2.146,3092.063,-3.898,3.836,393.304,-1.658,1.304,-29.645,0.000,0.000,0.0121408,0.000,7500.000,1.209,2.748,692.708,-5.211,3093.134,3093.206,-29.719,0.065,0.255,0.004,0.006,-0.004,0.000,0.000,0.000,-0.014,0.690,0.016,0.723,0.0000000,0.0000000,3091.986,0.000,0.000,0.000,0,00:00:00,0,0.000,0.000,0.000,0.000,0.000,0.000,0.000,0.000,0.000,0.000,0.000,0.000,0.000,0.000
30.114,2,0,-2.481,2.295,3131.832,-3.929,3.829,390.471,-1.609,1.133,-29.501,0.000,0.000,0.0122502,0.000,7500.000,1.201,2.715,689.197,-5.468,3132.965,3133.037,-29.566,-0.082,0.191,0.005,-0.007,-0.007,0.000,0.000,0.000,-0.014,0.690,0.015,0.724,0.0000000,0.0000000,3131.706,0.000,0.000,0.000,0,00:00:00,0,0.000,0.000,0.000,0.000,0.000,0.000,0.000,0.000,0.000,0.000,0.000,0.000,0.000,0.000
30.215,2,0,-2.609,2.429,3165.782,-3.955,3.812,383.504,-1.632,1.115,-29.501,0.000,0.000,0.0123596,0.000,7500.000,1.193,2.757,689.197,-5.468,3132.965,3133.037,-29.566,-0.082,0.191,0.005,-0.007,-0.007,0.000,0.000,0.000,-0.014,0.689,0.015,0.724,0.0000000,0.0000000,3131.706,0.000,0.000,0.000,0,00:00:00,0,0.000,0.000,0.000,0.000,0.000,0.000,0.000,0.000,0.000,0.000,0.000,0.000,0.000,0.000
30.316,2,0,-2.727,2.550,3205.353,-3.974,3.800,381.338,-1.618,1.221,-28.723,0.000,0.000,0.0124801,0.000,7500.000,1.172,2.798,682.333,-5.985,3211.313,3211.385,-28.794,0.049,0.217,-0.003,0.001,-0.015,0.000,0.000,0.000,-0.014,0.690,0.015,0.724,0.0000000,0.0000000,3210.280,0.000,0.000,0.000,0,00:00:00,0,0.000,0.000,0.000,0.000,0.000,0.000,0.000,0.000,0.000,0.000,0.000,0.000,0.000,0.000
30.417,2,0,-2.836,2.657,3244.687,-4.005,3.770,379.194,-1.797,1.100,-28.356,0.000,0.000,0.0125902,0.000,7500.000,1.166,2.791,678.919,-6.241,3250.529,3250.600,-28.431,-0.065,0.421,-0.004,0.003,-0.017,0.000,0.000,0.000,-0.015,0.690,0.014,0.724,0.0000000,0.0000000,3249.141,0.000,0.000,0.000,0,00:00:00,0,0.000,0.000,0.000,0.000,0.000,0.000,0.000,0.000,0.000,0.000,0.000,0.000,0.000,0.000
30.518,2,0,-2.937,2.751,3283.790,-4.022,3.731,377.070,-1.717,1.061,-28.038,0.000,0.000,0.0126961,0.000,7500.000,1.160,2.774,675.536,-6.492,3289.531,3289.603,-28.107,-0.146,0.384,-0.019,0.010,0.018,0.000,0.000,0.000,-0.015,0.690,0.015,0.724,0.0000000,0.0000000,3287.723,0.000,0.000,0.000,0,00:00:00,0,0.000,0.000,0.000,0.000,0.000,0.000,0.000,0.000,0.000,0.000,0.000,0.000,0.000,0.000
30.619,2,0,-3.031,2.832,3322.514,-4.051,3.691,374.854,-1.884,1.087,-27.722,0.000,0.000,0.0127987,0.000,7500.000,1.154,2.719,672.279,-6.742,3327.239,3327.310,-27.802,-0.148,0.511,-0.015,-0.020,-0.006,0.000,0.000,0.000,-0.016,0.689,0.016,0.724,0.0000000,0.0000000,3326.029,0.000,0.000,0.000,0,00:00:00,0,0.000,0.000,0.000,0.000,0.000,0.000,0.000,0.000,0.000,0.000,0.000,0.000,0.000,0.000
30.720,2,0,-3.118,2.903,3360.987,-4.061,3.658,372.650,-1.736,1.200,-27.376,0.000,0.000,0.0128985,0.000,7500.000,1.148,2.832,668.985,-6.994,3365.525,3365.597,-27.454,0.045,0.384,0.024,0.001,0.015,0.000,0.000,0.000,-0.014,0.689,0.015,0.724,0.0000000,0.0000000,3364.062,0.000,0.000,0.000,0,00:00:00,0,0.000,0.000,0.000,0.000,0.000,0.000,0.000,0.000,0.000,0.000,0.000,0.000,0.000,0.000
30.821,2,0,-3.197,2.963,3399.175,-4.072,3.616,370.420,-1.796,1.144,-27.189,0.000,0.000,0.0129950,0.000,7500.000,1.142,2.828,665.744,-7.241,3403.337,3403.408,-27.270,0.025,0.371,0.012,-0.031,0.023,0.000,0.000,0.000,-0.013,0.688,0.016,0.725,0.0000000,0.0000000,3401.825,0.000,0.000,0.000,0,00:00:00,0,0.000,0.000,0.000,0.000,0.000,0.000,0.000,0.000,0.000,0.000,0.000,0.000,0.000,0.000
30.922,2,0,-3.269,3.012,3437.108,-4.065,3.541,368.204,-1.644,0.838,-26.795,0.000,0.000,0.0130909,0.000,7500.000,1.135,3.006,662.523,-7.487,3441.067,3441.139,-26.856,-0.218,0.281,0.016,0.016,-0.014,0.000,0.000,0.000,-0.013,0.689,0.015,0.725,0.0000000,0.0000000,3439.321,0.000,0.000,0.000,0,00:00:00,0,0.000,0.000,0.000,0.000,0.000,0.000,0.000,0.000,0.000,0.000,0.000,0.000,0.000,0.000
31.023,2,0,-3.335,3.051,3474.764,-4.066,3.486,365.980,-1.768,1.061,-26.474,0.000,0.000,0.0131829,0.000,7500.000,1.129,2.914,659.350,-7.731,3478.384,3478.456,-26.550,-0.039,0.437,-0.018,0.004,0.043,0.000,0.000,0.000,-0.012,0.689,0.017,0.725,0.0000000,0.0000000,3476.554,0.000,0.000,0.000,0,00:00:00,0,0.000,0.000,0.000,0.000,0.000,0.000,0.000,0.000,0.000,0.000,0.000,0.000,0.000,0.000
31.124,2,0,-3.392,3.082,3512.093,-4.035,3.442,363.714,-1.479,1.191,-26.125,0.000,0.000,0.0132727,0.000,7500.000,1.123,2.891,656.242,-7.972,3515.081,3515.152,-26.194,0.033,0.066,-0.028,-0.039,0.025,0.000,0.000,0.000,-0.012,0.688,0.019,0.726,0.0000000,0.0000000,3513.526,0.000,0.000,0.000,0,00:00:00,0,0.000,0.000,0.000,0.000,0.000,0.000,0.000,0.000,0.000,0.000,0.000,0.000,0.000,0.000
31.225,2,0,-3.443,3.106,3549.193,-4.036,3.401,361.482,-1.811,1.220,-25.767,0.000,0.000,0.0133599,0.000,7500.000,1.116,3.116,653.112,-8.209,3552.164,3552.236,-25.857,0.094,0.320,0.008,-0.038,0.009,0.000,0.000,0.000,-0.012,0.686,0.019,0.727,0.0000000,0.0000000,3550.240,0.000,0.000,0.000,0,00:00:00,0,0.000,0.000,0.000,0.000,0.000,0.000,0.000,0.000,0.000,0.000,0.000,0.000,0.000,0.000
31.326,2,0,-3.489,3.122,3585.967,-4.035,3.337,359.192,-1.831,1.013,-25.601,0.000,0.000,0.0134447,0.000,7500.000,1.110,3.336,650.073,-8.453,3588.318,3588.390,-25.684,-0.104,0.371,0.000,0.009,-0.007,0.000,0.000,0.000,-0.012,0.686,0.019,0.727,0.0000000,0.0000000,3586.700,0.000,0.000,0.000,0,00:00:00,0,0.000,0.000,0.000,0.000,0.000,0.000,0.000,0.000,0.000,0.000,0.000,0.000,0.000,0.000
31.427,2,0,-3.531,3.133,3622.407,-4.031,3.294,356.840,-1.817,1.222,-25.446,0.000,0.000,0.0103675,0.000,7500.000,1.103,3.282,647.075,-8.687,3624.128,3624.200,-25.538,0.055,0.324,-0.019,-0.019,0.045,0.000,0.000,0.000,-0.011,0.686,0.021,0.727,0.0000000,0.0000000,3622.907,0.000,0.000,0.000,0,00:00:00,0,0.000,0.000,0.000,0.000,0.000,0.000,0.000,0.000,0.000,0.000,0.000,0.000,0.000,0.000
31.528,2,0,-3.569,3.138,3658.622,-4.038,3.243,354.527,-1.946,1.146,-25.126,0.000,0.000,0.0105138,0.000,7500.000,1.097,3.392,644.049,-8.923,3660.400,3660.472,-25.223,-0.031,0.467,-0.009,-0.001,-0.005,0.000,0.000,0.000,-0.012,0.686,0.021,0.727,0.0000000,0.0000000,3658.865,0.000,0.000,0.000,0,00:00:00,0,0.000,0.000,0.000,0.000,0.000,0.000,0.000,0.000,0.000,0.000,0.000,0.000,0.000,0.000
31.629,2,0,-3.603,3.139,3694.567,-4.017,3.210,352.208,-1.690,1.321,-24.931,0.000,0.000,0.0106561,0.000,7500.000,1.090,3.399,641.079,-9.156,3696.126,3696.198,-25.021,0.132,0.225,-0.009,-0.000,0.013,0.000,0.000,0.000,-0.011,0.686,0.022,0.727,0.0000000,0.0000000,3694.575,0.000,0.000,0.000,0,00:00:00,0,0.000,0.000,0.000,0.000,0.000,0.000,0.000,0.000,0.000,0.000,0.000,0.000,0.000,0.000
31.730,2,0,-3.631,3.136,3730.272,-4.003,3.167,349.929,-1.763,1.227,-24.457,0.000,0.000,0.0107961,0.000,7500.000,1.083,3.402,638.128,-9.390,3731.773,3731.844,-24.548,0.055,0.387,-0.001,0.025,0.002,0.000,0.000,0.000,-0.011,0.687,0.022,0.727,0.0000000,0.0000000,3730.042,0.000,0.000,0.000,0,00:00:00,0,0.000,0.000,0.000,0.000,0.000,0.000,0.000,0.000,0.000,0.000,0.000,0.000,0.000,0.000
31.831,2,0,-3.656,3.129,3765.746,-3.976,3.115,347.670,-1.661,1.128,-24.260,0.000,0.000,0.0109302,0.000,7500.000,1.077,3.256,635.202,-9.622,3767.242,3767.313,-24.341,-0.015,0.303,0.008,0.002,0.013,0.000,0.000,0.000,-0.011,0.687,0.022,0.726,0.0000000,0.0000000,3765.267,0.000,0.000,0.000,0,00:00:00,0,0.000,0.000,0.000,0.000,0.000,0.000,0.000,0.000,0.000,0.000,0.000,0.000,0.000,0.000
31.932,2,0,-3.676,3.118,3800.900,-3.966,3.058,345.364,-1.832,1.079,-24.022,0.000,0.000,0.0110622,0.000,7500.000,1.070,3.242,632.360,-9.853,3801.819,3801.890,-24.112,-0.059,0.463,-0.002,-0.009,-0.015,0.000,0.000,0.000,-0.011,0.686,0.022,0.727,0.0000000,0.0000000,3800.252,0.000,0.000,0.000,0,00:00:00,0,0.000,0.000,0.000,0.000,0.000,0.000,0.000,0.000,0.000,0.000,0.000,0.000,0.000,0.000
32.033,2,0,-3.693,3.103,3835.781,-3.944,3.011,343.067,-1.727,1.167,-23.637,0.000,0.000,0.0111920,0.000,7500.000,1.064,3.293,629.524,-10.079,3836.448,3836.519,-23.725,0.011,0.419,-0.017,0.017,-0.021,0.000,0.000,0.000,-0.013,0.687,0.021,0.726,0.0000000,0.0000000,3835.000,0.000,0.000,0.000,0,00:00:00,0,0.000,0.000,0.000,0.000,0.000,0.000,0.000,0.000,0.000,0.000,0.000,0.000,0.000,0.000
32.134,2,0,-3.705,3.085,3870.497,-3.903,2.962,340.833,-1.544,1.136,-23.484,0.000,0.000,0.0113176,0.000,7500.000,1.057,3.199,626.658,-10.304,3871.563,3871.635,-23.561,0.044,0.242,0.024,-0.002,0.012,0.000,0.000,0.000,-0.011,0.687,0.021,0.726,0.0000000,0.0000000,3869.514,0.000,0.000,0.000,0,00:00:00,0,0.000,0.000,0.000,0.000,0.000,0.000,0.000,0.000,0.000,0.000,0.000,0.000,0.000,0.000
32.235,2,0,-3.713,3.064,3904.942,-3.869,2.907,338.583,-1.614,1.068,-23.320,0.000,0.000,0.0114420,0.000,7500.000,1.051,3.207,623.881,-10.529,3905.730,3905.801,-23.397,-0.064,0.386,-0.020,0.029,-0.005,0.000,0.000,0.000,-0.012,0.688,0.022,0.725,0.0000000,0.0000000,3903.796,0.000,0.000,0.000,0,00:00:00,0,0.000,0.000,0.000,0.000,0.000,0.000,0.000,0.000,0.000,0.000,0.000,0.000,0.000,0.000
32.336,2,0,-3.717,3.040,3939.140,-3.823,2.842,336.347,-1.501,0.947,-23.010,0.000,0.000,0.0115653,0.000,7500.000,1.044,3.042,621.121,-10.750,3939.795,3939.867,-23.075,-0.123,0.372,0.021,0.035,0.020,0.000,0.000,0.000,-0.011,0.689,0.022,0.724,0.0000000,0.0000000,3937.848,0.000,0.000,0.000,0,00:00:00,0,0.000,0.000,0.000,0.000,0.000,0.000,0.000,0.000,0.000,0.000,0.000,0.000,0.000,0.000
32.437,2,0,-3.715,3.012,3973.077,-3.766,2.782,334.122,-1.387,0.996,-22.627,0.000,0.000,0.0116856,0.000,7500.000,1.038,2.841,618.401,-10.975,3973.501,3973.573,-22.690,-0.046,0.308,0.004,0.013,-0.001,0.000,0.000,0.000,-0.011,0.690,0.021,0.724,0.0000000,0.0000000,3971.672,0.000,0.000,0.000,0,00:00:00,0,0.000,0.000,0.000,0.000,0.000,0.000,0.000,0.000,0.000,0.000,0.000,0.000,0.000,0.000
32.538,2,0,-3.710,2.982,4006.735,-3.746,2.745,331.866,-1.748,1.195,-22.541,0.000,0.000,0.0118019,0.000,7500.000,1.031,2.763,615.720,-11.195,4006.831,4006.902,-22.630,0.150,0.665,0.001,-0.006,0.023,0.000,0.000,0.000,-0.010,0.690,0.022,0.724,0.0000000,0.0000000,4005.271,0.000,0.000,0.000,0,00:00:00,0,0.000,0.000,0.000,0.000,0.000,0.000,0.000,0.000,0.000,0.000,0.000,0.000,0.000,0.000
32.639,2,0,-3.702,2.951,4040.206,-3.685,2.707,329.669,-1.350,1.184,-22.243,0.000,0.000,0.0119191,0.000,7500.000,1.025,2.797,613.018,-11.410,4040.540,4040.612,-22.313,0.129,0.316,-0.012,0.015,0.010,0.000,0.000,0.000,-0.010,0.690,0.023,0.723,0.0000000,0.0000000,4038.646,0.000,0.000,0.000,0,00:00:00,0,0.000,0.000,0.000,0.000,0.000,0.000,0.000,0.000,0.000,0.000,0.000,0.000,0.000,0.000
32.740,2,0,-3.690,2.920,4073.421,-3.635,2.651,327.457,-1.438,0.978,-22.130,0.000,0.000,0.0120333,0.000,7500.000,1.018,2.712,610.383,-11.628,4073.540,4073.611,-22.195,-0.048,0.402,0.012,-0.002,0.010,0.000,0.000,0.000,-0.009,0.690,0.023,0.723,0.0000000,0.0000000,4071.800,0.000,0.000,0.000,0,00:00:00,0,0.000,0.000,0.000,0.000,0.000,0.000,0.000,0.000,0.000,0.000,0.000,0.000,0.000,0.000
32.841,2,0,-3.674,2.886,4106.422,-3.592,2.602,325.260,-1.508,1.033,-22.047,0.000,0.000,0.0121474,0.000,7500.000,1.012,2.725,607.751,-11.846,4106.599,4106.670,-22.117,0.055,0.512,0.022,0.015,0.011,0.000,0.000,0.000,-0.008,0.691,0.023,0.723,0.0000000,0.0000000,4104.735,0.000,0.000,0.000,0,00:00:00,0,0.000,0.000,0.000,0.000,0.000,0.000,0.000,0.000,0.000,0.000,0.000,0.000,0.000,0.000
32.942,2,0,-3.654,2.850,4139.133,-3.515,2.533,323.038,-1.156,0.811,-21.789,0.000,0.000,0.0122621,0.000,7500.000,1.006,2.638,605.191,-12.058,4138.881,4138.953,-21.833,-0.169,0.159,-0.010,-0.004,-0.005,0.000,0.000,0.000,-0.009,0.690,0.023,0.723,0.0000000,0.0000000,4137.452,0.000,0.000,0.000,0,00:00:00,0,0.000,0.000,0.000,0.000,0.000,0.000,0.000,0.000,0.000,0.000,0.000,0.000,0.000,0.000
33.043,2,0,-3.630,2.813,4171.746,-3.442,2.496,320.930,-1.188,1.113,-21.583,0.000,0.000,0.0123746,0.000,7500.000,0.999,2.659,602.552,-12.271,4172.265,4172.337,-21.643,0.065,0.192,-0.036,-0.005,-0.016,0.000,0.000,0.000,-0.011,0.690,0.023,0.723,0.0000000,0.0000000,4169.955,0.000,0.000,0.000,0,00:00:00,0,0.000,0.000,0.000,0.000,0.000,0.000,0.000,0.000,0.000,0.000,0.000,0.000,0.000,0.000
33.144,2,0,-3.601,2.775,4204.057,-3.381,2.455,318.781,-1.291,1.055,-21.317,0.000,0.000,0.0124861,0.000,7500.000,0.993,2.691,600.051,-12.483,4204.023,4204.094,-21.379,0.061,0.370,0.020,0.030,-0.004,0.000,0.000,0.000,-0.010,0.691,0.022,0.722,0.0000000,0.0000000,4202.244,0.000,0.000,0.000,0,00:00:00,0,0.000,0.000,0.000,0.000,0.000,0.000,0.000,0.000,0.000,0.000,0.000,0.000,0.000,0.000
33.245,2,0,-3.569,2.737,4236.163,-3.312,2.414,316.659,-1.199,1.035,-21.131,0.000,0.000,0.0125957,0.000,7500.000,0.987,2.520,597.526,-12.694,4236.192,4236.263,-21.188,0.070,0.313,0.009,0.012,0.009,0.000,0.000,0.000,-0.009,0.692,0.022,0.722,0.0000000,0.0000000,4234.321,0.000,0.000,0.000,0,00:00:00,0,0.000,0.000,0.000,0.000,0.000,0.000,0.000,0.000,0.000,0.000,0.000,0.000,0.000,0.000
33.346,2,0,-3.535,2.700,4268.053,-3.250,2.381,314.552,-1.244,1.094,-20.971,0.000,0.000,0.0127044,0.000,7500.000,0.981,2.449,595.032,-12.900,4268.071,4268.143,-21.034,0.113,0.306,-0.011,-0.028,0.008,0.000,0.000,0.000,-0.009,0.691,0.023,0.723,0.0000000,0.0000000,4266.189,0.000,0.000,0.000,0,00:00:00,0,0.000,0.000,0.000,0.000,0.000,0.000,0.000,0.000,0.000,0.000,0.000,0.000,0.000,0.000
33.447,2,0,-3.497,2.662,4299.785,-3.180,2.333,312.521,-1.148,0.928,-20.609,0.000,0.000,0.0128127,0.000,7500.000,0.975,2.613,592.532,-13.111,4300.128,4300.199,-20.660,-0.035,0.232,-0.001,0.005,-0.019,0.000,0.000,0.000,-0.010,0.691,0.022,0.723,0.0000000,0.0000000,4297.849,0.000,0.000,0.000,0,00:00:00,0,0.000,0.000,0.000,0.000,0.000,0.000,0.000,0.000,0.000,0.000,0.000,0.000,0.000,0.000
33.548,2,0,-3.457,2.625,4331.210,-3.124,2.306,310.409,-1.262,1.108,-20.654,0.000,0.000,0.0129176,0.000,7500.000,0.969,2.586,590.139,-13.313,4330.924,4330.996,-20.719,0.182,0.341,0.021,-0.004,0.014,0.000,0.000,0.000,-0.009,0.691,0.022,0.723,0.0000000,0.0000000,4329.303,0.000,0.000,0.000,0,00:00:00,0,0.000,0.000,0.000,0.000,0.000,0.000,0.000,0.000,0.000,0.000,0.000,0.000,0.000,0.000
33.649,2,0,-3.418,2.588,4362.435,-3.094,2.272,308.322,-1.497,1.028,-20.505,0.000,0.000,0.0130251,0.000,7500.000,0.962,2.609,587.714,-13.521,4362.235,4362.307,-20.577,0.112,0.573,0.003,-0.003,-0.014,0.000,0.000,0.000,-0.009,0.691,0.022,0.723,0.0000000,0.0000000,4360.553,0.000,0.000,0.000,0,00:00:00,0,0.000,0.000,0.000,0.000,0.000,0.000,0.000,0.000,0.000,0.000,0.000,0.000,0.000,0.000
33.750,2,0,-3.377,2.551,4393.479,-3.035,2.224,306.287,-1.193,0.865,-20.195,0.000,0.000,0.0131327,0.000,7500.000,0.956,2.625,585.305,-13.724,4393.445,4393.517,-20.247,-0.011,0.282,0.010,0.001,-0.005,0.000,0.000,0.000,-0.009,0.691,0.021,0.723,0.0000000,0.0000000,4391.601,0.000,0.000,0.000,0,00:00:00,0,0.000,0.000,0.000,0.000,0.000,0.000,0.000,0.000,0.000,0.000,0.000,0.000,0.000,0.000
33.851,2,0,-3.336,2.512,4424.331,-2.992,2.167,304.288,-1.332,0.750,-19.923,0.000,0.000,0.0132373,0.000,7500.000,0.950,2.619,582.926,-13.927,4424.369,4424.441,-19.976,-0.070,0.423,0.024,-0.005,0.010,0.000,0.000,0.000,-0.008,0.691,0.021,0.723,0.0000000,0.0000000,4422.447,0.000,0.000,0.000,0,00:00:00,0,0.000,0.000,0.000,0.000,0.000,0.000,0.000,0.000,0.000,0.000,0.000,0.000,0.000,0.000
33.952,2,0,-3.295,2.472,4450.685,-2.953,2.106,299.080,-1.341,0.704,-19.924,0.000,0.000,0.0133401,0.000,7500.000,0.945,2.646,582.926,-13.927,4424.369,4424.441,-19.976,-0.070,0.423,0.024,-0.005,0.010,0.000,0.000,0.000,-0.007,0.690,0.020,0.723,0.0000000,0.0000000,4422.447,0.000,0.000,0.000,0,00:00:00,0,0.000,0.000,0.000,0.000,0.000,0.000,0.000,0.000,0.000,0.000,0.000,0.000,0.000,0.000
34.053,2,0,-3.254,2.430,4481.392,-2.911,2.045,297.515,-1.301,0.667,-19.951,0.000,0.000,0.0134506,0.000,7500.000,0.928,2.674,578.283,-14.327,4485.016,4485.088,-20.000,-0.152,0.405,-0.021,0.012,0.021,0.000,0.000,0.000,-0.007,0.691,0.022,0.723,0.0000000,0.0000000,4483.545,0.000,0.000,0.000,0,00:00:00,0,0.000,0.000,0.000,0.000,0.000,0.000,0.000,0.000,0.000,0.000,0.000,0.000,0.000,0.000
34.154,2,0,-3.214,2.387,4511.942,-2.878,2.009,295.979,-1.359,0.904,-19.651,0.000,0.000,0.0103675,0.000,7500.000,0.924,2.610,575.956,-14.524,4515.556,4515.628,-19.714,0.043,0.414,-0.028,-0.033,-0.015,0.000,0.000,0.000,-0.008,0.690,0.022,0.724,0.0000000,0.0000000,4513.799,0.000,0.000,0.000,0,00:00:00,0,0.000,0.000,0.000,0.000,0.000,0.000,0.000,0.000,0.000,0.000,0.000,0.000,0.000,0.000
34.255,2,0,-3.173,2.344,4542.329,-2.835,1.951,294.467,-1.239,0.661,-19.353,0.000,0.000,0.0105168,0.000,7500.000,0.920,2.801,573.652,-14.720,4545.891,4545.963,-19.400,-0.154,0.370,0.018,0.033,0.020,0.000,0.000,0.000,-0.007,0.691,0.022,0.723,0.0000000,0.0000000,4543.859,0.000,0.000,0.000,0,00:00:00,0,0.000,0.000,0.000,0.000,0.000,0.000,0.000,0.000,0.000,0.000,0.000,0.000,0.000,0.000
34.356,2,0,-3.132,2.300,4572.497,-2.769,1.893,292.918,-1.002,0.631,-19.225,0.000,0.000,0.0106616,0.000,7500.000,0.915,2.610,571.400,-14.917,4575.645,4575.716,-19.260,-0.210,0.121,-0.018,-0.009,0.016,0.000,0.000,0.000,-0.007,0.690,0.023,0.723,0.0000000,0.0000000,4573.726,0.000,0.000,0.000,0,00:00:00,0,0.000,0.000,0.000,0.000,0.000,0.000,0.000,0.000,0.000,0.000,0.000,0.000,0.000,0.000
34.457,2,0,-3.090,2.257,4602.515,-2.734,1.876,291.397,-1.272,1.019,-18.983,0.000,0.000,0.0108046,0.000,7500.000,0.911,2.665,569.132,-15.111,4605.699,4605.770,-19.048,0.170,0.391,-0.006,-0.011,0.012,0.000,0.000,0.000,-0.007,0.690,0.024,0.723,0.0000000,0.0000000,4603.401,0.000,0.000,0.000,0,00:00:00,0,0.000,0.000,0.000,0.000,0.000,0.000,0.000,0.000,0.000,0.000,0.000,0.000,0.000,0.000
34.558,2,0,-3.048,2.215,4632.229,-2.693,1.842,289.773,-1.196,0.826,-18.880,0.000,0.000,0.0109449,0.000,7500.000,0.907,2.729,566.967,-15.303,4634.485,4634.556,-18.933,-0.020,0.340,-0.003,0.014,-0.021,0.000,0.000,0.000,-0.008,0.691,0.023,0.723,0.0000000,0.0000000,4632.887,0.000,0.000,0.000,0,00:00:00,0,0.000,0.000,0.000,0.000,0.000,0.000,0.000,0.000,0.000,0.000,0.000,0.000,0.000,0.000
34.659,2,0,-3.006,2.174,4661.777,-2.645,1.807,288.155,-1.110,0.796,-18.801,0.000,0.000,0.0110840,0.000,7500.000,0.902,2.647,564.753,-15.495,4664.014,4664.086,-18.849,-0.033,0.229,0.005,-0.014,-0.019,0.000,0.000,0.000,-0.008,0.690,0.023,0.723,0.0000000,0.0000000,4662.185,0.000,0.000,0.000,0,00:00:00,0,0.000,0.000,0.000,0.000,0.000,0.000,0.000,0.000,0.000,0.000,0.000,0.000,0.000,0.000
34.760,2,0,-2.965,2.134,4691.155,-2.616,1.774,286.543,-1.268,0.802,-18.698,0.000,0.000,0.0112225,0.000,7500.000,0.897,2.728,562.560,-15.686,4693.349,4693.420,-18.754,-0.039,0.408,-0.006,0.008,0.015,0.000,0.000,0.000,-0.008,0.690,0.023,0.723,0.0000000,0.0000000,4691.295,0.000,0.000,0.000,0,00:00:00,0,0.000,0.000,0.000,0.000,0.000,0.000,0.000,0.000,0.000,0.000,0.000,0.000,0.000,0.000
34.861,2,0,-2.925,2.095,4720.305,-2.595,1.752,284.885,-1.330,0.880,-18.671,0.000,0.000,0.0113602,0.000,7500.000,0.893,2.683,560.417,-15.878,4722.107,4722.179,-18.734,0.020,0.442,-0.011,-0.016,0.003,0.000,0.000,0.000,-0.008,0.690,0.024,0.724,0.0000000,0.0000000,4720.220,0.000,0.000,0.000,0,00:00:00,0,0.000,0.000,0.000,0.000,0.000,0.000,0.000,0.000,0.000,0.000,0.000,0.000,0.000,0.000
34.962,2,0,-2.886,2.057,4749.261,-2.558,1.714,283.228,-1.152,0.702,-18.452,0.000,0.000,0.0114984,0.000,7500.000,0.888,2.777,558.279,-16.063,4750.883,4750.954,-18.498,-0.159,0.302,-0.007,0.017,0.009,0.000,0.000,0.000,-0.008,0.690,0.024,0.723,0.0000000,0.0000000,4748.960,0.000,0.000,0.000,0,00:00:00,0,0.000,0.000,0.000,0.000,0.000,0.000,0.000,0.000,0.000,0.000,0.000,0.000,0.000,0.000
35.063,2,0,-2.847,2.020,4778.061,-2.515,1.688,281.589,-1.071,0.811,-18.353,0.000,0.000,0.0116340,0.000,7500.000,0.883,2.684,556.141,-16.251,4779.756,4779.828,-18.400,-0.008,0.219,0.021,-0.006,0.011,0.000,0.000,0.000,-0.007,0.690,0.024,0.723,0.0000000,0.0000000,4777.518,0.000,0.000,0.000,0,00:00:00,0,0.000,0.000,0.000,0.000,0.000,0.000,0.000,0.000,0.000,0.000,0.000,0.000,0.000,0.000
35.164,2,0,-2.810,1.983,4806.665,-2.510,1.650,279.955,-1.433,0.658,-18.069,0.000,0.000,0.0117689,0.000,7500.000,0.878,2.716,554.044,-16.438,4808.162,4808.234,-18.129,-0.117,0.548,0.018,-0.022,-0.050,0.000,0.000,0.000,-0.008,0.689,0.022,0.724,0.0000000,0.0000000,4805.895,0.000,0.000,0.000,0,00:00:00,0,0.000,0.000,0.000,0.000,0.000,0.000,0.000,0.000,0.000,0.000,0.000,0.000,0.000,0.000
35.265,2,0,-2.775,1.946,4835.062,-2.479,1.616,278.301,-1.147,0.695,-17.953,0.000,0.000,0.0119009,0.000,7500.000,0.873,2.840,551.973,-16.624,4836.300,4836.372,-18.000,-0.060,0.287,0.007,0.009,0.023,0.000,0.000,0.000,-0.007,0.690,0.022,0.724,0.0000000,0.0000000,4834.091,0.000,0.000,0.000,0,00:00:00,0,0.000,0.000,0.000,0.000,0.000,0.000,0.000,0.000,0.000,0.000,0.000,0.000,0.000,0.000
35.366,2,0,-2.740,1.910,4863.212,-2.452,1.587,276.576,-1.181,0.717,-18.069,0.000,0.000,0.0120319,0.000,7500.000,0.868,2.787,549.944,-16.807,4863.956,4864.028,-18.119,-0.036,0.302,0.006,-0.008,0.023,0.000,0.000,0.000,-0.006,0.689,0.023,0.724,0.0000000,0.0000000,4862.108,0.000,0.000,0.000,0,00:00:00,0,0.000,0.000,0.000,0.000,0.000,0.000,0.000,0.000,0.000,0.000,0.000,0.000,0.000,0.000
35.467,2,0,-2.706,1.875,4891.193,-2.421,1.571,274.890,-1.110,0.820,-17.711,0.000,0.000,0.0121659,0.000,7500.000,0.863,2.834,547.894,-16.989,4891.967,4892.039,-17.762,0.059,0.314,-0.013,0.036,0.002,0.000,0.000,0.000,-0.006,0.691,0.023,0.723,0.0000000,0.0000000,4889.948,0.000,0.000,0.000,0,00:00:00,0,0.000,0.000,0.000,0.000,0.000,0.000,0.000,0.000,0.000,0.000,0.000,0.000,0.000,0.000
35.568,2,0,-2.673,1.842,4919.028,-2.407,1.550,273.222,-1.271,0.764,-17.706,0.000,0.000,0.0122957,0.000,7500.000,0.858,2.632,545.854,-17.168,4919.943,4920.015,-17.763,-0.008,0.415,-0.005,-0.034,0.003,0.000,0.000,0.000,-0.006,0.689,0.024,0.724,0.0000000,0.0000000,4917.611,0.000,0.000,0.000,0,00:00:00,0,0.000,0.000,0.000,0.000,0.000,0.000,0.000,0.000,0.000,0.000,0.000,0.000,0.000,0.000
35.669,2,0,-2.642,1.811,4946.665,-2.398,1.546,271.539,-1.300,0.910,-17.640,0.000,0.000,0.0124267,0.000,7500.000,0.853,2.825,543.857,-17.350,4947.404,4947.475,-17.703,0.096,0.527,-0.024,0.044,0.002,0.000,0.000,0.000,-0.007,0.691,0.025,0.722,0.0000000,0.0000000,4945.099,0.000,0.000,0.000,0,00:00:00,0,0.000,0.000,0.000,0.000,0.000,0.000,0.000,0.000,0.000,0.000,0.000,0.000,0.000,0.000
35.770,2,0,-2.613,1.781,4974.066,-2.390,1.526,269.824,-1.288,0.742,-17.451,0.000,0.000,0.0125581,0.000,7500.000,0.849,2.578,541.900,-17.526,4974.390,4974.462,-17.506,-0.053,0.532,0.004,0.009,-0.034,0.000,0.000,0.000,-0.008,0.691,0.023,0.722,0.0000000,0.0000000,4972.413,0.000,0.000,0.000,0,00:00:00,0,0.000,0.000,0.000,0.000,0.000,0.000,0.000,0.000,0.000,0.000,0.000,0.000,0.000,0.000
35.871,2,0,-2.586,1.753,5001.272,-2.376,1.505,268.129,-1.226,0.718,-17.093,0.000,0.000,0.0126879,0.000,7500.000,0.843,2.526,539.943,-17.704,5001.453,5001.525,-17.143,-0.021,0.528,0.024,0.024,0.008,0.000,0.000,0.000,-0.007,0.692,0.023,0.721,0.0000000,0.0000000,4999.554,0.000,0.000,0.000,0,00:00:00,0,0.000,0.000,0.000,0.000,0.000,0.000,0.000,0.000,0.000,0.000,0.000,0.000,0.000,0.000
35.972,2,0,-2.560,1.725,5028.295,-2.355,1.487,266.418,-1.140,0.722,-17.151,0.000,0.000,0.0128137,0.000,7500.000,0.838,2.385,538.001,-17.884,5028.401,5028.473,-17.198,0.005,0.453,0.011,0.009,-0.034,0.000,0.000,0.000,-0.008,0.693,0.021,0.721,0.0000000,0.0000000,5026.524,0.000,0.000,0.000,0,00:00:00,0,0.000,0.000,0.000,0.000,0.000,0.000,0.000,0.000,0.000,0.000,0.000,0.000,0.000,0.000
36.073,2,0,-2.534,1.698,5055.233,-2.335,1.456,264.791,-1.131,0.592,-16.978,0.000,0.000,0.0129416,0.000,7500.000,0.833,2.334,536.026,-18.055,5055.877,5055.949,-17.021,-0.054,0.410,0.036,-0.023,-0.006,0.000,0.000,0.000,-0.007,0.692,0.020,0.722,0.0000000,0.0000000,5053.323,0.000,0.000,0.000,0,00:00:00,0,0.000,0.000,0.000,0.000,0.000,0.000,0.000,0.000,0.000,0.000,0.000,0.000,0.000,0.000
36.174,2,0,-2.508,1.671,5081.976,-2.290,1.435,263.147,-0.871,0.668,-16.906,0.000,0.000,0.0130682,0.000,7500.000,0.829,2.464,534.123,-18.232,5082.425,5082.497,-16.940,0.065,0.172,0.022,0.009,0.013,0.000,0.000,0.000,-0.006,0.692,0.019,0.722,0.0000000,0.0000000,5079.953,0.000,0.000,0.000,0,00:00:00,0,0.000,0.000,0.000,0.000,0.000,0.000,0.000,0.000,0.000,0.000,0.000,0.000,0.000,0.000
36.275,2,0,-2.481,1.644,5108.484,-2.264,1.405,261.456,-1.046,0.571,-16.861,0.000,0.000,0.0131949,0.000,7500.000,0.824,2.411,532.259,-18.408,5108.512,5108.583,-16.899,-0.111,0.373,-0.045,0.017,0.001,0.000,0.000,0.000,-0.007,0.693,0.021,0.721,0.0000000,0.0000000,5106.414,0.000,0.000,0.000,0,00:00:00,0,0.000,0.000,0.000,0.000,0.000,0.000,0.000,0.000,0.000,0.000,0.000,0.000,0.000,0.000
36.376,2,0,-2.453,1.617,5134.874,-2.222,1.385,259.815,-0.878,0.655,-16.758,0.000,0.000,0.0133226,0.000,7500.000,0.819,2.321,530.356,-18.576,5135.226,5135.297,-16.792,-0.016,0.221,-0.000,0.008,-0.051,0.000,0.000,0.000,-0.009,0.693,0.019,0.721,0.0000000,0.0000000,5132.708,0.000,0.000,0.000,0,00:00:00,0,0.000,0.000,0.000,0.000,0.000,0.000,0.000,0.000,0.000,0.000,0.000,0.000,0.000,0.000
36.477,2,0,-2.424,1.592,5161.014,-2.171,1.366,258.106,-0.767,0.643,-16.803,0.000,0.000,0.0134500,0.000,7500.000,0.814,2.277,528.536,-18.749,5160.843,5160.915,-16.832,-0.017,0.146,0.009,0.021,0.035,0.000,0.000,0.000,-0.007,0.694,0.020,0.720,0.0000000,0.0000000,5158.836,0.000,0.000,0.000,0,00:00:00,0,0.000,0.000,0.000,0.000,0.000,0.000,0.000,0.000,0.000,0.000,0.000,0.000,0.000,0.000
36.578,2,0,-2.394,1.567,5186.977,-2.143,1.359,256.420,-0.982,0.754,-16.527,0.000,0.000,0.0103675,0.000,7500.000,0.809,2.154,526.698,-18.921,5186.774,5186.845,-16.569,0.131,0.357,0.020,-0.012,0.027,0.000,0.000,0.000,-0.006,0.693,0.020,0.720,0.0000000,0.0000000,5184.799,0.000,0.000,0.000,0,00:00:00,0,0.000,0.000,0.000,0.000,0.000,0.000,0.000,0.000,0.000,0.000,0.000,0.000,0.000,0.000
36.679,2,0,-2.365,1.544,5212.758,-2.129,1.345,254.741,-1.104,0.679,-16.382,0.000,0.000,0.0105260,0.000,7500.000,0.804,2.218,524.882,-19.087,5212.479,5212.551,-16.426,0.043,0.472,-0.008,-0.007,0.033,0.000,0.000,0.000,-0.005,0.693,0.022,0.721,0.0000000,0.0000000,5210.598,0.000,0.000,0.000,0,00:00:00,0,0.000,0.000,0.000,0.000,0.000,0.000,0.000,0.000,0.000,0.000,0.000,0.000,0.000,0.000
36.780,3,0,-2.337,1.521,5238.423,-2.120,1.337,253.102,-1.138,0.713,-16.371,0.000,0.000,0.0106833,0.000,7500.000,0.799,2.260,523.051,-19.256,5238.472,5238.544,-16.418,0.066,0.508,-0.006,-0.000,-0.003,0.000,0.000,0.000,-0.005,0.693,0.022,0.721,0.0000000,0.0000000,5236.234,0.000,0.000,0.000,0,00:00:00,0,0.000,0.000,0.000,0.000,0.000,0.000,0.000,0.000,0.000,0.000,0.000,0.000,0.000,0.000
36.881,3,0,-2.311,1.500,5263.926,-2.101,1.326,251.464,-1.036,0.680,-16.385,70.000,0.000,0.0106833,7727.814,7500.000,0.794,2.261,521.257,-19.422,5263.998,5264.070,-16.426,0.007,0.437,-0.017,0.021,-0.014,0.000,0.000,0.000,-0.006,0.694,0.022,0.720,0.0000000,0.0000000,5261.708,0.000,0.000,0.000,0,00:00:00,0,0.000,0.000,0.000,0.000,0.000,0.000,0.000,0.000,0.000,0.000,0.000,0.000,0.000,0.000
36.982,3,0,-2.285,1.480,5289.239,-2.071,1.314,249.841,-0.903,0.666,-16.051,70.000,0.000,0.0106833,7730.863,7500.000,0.789,2.144,519.495,-19.588,5289.149,5289.221,-16.087,0.044,0.323,0.022,0.004,0.004,0.000,0.000,0.000,-0.005,0.694,0.021,0.720,0.0000000,0.0000000,5287.020,0.000,0.000,0.000,0,00:00:00,0,0.000,0.000,0.000,0.000,0.000,0.000,0.000,0.000,0.000,0.000,0.000,0.000,0.000,0.000
37.083,3,0,-2.258,1.460,5314.361,-2.033,1.286,248.200,-0.807,0.490,-16.027,70.000,0.000,0.0106833,7731.083,7500.000,0.784,2.120,517.751,-19.752,5314.105,5314.177,-16.052,-0.122,0.279,0.004,0.035,-0.017,0.000,0.000,0.000,-0.006,0.695,0.021,0.719,0.0000000,0.0000000,5312.173,0.000,0.000,0.000,0,00:00:00,0,0.000,0.000,0.000,0.000,0.000,0.000,0.000,0.000,0.000,0.000,0.000,0.000,0.000,0.000
37.184,3,0,-2.231,1.440,5339.335,-1.994,1.272,246.580,-0.789,0.615,-15.945,70.000,0.000,0.0106833,7731.253,7500.000,0.779,1.919,516.004,-19.918,5339.183,5339.254,-15.974,-0.076,0.261,-0.052,-0.003,-0.007,0.000,0.000,0.000,-0.008,0.695,0.022,0.719,0.0000000,0.0000000,5337.166,0.000,0.000,0.000,0,00:00:00,0,0.000,0.000,0.000,0.000,0.000,0.000,0.000,0.000,0.000,0.000,0.000,0.000,0.000,0.000
37.285,3,0,-2.202,1.422,5364.211,-1.962,1.284,245.018,-0.844,0.870,-15.855,70.000,0.000,0.0106833,7730.831,7500.000,0.774,1.941,514.247,-20.077,5364.462,5364.534,-15.898,0.132,0.273,-0.032,-0.030,-0.012,0.000,0.000,0.000,-0.010,0.694,0.023,0.720,0.0000000,0.0000000,5362.001,0.000,0.000,0.000,0,00:00:00,0,0.000,0.000,0.000,0.000,0.000,0.000,0.000,0.000,0.000,0.000,0.000,0.000,0.000,0.000
37.386,3,0,-2.174,1.406,5388.888,-1.935,1.284,243.447,-0.869,0.740,-15.626,70.000,0.000,0.0106833,7730.703,7500.000,0.770,2.117,512.555,-20.240,5388.877,5388.949,-15.663,0.052,0.343,0.026,0.024,0.011,0.000,0.000,0.000,-0.008,0.695,0.022,0.719,0.0000000,0.0000000,5386.679,0.000,0.000,0.000,0,00:00:00,0,0.000,0.000,0.000,0.000,0.000,0.000,0.000,0.000,0.000,0.000,0.000,0.000,0.000,0.000
37.487,3,0,-2.145,1.392,5413.438,-1.902,1.288,241.910,-0.804,0.773,-15.514,70.000,0.000,0.0106833,7734.027,7500.000,0.765,1.979,510.845,-20.401,5413.615,5413.687,-15.552,0.040,0.233,-0.033,-0.030,-0.003,0.000,0.000,0.000,-0.010,0.694,0.023,0.720,0.0000000,0.0000000,5411.201,0.000,0.000,0.000,0,00:00:00,0,0.000,0.000,0.000,0.000,0.000,0.000,0.000,0.000,0.000,0.000,0.000,0.000,0.000,0.000
37.588,3,0,-2.117,1.379,5437.816,-1.874,1.290,240.358,-0.837,0.748,-15.553,70.000,0.000,0.0106833,7734.287,7500.000,0.760,2.157,509.172,-20.563,5437.894,5437.966,-15.590,0.052,0.278,0.025,0.008,0.004,0.000,0.000,0.000,-0.008,0.694,0.023,0.720,0.0000000,0.0000000,5435.566,0.000,0.000,0.000,0,00:00:00,0,0.000,0.000,0.000,0.000,0.000,0.000,0.000,0.000,0.000,0.000,0.000,0.000,0.000,0.000
37.689,3,0,-2.089,1.367,5462.006,-1.853,1.277,238.800,-0.894,0.590,-15.362,70.000,0.000,0.0106833,7734.718,7500.000,0.756,2.108,507.522,-20.721,5461.887,5461.959,-15.394,-0.121,0.356,-0.015,0.011,-0.006,0.000,0.000,0.000,-0.009,0.694,0.023,0.719,0.0000000,0.0000000,5459.778,0.000,0.000,0.000,0,00:00:00,0,0.000,0.000,0.000,0.000,0.000,0.000,0.000,0.000,0.000,0.000,0.000,0.000,0.000,0.000
37.790,3,0,-2.061,1.356,5486.072,-1.838,1.289,237.266,-0.929,0.826,-15.381,70.000,0.000,0.0106833,7734.817,7500.000,0.751,2.047,505.858,-20.877,5486.155,5486.227,-15.427,0.085,0.368,-0.018,-0.017,0.006,0.000,0.000,0.000,-0.010,0.694,0.024,0.720,0.0000000,0.0000000,5483.835,0.000,0.000,0.000,0,00:00:00,0,0.000,0.000,0.000,0.000,0.000,0.000,0.000,0.000,0.000,0.000,0.000,0.000,0.000,0.000
37.891,3,0,-2.035,1.347,5509.987,-1.806,1.291,235.747,-0.753,0.730,-15.255,70.000,0.000,0.0106833,7734.589,7500.000,0.747,2.149,504.221,-21.032,5510.095,5510.167,-15.290,-0.033,0.218,-0.020,0.016,-0.011,0.000,0.000,0.000,-0.011,0.694,0.024,0.719,0.0000000,0.0000000,5507.740,0.000,0.000,0.000,0,00:00:00,0,0.000,0.000,0.000,0.000,0.000,0.000,0.000,0.000,0.000,0.000,0.000,0.000,0.000,0.000
37.992,3,0,-2.008,1.339,5533.782,-1.778,1.285,234.265,-0.782,0.642,-15.131,70.000,0.000,0.0106833,7737.871,7500.000,0.742,2.058,502.584,-21.187,5534.092,5534.164,-15.163,-0.068,0.261,0.032,0.006,0.014,0.000,0.000,0.000,-0.009,0.694,0.023,0.719,0.0000000,0.0000000,5531.492,0.000,0.000,0.000,0,00:00:00,0,0.000,0.000,0.000,0.000,0.000,0.000,0.000,0.000,0.000,0.000,0.000,0.000,0.000,0.000
38.093,3,0,-1.981,1.331,5557.370,-1.760,1.294,232.734,-0.868,0.793,-15.188,70.000,0.000,0.0106833,7738.956,7500.000,0.738,2.020,501.003,-21.343,5557.326,5557.398,-15.229,0.088,0.354,0.005,0.005,-0.020,0.000,0.000,0.000,-0.010,0.695,0.023,0.719,0.0000000,0.0000000,5555.093,0.000,0.000,0.000,0,00:00:00,0,0.000,0.000,0.000,0.000,0.000,0.000,0.000,0.000,0.000,0.000,0.000,0.000,0.000,0.000
38.194,3,0,-1.955,1.324,5580.854,-1.739,1.289,231.249,-0.817,0.650,-15.113,70.000,0.000,0.0106833,7738.942,7500.000,0.733,1.988,499.389,-21.499,5581.118,5581.189,-15.146,-0.073,0.292,-0.013,-0.009,0.054,0.000,0.000,0.000,-0.008,0.694,0.025,0.719,0.0000000,0.0000000,5578.544,0.000,0.000,0.000,0,00:00:00,0,0.000,0.000,0.000,0.000,0.000,0.000,0.000,0.000,0.000,0.000,0.000,0.000,0.000,0.000
38.295,3,0,-1.931,1.319,5604.227,-1.734,1.306,229.811,-0.962,0.853,-14.922,70.000,0.000,0.0106833,7739.230,7500.000,0.729,2.043,497.791,-21.650,5604.728,5604.799,-14.970,0.153,0.428,0.011,-0.013,-0.018,0.000,0.000,0.000,-0.009,0.694,0.024,0.720,0.0000000,0.0000000,5601.845,0.000,0.000,0.000,0,00:00:00,0,0.000,0.000,0.000,0.000,0.000,0.000,0.000,0.000,0.000,0.000,0.000,0.000,0.000,0.000
38.396,3,0,-1.907,1.315,5627.346,-1.708,1.320,228.297,-0.752,0.833,-14.874,70.000,0.000,0.0106833,7740.062,7500.000,0.724,2.116,496.275,-21.803,5627.178,5627.249,-14.914,0.119,0.253,-0.014,0.023,0.002,0.000,0.000,0.000,-0.009,0.695,0.024,0.719,0.0000000,0.0000000,5624.997,0.000,0.000,0.000,0,00:00:00,0,0.000,0.000,0.000,0.000,0.000,0.000,0.000,0.000,0.000,0.000,0.000,0.000,0.000,0.000
38.497,3,0,-1.883,1.313,5650.355,-1.683,1.327,226.829,-0.745,0.762,-14.729,70.000,0.000,0.0106833,7742.750,7500.000,0.720,1.987,494.709,-21.952,5650.443,5650.515,-14.764,0.101,0.294,0.034,0.028,0.029,0.000,0.000,0.000,-0.007,0.696,0.024,0.718,0.0000000,0.0000000,5648.001,0.000,0.000,0.000,0,00:00:00,0,0.000,0.000,0.000,0.000,0.000,0.000,0.000,0.000,0.000,0.000,0.000,0.000,0.000,0.000
38.598,3,0,-1.860,1.311,5673.213,-1.668,1.320,225.349,-0.828,0.622,-14.822,70.000,0.000,0.0106833,7743.660,7500.000,0.715,1.821,493.174,-22.103,5673.283,5673.354,-14.852,-0.049,0.415,-0.003,0.031,-0.025,0.000,0.000,0.000,-0.008,0.697,0.023,0.717,0.0000000,0.0000000,5670.858,0.000,0.000,0.000,0,00:00:00,0,0.000,0.000,0.000,0.000,0.000,0.000,0.000,0.000,0.000,0.000,0.000,0.000,0.000,0.000
38.699,3,0,-1.837,1.309,5695.929,-1.649,1.325,223.898,-0.776,0.737,-14.595,70.000,0.000,0.0106833,7744.142,7500.000,0.711,1.644,491.649,-22.252,5696.046,5696.118,-14.630,0.056,0.346,-0.012,-0.020,0.053,0.000,0.000,0.000,-0.006,0.696,0.026,0.717,0.0000000,0.0000000,5693.568,0.000,0.000,0.000,0,00:00:00,0,0.000,0.000,0.000,0.000,0.000,0.000,0.000,0.000,0.000,0.000,0.000,0.000,0.000,0.000
38.800,3,0,-1.815,1.306,5718.491,-1.646,1.310,222.444,-0.922,0.536,-14.565,70.000,0.000,0.0106833,7744.204,7500.000,0.706,1.761,490.145,-22.400,5718.554,5718.625,-14.594,-0.165,0.490,-0.012,0.001,0.008,0.000,0.000,0.000,-0.007,0.696,0.026,0.717,0.0000000,0.0000000,5716.132,0.000,0.000,0.000,0,00:00:00,0,0.000,0.000,0.000,0.000,0.000,0.000,0.000,0.000,0.000,0.000,0.000,0.000,0.000,0.000
38.901,3,0,-1.795,1.303,5740.876,-1.642,1.297,220.972,-0.907,0.555,-14.523,70.000,0.000,0.0106833,7744.254,7500.000,0.702,1.755,488.664,-22.545,5740.762,5740.833,-14.553,-0.150,0.475,-0.003,-0.002,0.008,0.000,0.000,0.000,-0.006,0.696,0.027,0.717,0.0000000,0.0000000,5738.551,0.000,0.000,0.000,0,00:00:00,0,0.000,0.000,0.000,0.000,0.000,0.000,0.000,0.000,0.000,0.000,0.000,0.000,0.000,0.000
39.002,3,0,-1.776,1.299,5763.154,-1.621,1.291,219.537,-0.727,0.625,-14.453,70.000,0.000,0.0106833,7746.593,7500.000,0.698,1.764,487.166,-22.692,5763.287,5763.358,-14.482,-0.064,0.266,0.004,-0.024,0.008,0.000,0.000,0.000,-0.006,0.695,0.027,0.718,0.0000000,0.0000000,5760.826,0.000,0.000,0.000,0,00:00:00,0,0.000,0.000,0.000,0.000,0.000,0.000,0.000,0.000,0.000,0.000,0.000,0.000,0.000,0.000
39.103,3,0,-1.757,1.295,5785.308,-1.603,1.276,218.122,-0.743,0.532,-14.414,70.000,0.000,0.0106833,7746.690,7500.000,0.693,1.901,485.688,-22.835,5785.572,5785.644,-14.439,-0.178,0.301,-0.016,0.016,-0.026,0.000,0.000,0.000,-0.007,0.696,0.027,0.718,0.0000000,0.0000000,5782.957,0.000,0.000,0.000,0,00:00:00,0,0.000,0.000,0.000,0.000,0.000,0.000,0.000,0.000,0.000,0.000,0.000,0.000,0.000,0.000
39.204,3,0,-1.738,1.290,5807.321,-1.585,1.282,216.713,-0.734,0.741,-14.358,70.000,0.000,0.0106833,7747.428,7500.000,0.689,1.813,484.231,-22.980,5807.591,5807.663,-14.393,0.017,0.312,-0.012,0.010,-0.006,0.000,0.000,0.000,-0.008,0.696,0.027,0.717,0.0000000,0.0000000,5804.945,0.000,0.000,0.000,0,00:00:00,0,0.000,0.000,0.000,0.000,0.000,0.000,0.000,0.000,0.000,0.000,0.000,0.000,0.000,0.000
39.305,3,0,-1.720,1.286,5829.189,-1.580,1.270,215.320,-0.858,0.552,-14.174,70.000,0.000,0.0106833,7747.982,7500.000,0.685,1.756,482.789,-23.121,5829.434,5829.506,-14.204,-0.165,0.410,0.001,-0.020,0.015,0.000,0.000,0.000,-0.008,0.695,0.027,0.718,0.0000000,0.0000000,5826.791,0.000,0.000,0.000,0,00:00:00,0,0.000,0.000,0.000,0.000,0.000,0.000,0.000,0.000,0.000,0.000,0.000,0.000,0.000,0.000
39.406,3,0,-1.702,1.282,5850.932,-1.560,1.276,213.927,-0.696,0.732,-14.304,70.000,0.000,0.0106833,7748.195,7500.000,0.681,1.870,481.350,-23.266,5851.282,5851.353,-14.338,0.019,0.234,0.004,-0.010,-0.002,0.000,0.000,0.000,-0.007,0.695,0.027,0.718,0.0000000,0.0000000,5848.495,0.000,0.000,0.000,0,00:00:00,0,0.000,0.000,0.000,0.000,0.000,0.000,0.000,0.000,0.000,0.000,0.000,0.000,0.000,0.000
39.507,3,0,-1.684,1.279,5872.507,-1.543,1.288,212.534,-0.720,0.800,-14.091,70.000,0.000,0.0106833,7751.164,7500.000,0.676,1.925,479.944,-23.407,5872.686,5872.758,-14.129,0.096,0.314,0.000,0.033,-0.009,0.000,0.000,0.000,-0.008,0.696,0.027,0.717,0.0000000,0.0000000,5870.058,0.000,0.000,0.000,0,00:00:00,0,0.000,0.000,0.000,0.000,0.000,0.000,0.000,0.000,0.000,0.000,0.000,0.000,0.000,0.000
39.608,3,0,-1.667,1.277,5893.915,-1.525,1.287,211.128,-0.701,0.653,-14.021,70.000,0.000,0.0106833,7752.107,7500.000,0.672,1.735,478.551,-23.549,5893.925,5893.997,-14.050,-0.013,0.329,0.026,0.024,0.025,0.000,0.000,0.000,-0.006,0.697,0.027,0.716,0.0000000,0.0000000,5891.480,0.000,0.000,0.000,0,00:00:00,0,0.000,0.000,0.000,0.000,0.000,0.000,0.000,0.000,0.000,0.000,0.000,0.000,0.000,0.000
39.709,3,0,-1.648,1.273,5915.200,-1.495,1.259,209.742,-0.563,0.398,-13.958,70.000,0.000,0.0106833,7752.468,7500.000,0.668,1.596,477.152,-23.686,5915.326,5915.397,-13.971,-0.242,0.198,0.012,0.010,-0.024,0.000,0.000,0.000,-0.006,0.698,0.025,0.716,0.0000000,0.0000000,5912.763,0.000,0.000,0.000,0,00:00:00,0,0.000,0.000,0.000,0.000,0.000,0.000,0.000,0.000,0.000,0.000,0.000,0.000,0.000,0.000
39.810,3,0,-1.629,1.269,5936.320,-1.467,1.258,208.332,-0.580,0.656,-14.022,70.000,0.000,0.0106833,7752.791,7500.000,0.664,1.539,475.784,-23.825,5936.299,5936.371,-14.047,-0.017,0.228,-0.021,0.007,-0.014,0.000,0.000,0.000,-0.008,0.698,0.026,0.716,0.0000000,0.0000000,5933.907,0.000,0.000,0.000,0,00:00:00,0,0.000,0.000,0.000,0.000,0.000,0.000,0.000,0.000,0.000,0.000,0.000,0.000,0.000,0.000
39.911,3,0,-1.610,1.265,5957.338,-1.461,1.259,206.973,-0.793,0.670,-13.797,70.000,0.000,0.0106833,7752.461,7500.000,0.659,1.505,474.401,-23.960,5957.548,5957.620,-13.829,-0.020,0.423,-0.017,-0.017,-0.004,0.000,0.000,0.000,-0.008,0.697,0.026,0.716,0.0000000,0.0000000,5954.913,0.000,0.000,0.000,0,00:00:00,0,0.000,0.000,0.000,0.000,0.000,0.000,0.000,0.000,0.000,0.000,0.000,0.000,0.000,0.000
40.012,3,0,-1.591,1.261,5978.246,-1.431,1.250,205.633,-0.540,0.579,-13.818,70.000,0.000,0.0106833,7755.330,7500.000,0.655,1.602,473.032,-24.099,5978.632,5978.703,-13.839,-0.102,0.190,0.003,0.017,0.003,0.000,0.000,0.000,-0.008,0.698,0.026,0.716,0.0000000,0.0000000,5975.780,0.000,0.000,0.000,0,00:00:00,0,0.000,0.000,0.000,0.000,0.000,0.000,0.000,0.000,0.000,0.000,0.000,0.000,0.000,0.000
40.113,3,0,-1.573,1.256,5998.938,-1.422,1.231,204.244,-0.737,0.471,-13.705,70.000,0.000,0.0106833,7756.358,7500.000,0.651,1.506,471.724,-24.234,5998.825,5998.896,-13.726,-0.166,0.408,0.032,0.013,0.009,0.000,0.000,0.000,-0.007,0.698,0.025,0.715,0.0000000,0.0000000,5996.511,0.000,0.000,0.000,0,00:00:00,0,0.000,0.000,0.000,0.000,0.000,0.000,0.000,0.000,0.000,0.000,0.000,0.000,0.000,0.000
40.214,3,0,-1.555,1.251,6019.537,-1.419,1.227,202.908,-0.790,0.617,-13.517,70.000,0.000,0.0106833,7756.311,7500.000,0.647,1.426,470.374,-24.370,6019.706,6019.777,-13.546,-0.017,0.447,-0.004,-0.016,-0.014,0.000,0.000,0.000,-0.007,0.698,0.025,0.716,0.0000000,0.0000000,6017.104,0.000,0.000,0.000,0,00:00:00,0,0.000,0.000,0.000,0.000,0.000,0.000,0.000,0.000,0.000,0.000,0.000,0.000,0.000,0.000
40.315,3,0,-1.539,1.245,6040.027,-1.409,1.219,201.584,-0.706,0.582,-13.587,70.000,0.000,0.0106833,7756.664,7500.000,0.643,1.517,469.042,-24.505,6040.355,6040.427,-13.612,-0.008,0.368,0.033,0.005,-0.002,0.000,0.000,0.000,-0.006,0.698,0.024,0.716,0.0000000,0.0000000,6037.562,0.000,0.000,0.000,0,00:00:00,0,0.000,0.000,0.000,0.000,0.000,0.000,0.000,0.000,0.000,0.000,0.000,0.000,0.000,0.000
40.416,3,0,-1.523,1.239,6060.329,-1.404,1.207,200.222,-0.754,0.531,-13.576,70.000,0.000,0.0106833,7757.246,7500.000,0.639,1.486,467.757,-24.635,6060.327,6060.399,-13.600,-0.060,0.436,-0.001,0.017,-0.021,0.000,0.000,0.000,-0.007,0.698,0.023,0.715,0.0000000,0.0000000,6057.885,0.000,0.000,0.000,0,00:00:00,0,0.000,0.000,0.000,0.000,0.000,0.000,0.000,0.000,0.000,0.000,0.000,0.000,0.000,0.000
40.517,3,0,-1.509,1.233,6080.500,-1.410,1.190,198.877,-0.853,0.481,-13.444,70.000,0.000,0.0106833,7759.833,7500.000,0.635,1.387,466.460,-24.769,6080.538,6080.610,-13.469,-0.118,0.522,-0.007,-0.012,0.026,0.000,0.000,0.000,-0.006,0.698,0.024,0.716,0.0000000,0.0000000,6078.073,0.000,0.000,0.000,0,00:00:00,0,0.000,0.000,0.000,0.000,0.000,0.000,0.000,0.000,0.000,0.000,0.000,0.000,0.000,0.000
40.618,3,0,-1.495,1.226,6100.555,-1.395,1.195,197.552,-0.637,0.688,-13.392,70.000,0.000,0.0106833,7759.989,7500.000,0.631,1.458,465.168,-24.901,6100.707,6100.778,-13.420,0.050,0.335,-0.035,0.018,-0.010,0.000,0.000,0.000,-0.008,0.699,0.025,0.715,0.0000000,0.0000000,6098.126,0.000,0.000,0.000,0,00:00:00,0,0.000,0.000,0.000,0.000,0.000,0.000,0.000,0.000,0.000,0.000,0.000,0.000,0.000,0.000
40.719,3,0,-1.482,1.221,6120.462,-1.374,1.198,196.203,-0.569,0.671,-13.529,70.000,0.000,0.0106833,7760.523,7500.000,0.627,1.358,463.901,-25.028,6120.530,6120.602,-13.555,-0.013,0.261,-0.031,-0.001,-0.019,0.000,0.000,0.000,-0.010,0.699,0.025,0.715,0.0000000,0.0000000,6118.046,0.000,0.000,0.000,0,00:00:00,0,0.000,0.000,0.000,0.000,0.000,0.000,0.000,0.000,0.000,0.000,0.000,0.000,0.000,0.000
40.820,3,0,-1.468,1.216,6140.277,-1.361,1.197,194.911,-0.644,0.634,-13.276,70.000,0.000,0.0106833,7760.332,7500.000,0.623,1.366,462.620,-25.159,6140.612,6140.683,-13.303,0.001,0.296,0.029,-0.034,-0.002,0.000,0.000,0.000,-0.009,0.697,0.024,0.716,0.0000000,0.0000000,6137.833,0.000,0.000,0.000,0,00:00:00,0,0.000,0.000,0.000,0.000,0.000,0.000,0.000,0.000,0.000,0.000,0.000,0.000,0.000,0.000
40.921,3,0,-1.454,1.212,6159.932,-1.339,1.208,193.588,-0.544,0.743,-13.378,70.000,0.000,0.0106833,7760.605,7500.000,0.619,1.558,461.381,-25.288,6160.093,6160.165,-13.408,0.075,0.217,-0.025,0.017,-0.032,0.000,0.000,0.000,-0.011,0.698,0.024,0.716,0.0000000,0.0000000,6157.486,0.000,0.000,0.000,0,00:00:00,0,0.000,0.000,0.000,0.000,0.000,0.000,0.000,0.000,0.000,0.000,0.000,0.000,0.000,0.000
41.022,3,0,-1.439,1.209,6176.719,-1.315,1.222,190.221,-0.523,0.775,-13.377,70.000,0.000,0.0106833,7763.366,7500.000,0.615,1.460,461.381,-25.288,6160.093,6160.165,-13.408,0.075,0.217,-0.025,0.017,-0.032,0.000,0.000,0.000,-0.013,0.699,0.024,0.715,0.0000000,0.0000000,6157.486,0.000,0.000,0.000,0,00:00:00,0,0.000,0.000,0.000,0.000,0.000,0.000,0.000,0.000,0.000,0.000,0.000,0.000,0.000,0.000
41.123,3,0,-1.424,1.207,6196.362,-1.318,1.208,189.267,-0.775,0.494,-13.138,70.000,0.000,0.0106833,7730.193,7500.000,0.604,1.363,458.891,-25.543,6199.348,6199.420,-13.160,-0.161,0.496,0.028,0.020,0.006,0.000,0.000,0.000,-0.012,0.699,0.023,0.714,0.0000000,0.0000000,6196.398,0.000,0.000,0.000,0,00:00:00,0,0.000,0.000,0.000,0.000,0.000,0.000,0.000,0.000,0.000,0.000,0.000,0.000,0.000,0.000
41.224,3,0,-1.411,1.204,6215.904,-1.320,1.207,188.327,-0.760,0.630,-12.938,70.000,0.000,0.0106833,7736.087,7500.000,0.601,1.248,457.658,-25.669,6218.850,6218.922,-12.968,0.002,0.450,0.013,-0.029,0.001,0.000,0.000,0.000,-0.011,0.698,0.023,0.715,0.0000000,0.0000000,6215.657,0.000,0.000,0.000,0,00:00:00,0,0.000,0.000,0.000,0.000,0.000,0.000,0.000,0.000,0.000,0.000,0.000,0.000,0.000,0.000
41.325,3,0,-1.400,1.202,6235.226,-1.323,1.212,187.262,-0.774,0.683,-13.279,70.000,0.000,0.0106833,7741.716,7500.000,0.598,1.415,456.487,-25.794,6237.418,6237.489,-13.312,0.036,0.442,-0.001,-0.012,0.019,0.000,0.000,0.000,-0.010,0.698,0.023,0.716,0.0000000,0.0000000,6234.786,0.000,0.000,0.000,0,00:00:00,0,0.000,0.000,0.000,0.000,0.000,0.000,0.000,0.000,0.000,0.000,0.000,0.000,0.000,0.000
41.426,3,0,-1.388,1.200,6254.429,-1.296,1.208,186.230,-0.456,0.586,-12.842,70.000,0.000,0.0106833,7747.974,7500.000,0.595,1.484,455.284,-25.919,6256.533,6256.605,-12.862,-0.040,0.184,-0.005,0.041,-0.024,0.000,0.000,0.000,-0.011,0.699,0.023,0.714,0.0000000,0.0000000,6253.785,0.000,0.000,0.000,0,00:00:00,0,0.000,0.000,0.000,0.000,0.000,0.000,0.000,0.000,0.000,0.000,0.000,0.000,0.000,0.000
41.527,3,0,-1.377,1.197,6273.484,-1.299,1.204,185.160,-0.761,0.594,-12.895,70.000,0.000,0.0106833,7752.704,7500.000,0.592,1.250,454.103,-26.043,6275.325,6275.397,-12.923,-0.066,0.456,-0.020,-0.025,0.010,0.000,0.000,0.000,-0.012,0.698,0.024,0.715,0.0000000,0.0000000,6272.654,0.000,0.000,0.000,0,00:00:00,0,0.000,0.000,0.000,0.000,0.000,0.000,0.000,0.000,0.000,0.000,0.000,0.000,0.000,0.000
41.628,3,0,-1.366,1.196,6292.363,-1.292,1.214,184.050,-0.640,0.728,-12.791,70.000,0.000,0.0106833,7756.220,7500.000,0.589,1.397,452.946,-26.165,6293.783,6293.855,-12.823,0.025,0.323,-0.041,-0.011,-0.012,0.000,0.000,0.000,-0.014,0.698,0.025,0.716,0.0000000,0.0000000,6291.394,0.000,0.000,0.000,0,00:00:00,0,0.000,0.000,0.000,0.000,0.000,0.000,0.000,0.000,0.000,0.000,0.000,0.000,0.000,0.000
41.729,3,0,-1.356,1.195,6311.203,-1.286,1.223,182.979,-0.662,0.712,-12.947,70.000,0.000,0.0106833,7759.015,7500.000,0.585,1.466,451.740,-26.289,6313.073,6313.145,-12.978,0.025,0.377,0.019,0.029,-0.026,0.000,0.000,0.000,-0.014,0.699,0.023,0.715,0.0000000,0.0000000,6310.005,0.000,0.000,0.000,0,00:00:00,0,0.000,0.000,0.000,0.000,0.000,0.000,0.000,0.000,0.000,0.000,0.000,0.000,0.000,0.000
41.830,3,0,-1.346,1.194,6329.892,-1.282,1.217,181.898,-0.668,0.573,-12.727,70.000,0.000,0.0106833,7762.621,7500.000,0.582,1.301,450.590,-26.409,6331.497,6331.569,-12.750,-0.106,0.410,-0.004,0.019,-0.019,0.000,0.000,0.000,-0.015,0.700,0.023,0.714,0.0000000,0.0000000,6328.489,0.000,0.000,0.000,0,00:00:00,0,0.000,0.000,0.000,0.000,0.000,0.000,0.000,0.000,0.000,0.000,0.000,0.000,0.000,0.000
41.931,3,0,-1.336,1.194,6348.356,-1.252,1.219,180.736,-0.396,0.650,-12.660,70.000,0.000,0.0106833,7765.806,7500.000,0.579,1.192,449.484,-26.527,6349.248,6349.319,-12.682,0.028,0.109,0.040,-0.025,0.014,0.000,0.000,0.000,-0.013,0.699,0.022,0.715,0.0000000,0.0000000,6346.845,0.000,0.000,0.000,0,00:00:00,0,0.000,0.000,0.000,0.000,0.000,0.000,0.000,0.000,0.000,0.000,0.000,0.000,0.000,0.000
42.032,3,0,-1.324,1.195,6366.704,-1.241,1.252,179.570,-0.588,0.953,-12.716,70.000,0.000,0.0106833,7769.926,7500.000,0.575,1.335,448.343,-26.647,6367.601,6367.672,-12.758,0.264,0.335,-0.048,0.026,0.002,0.000,0.000,0.000,-0.014,0.700,0.023,0.714,0.0000000,0.0000000,6365.073,0.000,0.000,0.000,0,00:00:00,0,0.000,0.000,0.000,0.000,0.000,0.000,0.000,0.000,0.000,0.000,0.000,0.000,0.000,0.000
42.133,3,0,-1.312,1.198,6384.911,-1.207,1.258,178.379,-0.362,0.691,-12.799,70.000,0.000,0.0106833,7771.924,7500.000,0.572,1.189,447.221,-26.766,6385.678,6385.750,-12.822,0.006,0.142,0.004,0.031,-0.032,0.000,0.000,0.000,-0.016,0.701,0.022,0.713,0.0000000,0.0000000,6383.175,0.000,0.000,0.000,0,00:00:00,0,0.000,0.000,0.000,0.000,0.000,0.000,0.000,0.000,0.000,0.000,0.000,0.000,0.000,0.000
42.234,3,0,-1.299,1.201,6403.064,-1.190,1.279,177.267,-0.512,0.837,-12.489,70.000,0.000,0.0106833,7773.401,7500.000,0.568,1.009,446.074,-26.883,6404.217,6404.289,-12.523,0.151,0.296,-0.013,-0.003,0.011,0.000,0.000,0.000,-0.016,0.701,0.023,0.713,0.0000000,0.0000000,6401.151,0.000,0.000,0.000,0,00:00:00,0,0.000,0.000,0.000,0.000,0.000,0.000,0.000,0.000,0.000,0.000,0.000,0.000,0.000,0.000
42.335,3,0,-1.286,1.206,6420.987,-1.188,1.282,176.052,-0.658,0.665,-12.653,70.000,0.000,0.0106833,7775.738,7500.000,0.565,1.027,445.010,-27.000,6421.432,6421.503,-12.680,-0.042,0.438,-0.008,0.001,-0.007,0.000,0.000,0.000,-0.016,0.701,0.023,0.713,0.0000000,0.0000000,6419.001,0.000,0.000,0.000,0,00:00:00,0,0.000,0.000,0.000,0.000,0.000,0.000,0.000,0.000,0.000,0.000,0.000,0.000,0.000,0.000
42.436,3,0,-1.274,1.210,6438.827,-1.186,1.288,174.888,-0.646,0.699,-12.422,70.000,0.000,0.0106833,7776.332,7500.000,0.561,1.024,443.896,-27.117,6439.501,6439.573,-12.452,0.035,0.395,0.023,-0.028,-0.000,0.000,0.000,0.000,-0.015,0.700,0.022,0.714,0.0000000,0.0000000,6436.726,0.000,0.000,0.000,0,00:00:00,0,0.000,0.000,0.000,0.000,0.000,0.000,0.000,0.000,0.000,0.000,0.000,0.000,0.000,0.000
42.537,3,0,-1.262,1.214,6456.544,-1.179,1.286,173.717,-0.599,0.609,-12.464,70.000,0.000,0.0106833,7779.890,7500.000,0.557,1.184,442.807,-27.233,6457.187,6457.259,-12.488,-0.011,0.355,0.037,0.007,-0.003,0.000,0.000,0.000,-0.014,0.700,0.021,0.714,0.0000000,0.0000000,6454.326,0.000,0.000,0.000,0,00:00:00,0,0.000,0.000,0.000,0.000,0.000,0.000,0.000,0.000,0.000,0.000,0.000,0.000,0.000,0.000
42.638,3,0,-1.251,1.218,6474.092,-1.171,1.282,172.526,-0.578,0.603,-12.271,70.000,0.000,0.0106833,7781.336,7500.000,0.554,1.143,441.749,-27.348,6474.421,6474.492,-12.294,-0.009,0.390,-0.001,0.041,0.010,0.000,0.000,0.000,-0.014,0.701,0.021,0.712,0.0000000,0.0000000,6471.801,0.000,0.000,0.000,0,00:00:00,0,0.000,0.000,0.000,0.000,0.000,0.000,0.000,0.000,0.000,0.000,0.000,0.000,0.000,0.000
42.739,3,0,-1.241,1.221,6491.546,-1.168,1.275,171.351,-0.621,0.575,-12.320,70.000,0.000,0.0106833,7782.472,7500.000,0.550,0.909,440.669,-27.460,6492.040,6492.112,-12.341,-0.044,0.446,-0.004,0.012,-0.009,0.000,0.000,0.000,-0.014,0.702,0.021,0.712,0.0000000,0.0000000,6489.153,0.000,0.000,0.000,0,00:00:00,0,0.000,0.000,0.000,0.000,0.000,0.000,0.000,0.000,0.000,0.000,0.000,0.000,0.000,0.000
42.840,3,0,-1.232,1.223,6508.824,-1.174,1.290,170.114,-0.702,0.791,-12.506,70.000,0.000,0.0106833,7783.545,7500.000,0.546,0.839,439.633,-27.574,6508.971,6509.043,-12.539,0.157,0.526,-0.004,0.001,-0.013,0.000,0.000,0.000,-0.015,0.702,0.021,0.712,0.0000000,0.0000000,6506.380,0.000,0.000,0.000,0,00:00:00,0,0.000,0.000,0.000,0.000,0.000,0.000,0.000,0.000,0.000,0.000,0.000,0.000,0.000,0.000
42.941,3,0,-1.222,1.227,6525.939,-1.149,1.290,168.870,-0.400,0.641,-12.289,70.000,0.000,0.0106833,7783.495,7500.000,0.543,0.832,438.602,-27.684,6525.844,6525.916,-12.310,0.030,0.225,0.008,-0.003,0.014,0.000,0.000,0.000,-0.014,0.702,0.021,0.712,0.0000000,0.0000000,6523.485,0.000,0.000,0.000,0,00:00:00,0,0.000,0.000,0.000,0.000,0.000,0.000,0.000,0.000,0.000,0.000,0.000,0.000,0.000,0.000
43.042,3,0,-1.212,1.230,6543.009,-1.139,1.301,167.679,-0.538,0.763,-12.362,70.000,0.000,0.0106833,7783.120,7500.000,0.539,0.846,437.532,-27.799,6543.411,6543.483,-12.390,0.119,0.409,-0.021,0.035,0.036,0.000,0.000,0.000,-0.014,0.703,0.023,0.711,0.0000000,0.0000000,6540.466,0.000,0.000,0.000,0,00:00:00,0,0.000,0.000,0.000,0.000,0.000,0.000,0.000,0.000,0.000,0.000,0.000,0.000,0.000,0.000
43.143,3,0,-1.202,1.233,6559.936,-1.128,1.291,166.508,-0.524,0.547,-11.986,70.000,0.000,0.0106833,7786.435,7500.000,0.535,0.645,436.511,-27.908,6560.188,6560.260,-12.003,-0.079,0.380,-0.002,-0.013,0.003,0.000,0.000,0.000,-0.014,0.703,0.023,0.711,0.0000000,0.0000000,6557.326,0.000,0.000,0.000,0,00:00:00,0,0.000,0.000,0.000,0.000,0.000,0.000,0.000,0.000,0.000,0.000,0.000,0.000,0.000,0.000
43.244,3,0,-1.192,1.236,6576.717,-1.112,1.294,165.295,-0.468,0.676,-12.197,70.000,0.000,0.0106833,7787.284,7500.000,0.531,0.722,435.503,-28.017,6576.799,6576.871,-12.221,0.032,0.305,-0.005,-0.015,0.008,0.000,0.000,0.000,-0.013,0.702,0.024,0.712,0.0000000,0.0000000,6574.063,0.000,0.000,0.000,0,00:00:00,0,0.000,0.000,0.000,0.000,0.000,0.000,0.000,0.000,0.000,0.000,0.000,0.000,0.000,0.000
43.345,3,0,-1.181,1.238,6593.329,-1.095,1.292,164.083,-0.452,0.630,-11.830,70.000,0.000,0.0106833,7787.361,7500.000,0.528,0.809,434.513,-28.125,6593.122,6593.193,-11.852,0.023,0.263,0.015,-0.026,-0.004,0.000,0.000,0.000,-0.013,0.701,0.023,0.713,0.0000000,0.0000000,6590.678,0.000,0.000,0.000,0,00:00:00,0,0.000,0.000,0.000,0.000,0.000,0.000,0.000,0.000,0.000,0.000,0.000,0.000,0.000,0.000
43.446,3,0,-1.170,1.240,6609.877,-1.077,1.297,162.877,-0.437,0.703,-12.229,70.000,0.000,0.0106833,7787.213,7500.000,0.524,0.955,433.490,-28.233,6610.037,6610.109,-12.255,0.073,0.241,-0.004,0.000,-0.013,0.000,0.000,0.000,-0.014,0.701,0.023,0.713,0.0000000,0.0000000,6607.172,0.000,0.000,0.000,0,00:00:00,0,0.000,0.000,0.000,0.000,0.000,0.000,0.000,0.000,0.000,0.000,0.000,0.000,0.000,0.000
43.547,3,0,-1.158,1.243,6626.339,-1.064,1.297,161.711,-0.480,0.658,-12.081,70.000,0.000,0.0106833,7787.133,7500.000,0.520,0.955,432.483,-28.341,6626.713,6626.785,-12.104,0.080,0.288,0.036,0.002,-0.039,0.000,0.000,0.000,-0.014,0.701,0.020,0.713,0.0000000,0.0000000,6623.546,0.000,0.000,0.000,0,00:00:00,0,0.000,0.000,0.000,0.000,0.000,0.000,0.000,0.000,0.000,0.000,0.000,0.000,0.000,0.000
43.648,3,0,-1.147,1.244,6642.629,-1.073,1.273,160.519,-0.693,0.418,-11.930,70.000,0.000,0.0106833,7790.356,7500.000,0.517,0.939,431.522,-28.447,6642.668,6642.740,-11.945,-0.118,0.530,0.031,0.024,0.005,0.000,0.000,0.000,-0.012,0.702,0.019,0.712,0.0000000,0.0000000,6639.799,0.000,0.000,0.000,0,00:00:00,0,0.000,0.000,0.000,0.000,0.000,0.000,0.000,0.000,0.000,0.000,0.000,0.000,0.000,0.000
43.749,3,0,-1.138,1.242,6656.532,-1.080,1.246,157.635,-0.664,0.381,-11.933,70.000,0.000,0.0106833,7790.746,7500.000,0.513,0.799,431.522,-28.447,6642.668,6642.740,-11.945,-0.118,0.530,0.031,0.024,0.005,0.000,0.000,0.000,-0.011,0.703,0.018,0.711,0.0000000,0.0000000,6639.799,0.000,0.000,0.000,0,00:00:00,0,0.000,0.000,0.000,0.000,0.000,0.000,0.000,0.000,0.000,0.000,0.000,0.000,0.000,0.000
43.850,3,0,-1.130,1.238,6668.237,-1.084,1.215,153.324,-0.635,0.344,-11.935,70.000,0.000,0.0106833,7765.577,7500.000,0.504,0.659,431.522,-28.447,6642.668,6642.740,-11.945,-0.118,0.530,0.031,0.024,0.005,0.000,0.000,0.000,-0.010,0.704,0.017,0.710,0.0000000,0.0000000,6639.799,0.000,0.000,0.000,0,00:00:00,0,0.000,0.000,0.000,0.000,0.000,0.000,0.000,0.000,0.000,0.000,0.000,0.000,0.000,0.000
43.951,3,0,-1.122,1.232,6684.721,-1.052,1.186,152.926,-0.272,0.364,-11.779,70.000,0.000,0.0106833,7722.343,7500.000,0.490,0.519,428.611,-28.763,6691.148,6691.220,-11.786,-0.093,0.181,-0.005,0.011,-0.014,0.000,0.000,0.000,-0.011,0.704,0.017,0.710,0.0000000,0.0000000,6687.838,0.000,0.000,0.000,0,00:00:00,0,0.000,0.000,0.000,0.000,0.000,0.000,0.000,0.000,0.000,0.000,0.000,0.000,0.000,0.000
44.052,3,0,-1.112,1.224,6700.987,-1.047,1.163,152.383,-0.537,0.417,-11.890,70.000,0.000,0.0106833,7733.728,7500.000,0.489,0.454,427.703,-28.863,6706.317,6706.389,-11.902,-0.043,0.424,0.002,-0.018,-0.019,0.000,0.000,0.000,-0.011,0.704,0.016,0.710,0.0000000,0.0000000,6703.613,0.000,0.000,0.000,0,00:00:00,0,0.000,0.000,0.000,0.000,0.000,0.000,0.000,0.000,0.000,0.000,0.000,0.000,0.000,0.000
44.153,3,0,-1.104,1.214,6714.925,-1.044,1.141,150.142,-0.558,0.414,-11.889,70.000,0.000,0.0106833,7742.906,7500.000,0.487,0.555,427.703,-28.863,6706.317,6706.389,-11.902,-0.043,0.424,0.002,-0.018,-0.019,0.000,0.000,0.000,-0.012,0.703,0.015,0.711,0.0000000,0.0000000,6703.613,0.000,0.000,0.000,0,00:00:00,0,0.000,0.000,0.000,0.000,0.000,0.000,0.000,0.000,0.000,0.000,0.000,0.000,0.000,0.000
44.254,3,0,-1.095,1.205,6731.086,-1.031,1.142,149.719,-0.444,0.644,-12.016,70.000,0.000,0.0106833,7729.806,7500.000,0.480,0.656,425.842,-29.067,6737.505,6737.577,-12.035,0.180,0.346,-0.001,0.030,0.013,0.000,0.000,0.000,-0.011,0.704,0.016,0.710,0.0000000,0.0000000,6734.806,0.000,0.000,0.000,0,00:00:00,0,0.000,0.000,0.000,0.000,0.000,0.000,0.000,0.000,0.000,0.000,0.000,0.000,0.000,0.000
44.355,3,0,-1.086,1.195,6747.112,-1.009,1.119,149.261,-0.348,0.404,-11.667,70.000,0.000,0.0106833,7740.720,7500.000,0.479,0.485,424.923,-29.170,6752.953,6753.024,-11.677,-0.047,0.213,-0.002,-0.030,0.006,0.000,0.000,0.000,-0.011,0.703,0.016,0.711,0.0000000,0.0000000,6750.226,0.000,0.000,0.000,0,00:00:00,0,0.000,0.000,0.000,0.000,0.000,0.000,0.000,0.000,0.000,0.000,0.000,0.000,0.000,0.000
44.456,3,0,-1.076,1.186,6762.986,-1.004,1.124,148.709,-0.515,0.674,-11.816,70.000,0.000,0.0106833,7750.901,7500.000,0.478,0.676,424.018,-29.271,6768.181,6768.253,-11.838,0.213,0.381,-0.003,0.003,-0.022,0.000,0.000,0.000,-0.012,0.703,0.015,0.711,0.0000000,0.0000000,6765.527,0.000,0.000,0.000,0,00:00:00,0,0.000,0.000,0.000,0.000,0.000,0.000,0.000,0.000,0.000,0.000,0.000,0.000,0.000,0.000
44.557,3,0,-1.066,1.177,6778.727,-0.995,1.117,148.092,-0.481,0.549,-11.899,70.000,0.000,0.0106833,7759.791,7500.000,0.476,0.661,423.112,-29.370,6783.456,6783.527,-11.916,0.030,0.356,-0.047,0.010,-0.014,0.000,0.000,0.000,-0.014,0.703,0.016,0.711,0.0000000,0.0000000,6780.712,0.000,0.000,0.000,0,00:00:00,0,0.000,0.000,0.000,0.000,0.000,0.000,0.000,0.000,0.000,0.000,0.000,0.000,0.000,0.000
44.658,3,0,-1.056,1.168,6794.355,-0.972,1.095,147.446,-0.321,0.392,-11.794,70.000,0.000,0.0106833,7767.710,7500.000,0.474,0.605,422.206,-29.467,6798.768,6798.840,-11.803,-0.119,0.183,0.001,-0.011,-0.033,0.000,0.000,0.000,-0.016,0.703,0.015,0.711,0.0000000,0.0000000,6795.779,0.000,0.000,0.000,0,00:00:00,0,0.000,0.000,0.000,0.000,0.000,0.000,0.000,0.000,0.000,0.000,0.000,0.000,0.000,0.000
44.759,3,0,-1.046,1.157,6809.799,-0.972,1.077,146.716,-0.548,0.433,-11.760,70.000,0.000,0.0106833,7775.096,7500.000,0.472,0.668,421.336,-29.568,6813.480,6813.552,-11.772,-0.067,0.445,0.008,0.030,-0.033,0.000,0.000,0.000,-0.017,0.704,0.014,0.710,0.0000000,0.0000000,6810.730,0.000,0.000,0.000,0,00:00:00,0,0.000,0.000,0.000,0.000,0.000,0.000,0.000,0.000,0.000,0.000,0.000,0.000,0.000,0.000
44.860,3,0,-1.036,1.147,6825.110,-0.965,1.079,145.954,-0.479,0.625,-11.630,70.000,0.000,0.0106833,7781.266,7500.000,0.470,0.495,420.454,-29.663,6828.425,6828.497,-11.649,0.166,0.381,0.031,0.019,0.008,0.000,0.000,0.000,-0.015,0.704,0.013,0.710,0.0000000,0.0000000,6825.564,0.000,0.000,0.000,0,00:00:00,0,0.000,0.000,0.000,0.000,0.000,0.000,0.000,0.000,0.000,0.000,0.000,0.000,0.000,0.000
44.961,3,0,-1.027,1.138,6840.258,-0.961,1.071,145.136,-0.497,0.519,-11.543,70.000,0.000,0.0106833,7786.826,7500.000,0.467,0.476,419.593,-29.762,6843.043,6843.115,-11.559,0.064,0.396,0.002,0.025,0.037,0.000,0.000,0.000,-0.013,0.704,0.015,0.710,0.0000000,0.0000000,6840.283,0.000,0.000,0.000,0,00:00:00,0,0.000,0.000,0.000,0.000,0.000,0.000,0.000,0.000,0.000,0.000,0.000,0.000,0.000,0.000
45.062,3,0,-1.019,1.129,6853.212,-0.957,1.063,142.740,-0.500,0.519,-11.543,70.000,0.000,0.0106833,7791.469,7500.000,0.465,0.506,419.593,-29.762,6843.043,6843.115,-11.559,0.064,0.396,0.002,0.025,0.037,0.000,0.000,0.000,-0.012,0.704,0.016,0.710,0.0000000,0.0000000,6840.283,0.000,0.000,0.000,0,00:00:00,0,0.000,0.000,0.000,0.000,0.000,0.000,0.000,0.000,0.000,0.000,0.000,0.000,0.000,0.000
45.163,3,0,-1.010,1.120,6868.274,-0.944,1.055,142.102,-0.400,0.501,-11.527,70.000,0.000,0.0106833,7776.700,7500.000,0.457,0.533,417.861,-29.950,6872.524,6872.595,-11.542,0.066,0.275,0.017,-0.003,0.041,0.000,0.000,0.000,-0.010,0.703,0.017,0.711,0.0000000,0.0000000,6869.372,0.000,0.000,0.000,0,00:00:00,0,0.000,0.000,0.000,0.000,0.000,0.000,0.000,0.000,0.000,0.000,0.000,0.000,0.000,0.000
45.264,3,0,-1.002,1.111,6883.133,-0.946,1.037,141.356,-0.554,0.405,-11.568,70.000,0.000,0.0106833,7783.798,7500.000,0.455,0.644,417.040,-30.044,6886.531,6886.603,-11.581,-0.035,0.398,-0.003,-0.004,-0.007,0.000,0.000,0.000,-0.011,0.702,0.016,0.712,0.0000000,0.0000000,6883.744,0.000,0.000,0.000,0,00:00:00,0,0.000,0.000,0.000,0.000,0.000,0.000,0.000,0.000,0.000,0.000,0.000,0.000,0.000,0.000
45.365,3,0,-0.993,1.101,6897.872,-0.928,1.034,140.584,-0.339,0.552,-11.496,70.000,0.000,0.0106833,7789.300,7500.000,0.453,0.789,416.193,-30.138,6900.997,6901.069,-11.513,0.077,0.193,-0.034,0.014,-0.016,0.000,0.000,0.000,-0.012,0.702,0.017,0.711,0.0000000,0.0000000,6898.001,0.000,0.000,0.000,0,00:00:00,0,0.000,0.000,0.000,0.000,0.000,0.000,0.000,0.000,0.000,0.000,0.000,0.000,0.000,0.000
45.466,3,0,-0.984,1.092,6910.479,-0.909,1.035,138.278,-0.331,0.590,-11.494,70.000,0.000,0.0106833,7794.424,7500.000,0.451,0.743,416.193,-30.138,6900.997,6901.069,-11.513,0.077,0.193,-0.034,0.014,-0.016,0.000,0.000,0.000,-0.014,0.703,0.017,0.711,0.0000000,0.0000000,6898.001,0.000,0.000,0.000,0,00:00:00,0,0.000,0.000,0.000,0.000,0.000,0.000,0.000,0.000,0.000,0.000,0.000,0.000,0.000,0.000
45.567,3,0,-0.975,1.085,6925.054,-0.917,1.035,137.639,-0.589,0.565,-11.254,70.000,0.000,0.0106833,7780.773,7500.000,0.443,0.703,414.555,-30.321,6929.069,6929.141,-11.276,0.051,0.396,-0.010,0.008,-0.016,0.000,0.000,0.000,-0.015,0.701,0.017,0.713,0.0000000,0.0000000,6926.171,0.000,0.000,0.000,0,00:00:00,0,0.000,0.000,0.000,0.000,0.000,0.000,0.000,0.000,0.000,0.000,0.000,0.000,0.000,0.000
45.668,3,0,-0.968,1.077,6939.447,-0.912,1.020,136.893,-0.457,0.419,-11.446,70.000,0.000,0.0106833,7787.496,7500.000,0.441,0.996,413.758,-30.413,6942.747,6942.819,-11.459,-0.106,0.272,-0.004,0.027,-0.027,0.000,0.000,0.000,-0.016,0.701,0.016,0.713,0.0000000,0.0000000,6940.085,0.000,0.000,0.000,0,00:00:00,0,0.000,0.000,0.000,0.000,0.000,0.000,0.000,0.000,0.000,0.000,0.000,0.000,0.000,0.000
45.769,3,0,-0.960,1.068,6953.712,-0.909,1.004,136.103,-0.476,0.408,-11.507,70.000,0.000,0.0106833,7792.896,7500.000,0.439,0.922,412.947,-30.504,6956.697,6956.768,-11.520,-0.114,0.267,0.004,-0.011,-0.017,0.000,0.000,0.000,-0.017,0.701,0.015,0.713,0.0000000,0.0000000,6953.886,0.000,0.000,0.000,0,00:00:00,0,0.000,0.000,0.000,0.000,0.000,0.000,0.000,0.000,0.000,0.000,0.000,0.000,0.000,0.000
45.870,3,0,-0.953,1.059,6965.910,-0.908,0.989,133.828,-0.496,0.403,-11.506,70.000,0.000,0.0106833,7797.516,7500.000,0.437,1.031,412.947,-30.504,6956.697,6956.768,-11.520,-0.114,0.267,0.004,-0.011,-0.017,0.000,0.000,0.000,-0.018,0.700,0.014,0.714,0.0000000,0.0000000,6953.886,0.000,0.000,0.000,0,00:00:00,0,0.000,0.000,0.000,0.000,0.000,0.000,0.000,0.000,0.000,0.000,0.000,0.000,0.000,0.000
45.971,3,0,-0.947,1.051,6980.027,-0.911,0.993,133.181,-0.527,0.597,-11.266,70.000,0.000,0.0106833,7781.792,7500.000,0.429,1.126,411.364,-30.683,6983.991,6984.063,-11.290,0.045,0.296,-0.039,0.011,0.008,0.000,0.000,0.000,-0.018,0.700,0.016,0.714,0.0000000,0.0000000,6981.146,0.000,0.000,0.000,0,00:00:00,0,0.000,0.000,0.000,0.000,0.000,0.000,0.000,0.000,0.000,0.000,0.000,0.000,0.000,0.000
46.072,3,0,-0.942,1.043,6994.009,-0.916,0.991,132.481,-0.547,0.520,-11.281,70.000,0.000,0.0106833,7790.613,7500.000,0.427,1.168,410.579,-30.771,6997.543,6997.615,-11.303,0.020,0.306,0.047,0.009,0.010,0.000,0.000,0.000,-0.016,0.699,0.015,0.714,0.0000000,0.0000000,6994.607,0.000,0.000,0.000,0,00:00:00,0,0.000,0.000,0.000,0.000,0.000,0.000,0.000,0.000,0.000,0.000,0.000,0.000,0.000,0.000
46.173,3,0,-0.938,1.036,7007.838,-0.935,0.990,131.723,-0.674,0.538,-11.248,70.000,0.000,0.0106833,7796.339,7500.000,0.425,1.219,409.809,-30.857,7010.873,7010.944,-11.273,0.077,0.401,0.036,0.006,0.025,0.000,0.000,0.000,-0.013,0.698,0.016,0.716,0.0000000,0.0000000,7007.956,0.000,0.000,0.000,0,00:00:00,0,0.000,0.000,0.000,0.000,0.000,0.000,0.000,0.000,0.000,0.000,0.000,0.000,0.000,0.000
46.274,3,0,-0.936,1.028,7021.464,-0.958,0.965,130.875,-0.729,0.296,-11.199,70.000,0.000,0.0106833,7801.134,7500.000,0.423,1.399,409.068,-30.944,7023.717,7023.789,-11.218,-0.181,0.421,-0.018,0.010,-0.001,0.000,0.000,0.000,-0.016,0.697,0.014,0.717,0.0000000,0.0000000,7021.192,0.000,0.000,0.000,0,00:00:00,0,0.000,0.000,0.000,0.000,0.000,0.000,0.000,0.000,0.000,0.000,0.000,0.000,0.000,0.000
46.375,3,0,-0.937,1.020,7035.012,-0.982,0.965,130.048,-0.731,0.539,-11.050,70.000,0.000,0.0106833,7804.633,7500.000,0.420,1.567,408.285,-31.030,7037.308,7037.380,-11.080,0.076,0.388,0.008,-0.015,0.003,0.000,0.000,0.000,-0.014,0.696,0.015,0.718,0.0000000,0.0000000,7034.315,0.000,0.000,0.000,0,00:00:00,0,0.000,0.000,0.000,0.000,0.000,0.000,0.000,0.000,0.000,0.000,0.000,0.000,0.000,0.000
46.476,3,0,-0.941,1.013,7048.411,-1.022,0.979,129.152,-0.882,0.671,-11.249,70.000,0.000,0.0106833,7808.237,7500.000,0.418,1.778,407.537,-31.115,7050.313,7050.385,-11.291,0.141,0.503,-0.046,0.001,0.063,0.000,0.000,0.000,-0.013,0.695,0.020,0.719,0.0000000,0.0000000,7047.328,0.000,0.000,0.000,0,00:00:00,0,0.000,0.000,0.000,0.000,0.000,0.000,0.000,0.000,0.000,0.000,0.000,0.000,0.000,0.000
46.577,3,0,-0.948,1.008,7061.688,-1.067,0.989,128.233,-0.954,0.627,-11.242,70.000,0.000,0.0106833,7810.885,7500.000,0.415,1.957,406.785,-31.200,7063.394,7063.466,-11.286,0.120,0.561,0.021,0.032,0.002,0.000,0.000,0.000,-0.012,0.694,0.019,0.719,0.0000000,0.0000000,7060.228,0.000,0.000,0.000,0,00:00:00,0,0.000,0.000,0.000,0.000,0.000,0.000,0.000,0.000,0.000,0.000,0.000,0.000,0.000,0.000
46.678,3,0,-0.958,1.004,7074.778,-1.094,0.984,127.243,-0.768,0.475,-11.249,70.000,0.000,0.0106833,7813.216,7500.000,0.412,2.031,406.067,-31.286,7075.911,7075.982,-11.279,-0.018,0.376,0.012,-0.004,0.018,0.000,0.000,0.000,-0.012,0.694,0.018,0.719,0.0000000,0.0000000,7073.017,0.000,0.000,0.000,0,00:00:00,0,0.000,0.000,0.000,0.000,0.000,0.000,0.000,0.000,0.000,0.000,0.000,0.000,0.000,0.000
46.779,3,0,-0.970,1.000,7087.734,-1.126,0.985,126.242,-0.828,0.543,-11.100,70.000,0.000,0.0106833,7817.341,7500.000,0.409,2.016,405.338,-31.365,7088.649,7088.721,-11.136,0.045,0.416,-0.009,-0.022,0.013,0.000,0.000,0.000,-0.013,0.694,0.019,0.720,0.0000000,0.0000000,7085.695,0.000,0.000,0.000,0,00:00:00,0,0.000,0.000,0.000,0.000,0.000,0.000,0.000,0.000,0.000,0.000,0.000,0.000,0.000,0.000
46.880,3,0,-0.983,0.996,7100.605,-1.142,0.985,125.259,-0.668,0.520,-11.042,70.000,0.000,0.0106833,7818.733,7500.000,0.406,2.143,404.596,-31.449,7101.617,7101.688,-11.071,0.011,0.297,-0.015,-0.002,0.008,0.000,0.000,0.000,-0.014,0.695,0.018,0.719,0.0000000,0.0000000,7098.262,0.000,0.000,0.000,0,00:00:00,0,0.000,0.000,0.000,0.000,0.000,0.000,0.000,0.000,0.000,0.000,0.000,0.000,0.000,0.000
46.981,3,0,-0.995,0.993,7113.346,-1.153,0.992,124.255,-0.633,0.588,-11.030,70.000,0.000,0.0106833,7820.549,7500.000,0.403,1.937,403.879,-31.531,7114.175,7114.246,-11.060,0.051,0.283,-0.024,-0.020,0.031,0.000,0.000,0.000,-0.014,0.696,0.020,0.718,0.0000000,0.0000000,7110.719,0.000,0.000,0.000,0,00:00:00,0,0.000,0.000,0.000,0.000,0.000,0.000,0.000,0.000,0.000,0.000,0.000,0.000,0.000,0.000
47.082,3,0,-1.009,0.990,7125.828,-1.184,0.986,123.144,-0.846,0.467,-10.905,70.000,0.000,0.0106833,7821.867,7500.000,0.400,1.840,403.223,-31.610,7125.682,7125.754,-10.938,-0.051,0.464,0.012,0.022,0.017,0.000,0.000,0.000,-0.015,0.694,0.018,0.719,0.0000000,0.0000000,7123.064,0.000,0.000,0.000,0,00:00:00,0,0.000,0.000,0.000,0.000,0.000,0.000,0.000,0.000,0.000,0.000,0.000,0.000,0.000,0.000
47.183,3,0,-1.024,0.988,7138.220,-1.205,0.995,122.051,-0.737,0.609,-10.903,70.000,0.000,0.0106833,7821.449,7500.000,0.396,2.014,402.509,-31.694,7138.212,7138.283,-10.939,0.095,0.355,0.005,-0.024,0.019,0.000,0.000,0.000,-0.014,0.694,0.019,0.719,0.0000000,0.0000000,7135.301,0.000,0.000,0.000,0,00:00:00,0,0.000,0.000,0.000,0.000,0.000,0.000,0.000,0.000,0.000,0.000,0.000,0.000,0.000,0.000
47.284,3,0,-1.038,0.987,7150.495,-1.213,1.005,120.934,-0.626,0.616,-11.090,70.000,0.000,0.0106833,7823.856,7500.000,0.393,2.026,401.813,-31.773,7150.449,7150.521,-11.121,0.074,0.272,-0.018,-0.006,-0.002,0.000,0.000,0.000,-0.015,0.695,0.020,0.718,0.0000000,0.0000000,7147.427,0.000,0.000,0.000,0,00:00:00,0,0.000,0.000,0.000,0.000,0.000,0.000,0.000,0.000,0.000,0.000,0.000,0.000,0.000,0.000
47.385,3,0,-1.052,0.987,7162.623,-1.224,1.014,119.802,-0.670,0.603,-10.980,70.000,0.000,0.0106833,7823.927,7500.000,0.389,1.845,401.136,-31.850,7162.365,7162.437,-11.012,0.066,0.346,-0.000,0.034,-0.002,0.000,0.000,0.000,-0.015,0.696,0.020,0.717,0.0000000,0.0000000,7159.443,0.000,0.000,0.000,0,00:00:00,0,0.000,0.000,0.000,0.000,0.000,0.000,0.000,0.000,0.000,0.000,0.000,0.000,0.000,0.000
47.486,3,0,-1.066,0.987,7174.632,-1.240,1.025,118.677,-0.717,0.629,-10.876,70.000,0.000,0.0106833,7823.622,7500.000,0.385,1.709,400.457,-31.928,7174.345,7174.417,-10.911,0.093,0.380,-0.003,0.011,0.003,0.000,0.000,0.000,-0.014,0.696,0.020,0.718,0.0000000,0.0000000,7171.350,0.000,0.000,0.000,0,00:00:00,0,0.000,0.000,0.000,0.000,0.000,0.000,0.000,0.000,0.000,0.000,0.000,0.000,0.000,0.000
47.587,3,0,-1.079,0.989,7186.516,-1.237,1.032,117.531,-0.533,0.591,-11.004,70.000,0.000,0.0106833,7823.089,7500.000,0.382,1.800,399.788,-32.007,7186.155,7186.227,-11.031,0.055,0.220,0.003,-0.028,-0.011,0.000,0.000,0.000,-0.015,0.697,0.019,0.717,0.0000000,0.0000000,7183.147,0.000,0.000,0.000,0,00:00:00,0,0.000,0.000,0.000,0.000,0.000,0.000,0.000,0.000,0.000,0.000,0.000,0.000,0.000,0.000
47.688,3,0,-1.092,0.991,7198.280,-1.243,1.049,116.384,-0.635,0.690,-10.984,70.000,0.000,0.0106833,7822.346,7500.000,0.378,1.650,399.124,-32.080,7197.903,7197.975,-11.018,0.175,0.316,0.020,-0.012,-0.013,0.000,0.000,0.000,-0.013,0.696,0.020,0.717,0.0000000,0.0000000,7194.836,0.000,0.000,0.000,0,00:00:00,0,0.000,0.000,0.000,0.000,0.000,0.000,0.000,0.000,0.000,0.000,0.000,0.000,0.000,0.000
47.789,3,0,-1.104,0.994,7209.908,-1.265,1.051,115.224,-0.801,0.538,-10.960,70.000,0.000,0.0106833,7823.995,7500.000,0.375,1.691,398.474,-32.156,7209.400,7209.471,-10.993,0.036,0.443,0.011,0.012,-0.015,0.000,0.000,0.000,-0.014,0.695,0.018,0.718,0.0000000,0.0000000,7206.416,0.000,0.000,0.000,0,00:00:00,0,0.000,0.000,0.000,0.000,0.000,0.000,0.000,0.000,0.000,0.000,0.000,0.000,0.000,0.000
47.890,3,0,-1.116,0.997,7221.389,-1.259,1.047,114.047,-0.523,0.485,-10.902,70.000,0.000,0.0106833,7823.089,7500.000,0.371,1.889,397.837,-32.231,7220.698,7220.770,-10.923,-0.016,0.221,-0.002,-0.006,0.030,0.000,0.000,0.000,-0.014,0.697,0.018,0.717,0.0000000,0.0000000,7217.887,0.000,0.000,0.000,0,00:00:00,0,0.000,0.000,0.000,0.000,0.000,0.000,0.000,0.000,0.000,0.000,0.000,0.000,0.000,0.000
47.991,3,0,-1.126,0.999,7232.754,-1.255,1.046,112.887,-0.559,0.518,-10.756,70.000,0.000,0.0106833,7822.184,7500.000,0.367,1.595,397.196,-32.310,7232.076,7232.147,-10.779,0.001,0.284,-0.021,0.027,0.025,0.000,0.000,0.000,-0.015,0.698,0.018,0.716,0.0000000,0.0000000,7229.250,0.000,0.000,0.000,0,00:00:00,0,0.000,0.000,0.000,0.000,0.000,0.000,0.000,0.000,0.000,0.000,0.000,0.000,0.000,0.000
48.092,3,0,-1.136,1.000,7244.048,-1.276,1.025,111.766,-0.799,0.323,-10.707,70.000,0.000,0.0106833,7821.192,7500.000,0.364,1.475,396.545,-32.381,7243.649,7243.720,-10.731,-0.184,0.438,0.005,-0.005,0.030,0.000,0.000,0.000,-0.018,0.695,0.015,0.719,0.0000000,0.0000000,7240.505,0.000,0.000,0.000,0,00:00:00,0,0.000,0.000,0.000,0.000,0.000,0.000,0.000,0.000,0.000,0.000,0.000,0.000,0.000,0.000
48.193,3,0,-1.147,1.000,7255.231,-1.295,1.036,110.634,-0.794,0.633,-10.835,70.000,0.000,0.0106833,7820.171,7500.000,0.360,1.921,395.915,-32.453,7254.852,7254.924,-10.874,0.105,0.404,-0.010,-0.016,0.009,0.000,0.000,0.000,-0.016,0.694,0.018,0.720,0.0000000,0.0000000,7251.651,0.000,0.000,0.000,0,00:00:00,0,0.000,0.000,0.000,0.000,0.000,0.000,0.000,0.000,0.000,0.000,0.000,0.000,0.000,0.000
48.294,3,0,-1.158,1.002,7266.264,-1.292,1.046,109.482,-0.583,0.628,-10.778,70.000,0.000,0.0106833,7821.921,7500.000,0.356,2.066,395.308,-32.526,7265.669,7265.740,-10.809,0.097,0.244,-0.005,-0.046,0.005,0.000,0.000,0.000,-0.015,0.696,0.020,0.718,0.0000000,0.0000000,7262.690,0.000,0.000,0.000,0,00:00:00,0,0.000,0.000,0.000,0.000,0.000,0.000,0.000,0.000,0.000,0.000,0.000,0.000,0.000,0.000
48.395,3,0,-1.168,1.004,7277.216,-1.305,1.058,108.372,-0.737,0.640,-10.601,70.000,0.000,0.0106833,7821.267,7500.000,0.353,1.823,394.683,-32.598,7276.827,7276.899,-10.638,0.146,0.381,0.028,-0.006,-0.023,0.000,0.000,0.000,-0.013,0.695,0.020,0.719,0.0000000,0.0000000,7273.622,0.000,0.000,0.000,0,00:00:00,0,0.000,0.000,0.000,0.000,0.000,0.000,0.000,0.000,0.000,0.000,0.000,0.000,0.000,0.000
48.496,3,0,-1.178,1.007,7286.537,-1.318,1.066,106.128,-0.748,0.611,-10.602,70.000,0.000,0.0106833,7820.705,7500.000,0.349,1.952,394.683,-32.598,7276.827,7276.899,-10.638,0.146,0.381,0.028,-0.006,-0.023,0.000,0.000,0.000,-0.011,0.694,0.019,0.719,0.0000000,0.0000000,7273.622,0.000,0.000,0.000,0,00:00:00,0,0.000,0.000,0.000,0.000,0.000,0.000,0.000,0.000,0.000,0.000,0.000,0.000,0.000,0.000
48.597,3,0,-1.188,1.011,7297.293,-1.318,1.076,105.117,-0.630,0.629,-10.683,70.000,0.000,0.0106833,7806.789,7500.000,0.342,2.017,393.510,-32.737,7297.783,7297.855,-10.715,0.143,0.302,-0.016,0.004,0.031,0.000,0.000,0.000,-0.011,0.696,0.021,0.718,0.0000000,0.0000000,7295.162,0.000,0.000,0.000,0,00:00:00,0,0.000,0.000,0.000,0.000,0.000,0.000,0.000,0.000,0.000,0.000,0.000,0.000,0.000,0.000
48.698,3,0,-1.197,1.014,7308.013,-1.305,1.066,104.150,-0.495,0.441,-10.742,70.000,0.000,0.0106833,7810.127,7500.000,0.339,1.804,392.889,-32.810,7308.909,7308.981,-10.760,-0.042,0.211,0.001,-0.020,-0.025,0.000,0.000,0.000,-0.014,0.698,0.017,0.716,0.0000000,0.0000000,7305.772,0.000,0.000,0.000,0,00:00:00,0,0.000,0.000,0.000,0.000,0.000,0.000,0.000,0.000,0.000,0.000,0.000,0.000,0.000,0.000
48.799,3,0,-1.204,1.016,7318.631,-1.306,1.053,103.172,-0.643,0.401,-10.835,70.000,0.000,0.0106833,7811.444,7500.000,0.336,1.520,392.298,-32.877,7319.511,7319.582,-10.856,-0.079,0.335,0.004,0.005,-0.034,0.000,0.000,0.000,-0.017,0.697,0.015,0.717,0.0000000,0.0000000,7316.275,0.000,0.000,0.000,0,00:00:00,0,0.000,0.000,0.000,0.000,0.000,0.000,0.000,0.000,0.000,0.000,0.000,0.000,0.000,0.000
48.900,3,0,-1.212,1.016,7329.167,-1.328,1.031,102.209,-0.855,0.320,-10.789,70.000,0.000,0.0106833,7812.330,7500.000,0.333,1.621,391.706,-32.946,7330.142,7330.214,-10.817,-0.131,0.474,0.023,0.015,-0.014,0.000,0.000,0.000,-0.018,0.694,0.012,0.719,0.0000000,0.0000000,7326.671,0.000,0.000,0.000,0,00:00:00,0,0.000,0.000,0.000,0.000,0.000,0.000,0.000,0.000,0.000,0.000,0.000,0.000,0.000,0.000
49.001,3,0,-1.219,1.015,7339.561,-1.325,1.032,101.244,-0.614,0.539,-10.473,70.000,0.000,0.0106833,7813.116,7500.000,0.330,2.005,391.143,-33.013,7340.252,7340.323,-10.500,0.061,0.288,-0.037,0.005,-0.013,0.000,0.000,0.000,-0.017,0.696,0.016,0.718,0.0000000,0.0000000,7336.961,0.000,0.000,0.000,0,00:00:00,0,0.000,0.000,0.000,0.000,0.000,0.000,0.000,0.000,0.000,0.000,0.000,0.000,0.000,0.000
49.102,3,0,-1.227,1.013,7349.835,-1.336,1.020,100.244,-0.751,0.413,-10.658,70.000,0.000,0.0106833,7814.090,7500.000,0.327,1.774,390.580,-33.078,7350.390,7350.462,-10.685,-0.076,0.399,-0.005,0.029,-0.043,0.000,0.000,0.000,-0.018,0.695,0.014,0.718,0.0000000,0.0000000,7347.145,0.000,0.000,0.000,0,00:00:00,0,0.000,0.000,0.000,0.000,0.000,0.000,0.000,0.000,0.000,0.000,0.000,0.000,0.000,0.000
49.203,3,0,-1.235,1.011,7359.945,-1.355,1.016,99.219,-0.842,0.498,-10.441,70.000,0.000,0.0106833,7817.055,7500.000,0.323,1.874,390.040,-33.143,7360.111,7360.183,-10.477,0.032,0.448,0.014,0.003,0.003,0.000,0.000,0.000,-0.016,0.694,0.015,0.720,0.0000000,0.0000000,7357.222,0.000,0.000,0.000,0,00:00:00,0,0.000,0.000,0.000,0.000,0.000,0.000,0.000,0.000,0.000,0.000,0.000,0.000,0.000,0.000
49.304,3,0,-1.243,1.009,7369.966,-1.351,1.004,98.200,-0.613,0.408,-10.481,70.000,0.000,0.0106833,7817.293,7500.000,0.320,2.153,389.480,-33.209,7370.220,7370.291,-10.503,-0.054,0.274,0.006,-0.007,0.021,0.000,0.000,0.000,-0.016,0.695,0.015,0.718,0.0000000,0.0000000,7367.193,0.000,0.000,0.000,0,00:00:00,0,0.000,0.000,0.000,0.000,0.000,0.000,0.000,0.000,0.000,0.000,0.000,0.000,0.000,0.000
49.405,3,0,-1.250,1.006,7379.880,-1.354,0.993,97.148,-0.686,0.421,-10.796,70.000,0.000,0.0106833,7817.842,7500.000,0.317,1.846,388.931,-33.276,7380.126,7380.197,-10.820,-0.059,0.352,-0.005,0.031,0.001,0.000,0.000,0.000,-0.017,0.696,0.015,0.718,0.0000000,0.0000000,7377.059,0.000,0.000,0.000,0,00:00:00,0,0.000,0.000,0.000,0.000,0.000,0.000,0.000,0.000,0.000,0.000,0.000,0.000,0.000,0.000
49.506,3,0,-1.256,1.001,7389.695,-1.355,0.975,96.141,-0.666,0.343,-10.377,70.000,0.000,0.0106833,7817.825,7500.000,0.314,1.763,388.387,-33.339,7389.966,7390.037,-10.398,-0.122,0.333,-0.006,-0.009,-0.016,0.000,0.000,0.000,-0.019,0.696,0.013,0.718,0.0000000,0.0000000,7386.819,0.000,0.000,0.000,0,00:00:00,0,0.000,0.000,0.000,0.000,0.000,0.000,0.000,0.000,0.000,0.000,0.000,0.000,0.000,0.000
49.607,3,0,-1.262,0.997,7399.393,-1.351,0.983,95.105,-0.627,0.611,-10.566,70.000,0.000,0.0106833,7818.056,7500.000,0.310,1.822,387.856,-33.400,7399.578,7399.649,-10.598,0.122,0.297,-0.010,-0.029,0.013,0.000,0.000,0.000,-0.015,0.696,0.017,0.718,0.0000000,0.0000000,7396.474,0.000,0.000,0.000,0,00:00:00,0,0.000,0.000,0.000,0.000,0.000,0.000,0.000,0.000,0.000,0.000,0.000,0.000,0.000,0.000
49.708,3,0,-1.268,0.993,7409.003,-1.362,0.979,94.100,-0.777,0.478,-10.377,70.000,0.000,0.0106833,7820.525,7500.000,0.307,1.796,387.320,-33.461,7409.278,7409.349,-10.409,0.020,0.411,0.021,0.000,0.006,0.000,0.000,0.000,-0.014,0.694,0.017,0.719,0.0000000,0.0000000,7406.023,0.000,0.000,0.000,0,00:00:00,0,0.000,0.000,0.000,0.000,0.000,0.000,0.000,0.000,0.000,0.000,0.000,0.000,0.000,0.000
49.809,3,0,-1.274,0.989,7418.484,-1.363,0.967,93.065,-0.680,0.400,-10.477,70.000,0.000,0.0106833,7820.921,7500.000,0.304,2.027,386.806,-33.526,7418.603,7418.674,-10.502,-0.066,0.327,-0.006,-0.007,-0.012,0.000,0.000,0.000,-0.016,0.695,0.015,0.719,0.0000000,0.0000000,7415.468,0.000,0.000,0.000,0,00:00:00,0,0.000,0.000,0.000,0.000,0.000,0.000,0.000,0.000,0.000,0.000,0.000,0.000,0.000,0.000
49.910,3,0,-1.280,0.985,7427.842,-1.379,0.980,92.020,-0.835,0.645,-10.428,70.000,0.000,0.0106833,7821.090,7500.000,0.300,1.924,386.297,-33.584,7427.838,7427.909,-10.470,0.207,0.441,0.031,-0.010,0.017,0.000,0.000,0.000,-0.011,0.693,0.018,0.720,0.0000000,0.0000000,7424.808,0.000,0.000,0.000,0,00:00:00,0,0.000,0.000,0.000,0.000,0.000,0.000,0.000,0.000,0.000,0.000,0.000,0.000,0.000,0.000
50.011,3,0,-1.286,0.982,7437.115,-1.384,0.966,90.999,-0.718,0.377,-10.337,70.000,0.000,0.0106833,7820.839,7500.000,0.297,2.197,385.780,-33.648,7437.239,7437.311,-10.363,-0.083,0.332,-0.031,-0.042,-0.027,0.000,0.000,0.000,-0.016,0.694,0.016,0.720,0.0000000,0.0000000,7434.042,0.000,0.000,0.000,0,00:00:00,0,0.000,0.000,0.000,0.000,0.000,0.000,0.000,0.000,0.000,0.000,0.000,0.000,0.000,0.000
50.112,3,0,-1.293,0.977,7446.299,-1.402,0.948,89.975,-0.858,0.339,-10.491,70.000,0.000,0.0106833,7820.900,7500.000,0.294,2.137,385.270,-33.708,7446.515,7446.587,-10.522,-0.112,0.445,0.013,0.013,-0.011,0.000,0.000,0.000,-0.017,0.693,0.013,0.721,0.0000000,0.0000000,7443.172,0.000,0.000,0.000,0,00:00:00,0,0.000,0.000,0.000,0.000,0.000,0.000,0.000,0.000,0.000,0.000,0.000,0.000,0.000,0.000
50.213,3,0,-1.299,0.972,7455.372,-1.397,0.953,88.983,-0.634,0.559,-10.096,70.000,0.000,0.0106833,7823.289,7500.000,0.291,2.241,384.776,-33.767,7455.527,7455.599,-10.126,0.128,0.297,0.007,0.014,-0.007,0.000,0.000,0.000,-0.014,0.695,0.016,0.719,0.0000000,0.0000000,7452.198,0.000,0.000,0.000,0,00:00:00,0,0.000,0.000,0.000,0.000,0.000,0.000,0.000,0.000,0.000,0.000,0.000,0.000,0.000,0.000
50.314,3,0,-1.305,0.969,7464.325,-1.399,0.960,87.950,-0.712,0.582,-10.360,70.000,0.000,0.0106833,7823.983,7500.000,0.287,1.922,384.291,-33.824,7464.366,7464.438,-10.394,0.133,0.356,-0.003,-0.021,0.029,0.000,0.000,0.000,-0.012,0.695,0.019,0.719,0.0000000,0.0000000,7461.120,0.000,0.000,0.000,0,00:00:00,0,0.000,0.000,0.000,0.000,0.000,0.000,0.000,0.000,0.000,0.000,0.000,0.000,0.000,0.000
50.415,3,0,-1.311,0.965,7473.096,-1.406,0.946,86.844,-0.760,0.371,-10.528,70.000,0.000,0.0106833,7824.002,7500.000,0.284,2.000,383.836,-33.879,7472.669,7472.741,-10.555,-0.030,0.388,0.050,0.010,-0.007,0.000,0.000,0.000,-0.012,0.694,0.015,0.719,0.0000000,0.0000000,7469.937,0.000,0.000,0.000,0,00:00:00,0,0.000,0.000,0.000,0.000,0.000,0.000,0.000,0.000,0.000,0.000,0.000,0.000,0.000,0.000
50.516,3,0,-1.317,0.961,7481.813,-1.402,0.948,85.782,-0.646,0.521,-10.508,70.000,0.000,0.0106833,7823.218,7500.000,0.281,2.024,383.340,-33.941,7481.738,7481.809,-10.536,0.099,0.308,-0.020,-0.004,0.010,0.000,0.000,0.000,-0.011,0.695,0.017,0.718,0.0000000,0.0000000,7478.650,0.000,0.000,0.000,0,00:00:00,0,0.000,0.000,0.000,0.000,0.000,0.000,0.000,0.000,0.000,0.000,0.000,0.000,0.000,0.000
50.617,3,0,-1.322,0.957,7490.425,-1.417,0.935,84.741,-0.850,0.373,-10.305,70.000,0.000,0.0106833,7822.844,7500.000,0.277,1.861,382.869,-33.995,7490.354,7490.425,-10.337,-0.029,0.463,0.012,0.021,-0.001,0.000,0.000,0.000,-0.013,0.694,0.015,0.720,0.0000000,0.0000000,7487.259,0.000,0.000,0.000,0,00:00:00,0,0.000,0.000,0.000,0.000,0.000,0.000,0.000,0.000,0.000,0.000,0.000,0.000,0.000,0.000
50.718,3,0,-1.328,0.952,7498.968,-1.423,0.925,83.726,-0.756,0.407,-10.325,70.000,0.000,0.0106833,7824.897,7500.000,0.274,2.151,382.390,-34.052,7499.123,7499.195,-10.354,0.016,0.376,0.010,0.002,-0.013,0.000,0.000,0.000,-0.013,0.694,0.014,0.720,0.0000000,0.0000000,7495.765,0.000,0.000,0.000,0,00:00:00,0,0.000,0.000,0.000,0.000,0.000,0.000,0.000,0.000,0.000,0.000,0.000,0.000,0.000,0.000
50.819,3,0,-1.334,0.947,7507.372,-1.437,0.923,82.682,-0.843,0.480,-10.342,70.000,0.000,0.0106833,7825.164,7500.000,0.271,2.111,381.943,-34.108,7507.305,7507.377,-10.378,0.068,0.426,-0.019,-0.031,-0.001,0.000,0.000,0.000,-0.012,0.693,0.016,0.721,0.0000000,0.0000000,7504.167,0.000,0.000,0.000,0,00:00:00,0,0.000,0.000,0.000,0.000,0.000,0.000,0.000,0.000,0.000,0.000,0.000,0.000,0.000,0.000
50.920,3,0,-1.340,0.942,7515.689,-1.423,0.911,81.657,-0.565,0.375,-10.283,70.000,0.000,0.0106833,7824.936,7500.000,0.267,2.318,381.484,-34.161,7515.734,7515.805,-10.302,-0.037,0.239,-0.004,0.000,0.026,0.000,0.000,0.000,-0.013,0.696,0.015,0.718,0.0000000,0.0000000,7512.465,0.000,0.000,0.000,0,00:00:00,0,0.000,0.000,0.000,0.000,0.000,0.000,0.000,0.000,0.000,0.000,0.000,0.000,0.000,0.000
51.021,3,0,-1.343,0.937,7523.921,-1.400,0.892,80.653,-0.478,0.301,-10.214,70.000,0.000,0.0106833,7825.084,7500.000,0.264,1.822,381.029,-34.213,7524.075,7524.147,-10.227,-0.067,0.210,0.040,0.003,-0.027,0.000,0.000,0.000,-0.014,0.698,0.012,0.716,0.0000000,0.0000000,7520.661,0.000,0.000,0.000,0,00:00:00,0,0.000,0.000,0.000,0.000,0.000,0.000,0.000,0.000,0.000,0.000,0.000,0.000,0.000,0.000
51.122,3,0,-1.345,0.931,7532.013,-1.388,0.898,79.609,-0.588,0.553,-10.325,70.000,0.000,0.0106833,7825.200,7500.000,0.261,1.492,380.602,-34.266,7531.933,7532.004,-10.350,0.185,0.314,0.008,0.026,0.015,0.000,0.000,0.000,-0.010,0.697,0.015,0.716,0.0000000,0.0000000,7528.753,0.000,0.000,0.000,0,00:00:00,0,0.000,0.000,0.000,0.000,0.000,0.000,0.000,0.000,0.000,0.000,0.000,0.000,0.000,0.000
51.223,3,0,-1.344,0.925,7539.992,-1.355,0.893,78.555,-0.383,0.435,-10.374,70.000,0.000,0.0106833,7827.250,7500.000,0.257,1.540,380.170,-34.319,7539.869,7539.940,-10.388,0.076,0.169,0.010,0.012,0.030,0.000,0.000,0.000,-0.009,0.700,0.015,0.714,0.0000000,0.0000000,7536.742,0.000,0.000,0.000,0,00:00:00,0,0.000,0.000,0.000,0.000,0.000,0.000,0.000,0.000,0.000,0.000,0.000,0.000,0.000,0.000
51.324,3,0,-1.341,0.919,7547.872,-1.335,0.863,77.517,-0.502,0.190,-10.265,70.000,0.000,0.0106833,7827.167,7500.000,0.254,1.201,379.740,-34.372,7547.788,7547.860,-10.274,-0.190,0.272,-0.026,0.026,0.031,0.000,0.000,0.000,-0.014,0.699,0.012,0.715,0.0000000,0.0000000,7544.628,0.000,0.000,0.000,0,00:00:00,0,0.000,0.000,0.000,0.000,0.000,0.000,0.000,0.000,0.000,0.000,0.000,0.000,0.000,0.000
51.425,3,0,-1.337,0.911,7555.690,-1.317,0.852,76.490,-0.526,0.370,-10.478,70.000,0.000,0.0106833,7826.992,7500.000,0.251,1.283,379.301,-34.422,7555.880,7555.951,-10.495,-0.018,0.265,0.001,-0.020,0.020,0.000,0.000,0.000,-0.013,0.698,0.013,0.716,0.0000000,0.0000000,7552.411,0.000,0.000,0.000,0,00:00:00,0,0.000,0.000,0.000,0.000,0.000,0.000,0.000,0.000,0.000,0.000,0.000,0.000,0.000,0.000
51.526,3,0,-1.331,0.903,7563.365,-1.300,0.847,75.451,-0.532,0.421,-10.305,70.000,0.000,0.0106833,7826.826,7500.000,0.247,1.423,378.899,-34.473,7563.303,7563.375,-10.323,-0.003,0.268,-0.043,-0.003,-0.012,0.000,0.000,0.000,-0.015,0.698,0.014,0.716,0.0000000,0.0000000,7560.092,0.000,0.000,0.000,0,00:00:00,0,0.000,0.000,0.000,0.000,0.000,0.000,0.000,0.000,0.000,0.000,0.000,0.000,0.000,0.000
51.627,3,0,-1.323,0.896,7570.886,-1.262,0.837,74.380,-0.316,0.373,-10.250,70.000,0.000,0.0106833,7826.436,7500.000,0.244,1.464,378.507,-34.523,7570.526,7570.597,-10.261,-0.054,0.114,-0.003,-0.025,0.025,0.000,0.000,0.000,-0.015,0.700,0.014,0.714,0.0000000,0.0000000,7567.670,0.000,0.000,0.000,0,00:00:00,0,0.000,0.000,0.000,0.000,0.000,0.000,0.000,0.000,0.000,0.000,0.000,0.000,0.000,0.000
51.728,3,0,-1.313,0.888,7578.345,-1.220,0.825,73.354,-0.278,0.350,-10.146,70.000,0.000,0.0106833,7828.305,7500.000,0.241,1.122,378.089,-34.572,7578.263,7578.334,-10.155,-0.057,0.117,0.015,-0.003,0.028,0.000,0.000,0.000,-0.015,0.701,0.013,0.713,0.0000000,0.0000000,7575.146,0.000,0.000,0.000,0,00:00:00,0,0.000,0.000,0.000,0.000,0.000,0.000,0.000,0.000,0.000,0.000,0.000,0.000,0.000,0.000
51.829,3,0,-1.301,0.880,7585.699,-1.218,0.837,72.332,-0.660,0.575,-10.102,70.000,0.000,0.0106833,7828.328,7500.000,0.237,0.900,377.691,-34.618,7585.609,7585.681,-10.132,0.146,0.383,-0.019,-0.021,0.021,0.000,0.000,0.000,-0.012,0.697,0.018,0.717,0.0000000,0.0000000,7582.519,0.000,0.000,0.000,0,00:00:00,0,0.000,0.000,0.000,0.000,0.000,0.000,0.000,0.000,0.000,0.000,0.000,0.000,0.000,0.000
51.930,3,0,-1.290,0.874,7592.920,-1.217,0.828,71.270,-0.676,0.370,-10.268,70.000,0.000,0.0106833,7828.094,7500.000,0.234,1.593,377.311,-34.668,7592.646,7592.718,-10.291,-0.084,0.349,-0.019,-0.020,0.039,0.000,0.000,0.000,-0.015,0.696,0.016,0.718,0.0000000,0.0000000,7589.790,0.000,0.000,0.000,0,00:00:00,0,0.000,0.000,0.000,0.000,0.000,0.000,0.000,0.000,0.000,0.000,0.000,0.000,0.000,0.000
52.031,3,0,-1.281,0.868,7600.074,-1.216,0.842,70.247,-0.662,0.599,-10.195,70.000,0.000,0.0106833,7827.514,7500.000,0.231,1.825,376.911,-34.715,7600.055,7600.127,-10.227,0.137,0.326,-0.009,-0.029,-0.009,0.000,0.000,0.000,-0.013,0.695,0.019,0.719,0.0000000,0.0000000,7596.959,0.000,0.000,0.000,0,00:00:00,0,0.000,0.000,0.000,0.000,0.000,0.000,0.000,0.000,0.000,0.000,0.000,0.000,0.000,0.000
52.132,3,0,-1.271,0.864,7607.129,-1.211,0.836,69.243,-0.616,0.397,-10.011,70.000,0.000,0.0106833,7827.186,7500.000,0.227,1.909,376.530,-34.762,7607.122,7607.193,-10.033,-0.094,0.302,-0.042,0.010,-0.031,0.000,0.000,0.000,-0.018,0.696,0.017,0.718,0.0000000,0.0000000,7604.026,0.000,0.000,0.000,0,00:00:00,0,0.000,0.000,0.000,0.000,0.000,0.000,0.000,0.000,0.000,0.000,0.000,0.000,0.000,0.000
52.233,3,0,-1.263,0.859,7614.124,-1.223,0.839,68.266,-0.785,0.478,-10.070,70.000,0.000,0.0106833,7829.553,7500.000,0.224,1.788,376.139,-34.809,7614.376,7614.447,-10.103,-0.018,0.417,-0.003,-0.000,-0.024,0.000,0.000,0.000,-0.018,0.694,0.017,0.720,0.0000000,0.0000000,7610.991,0.000,0.000,0.000,0,00:00:00,0,0.000,0.000,0.000,0.000,0.000,0.000,0.000,0.000,0.000,0.000,0.000,0.000,0.000,0.000
52.334,3,0,-1.256,0.856,7620.999,-1.201,0.851,67.282,-0.445,0.566,-9.972,70.000,0.000,0.0106833,7829.805,7500.000,0.221,2.077,375.776,-34.853,7621.120,7621.191,-9.996,0.030,0.169,-0.044,-0.020,-0.017,0.000,0.000,0.000,-0.019,0.697,0.019,0.717,0.0000000,0.0000000,7617.855,0.000,0.000,0.000,0,00:00:00,0,0.000,0.000,0.000,0.000,0.000,0.000,0.000,0.000,0.000,0.000,0.000,0.000,0.000,0.000
