State - Time (s),State - Stage,State - Stage,State - PX (m),State - PY (m),State - PZ (m),State - VX (m/s),State - VY (m/s),State - VZ (m/s),State - AX (m/s/s),State - AY (m/s/s),State - AZ (m/s/s),State - Actuation Angle (deg),State - Acutal Angle (deg),State - CdA,State - Est Apo (m),State - Target Apogee (m),State - Mach Number,State - Tilt [deg],MockBarometer - Pres (hPa),MockBarometer - Temp (C),MockBarometer - Alt ASL (m),MockBarometer - Alt AGL (m),MockIMU - AccX (m/s^2),MockIMU - AccY (m/s^2),MockIMU - AccZ (m/s^2),MockIMU - GyroX (rad/s),MockIMU - GyroY (rad/s),MockIMU - GyroZ (rad/s),MockIMU - MagX (uT),MockIMU - MagY (uT),MockIMU - MagZ (uT),MockIMU - OriX,MockIMU - OriY,MockIMU - OriZ,MockIMU - OriW,MockGPS - Lat,MockGPS - Lon,MockGPS - Alt (m),MockGPS - Disp X (m),MockGPS - Disp Y (m),MockGPS - Disp Z (m),MockGPS - Fix Quality,MockGPS - Time of Day,E5 - Rel Steps,BR - Battery Voltage (V),BR - ALT (m),BR - PRES (Pa),BR - TEMP (C),BR - VEL (m/s),BR - ANG (deg),BR - ACCX (m/s^2),BR - ACCY (m/s^2),BR - ACCZ (m/s^2),BR - GYROX (rad/s),BR - GYROY (rad/s),BR - GYROZ (rad/s),BR - ROLL (deg),BR - TILT (deg)
21.121,1,0,-1.283,-0.086,-10.752,-0.941,-0.036,-2.043,3.854,0.847,96.687,0.000,0.000,0.0103675,0.000,7500.000,0.039,2.519,1013.058,15.039,1.601,1.584,96.767,0.001,0.395,-0.006,0.000,-0.007,0.000,0.000,0.000,0.002,0.691,-0.004,0.722,0.0000000,0.0000000,1.451,0.000,0.000,0.000,0,00:00:00,0,0.000,0.000,0.000,0.000,0.000,0.000,0.000,0.000,0.000,0.000,0.000,0.000,0.000,0.000
21.222,1,0,-1.226,-0.077,-8.435,-0.457,0.065,9.341,4.150,0.956,97.737,0.000,0.000,0.0103675,0.000,7500.000,0.007,2.518,1012.769,15.023,4.002,3.985,97.829,-0.055,0.371,0.017,-0.023,0.017,0.000,0.000,0.000,0.003,0.691,-0.004,0.723,0.0000000,0.0000000,3.883,0.000,0.000,0.000,0,00:00:00,0,0.000,0.000,0.000,0.000,0.000,0.000,0.000,0.000,0.000,0.000,0.000,0.000,0.000,0.000
21.323,1,0,-1.132,-0.058,-4.961,0.014,0.188,20.815,4.064,1.188,98.596,0.000,0.000,0.0103675,0.000,7500.000,0.028,2.649,1012.349,15.003,7.499,7.482,98.686,0.132,0.276,0.005,0.023,0.029,0.000,0.000,0.000,0.004,0.691,-0.003,0.722,0.0000000,0.0000000,7.305,0.000,0.000,0.000,0,00:00:00,0,0.000,0.000,0.000,0.000,0.000,0.000,0.000,0.000,0.000,0.000,0.000,0.000,0.000,0.000
21.424,1,0,-1.004,-0.030,-0.977,0.455,0.313,31.804,3.844,1.225,98.604,0.000,0.000,0.0103675,0.000,7500.000,0.061,2.520,1012.349,15.003,7.499,7.482,98.686,0.132,0.276,0.005,0.023,0.029,0.000,0.000,0.000,0.005,0.692,-0.002,0.722,0.0000000,0.0000000,7.305,0.000,0.000,0.000,0,00:00:00,0,0.000,0.000,0.000,0.000,0.000,0.000,0.000,0.000,0.000,0.000,0.000,0.000,0.000,0.000
21.525,1,0,-0.849,0.007,3.403,0.866,0.440,42.260,3.624,1.263,98.612,0.000,0.000,0.0103675,0.000,7500.000,0.094,2.389,1012.349,15.003,7.499,7.482,98.686,0.132,0.276,0.005,0.023,0.029,0.000,0.000,0.000,0.007,0.693,-0.002,0.721,0.0000000,0.0000000,7.305,0.000,0.000,0.000,0,00:00:00,0,0.000,0.000,0.000,0.000,0.000,0.000,0.000,0.000,0.000,0.000,0.000,0.000,0.000,0.000
21.626,1,0,-0.671,0.053,10.366,1.290,0.562,54.122,3.845,1.228,101.333,0.000,0.000,0.0103675,0.000,7500.000,0.124,2.259,1010.399,14.897,23.746,23.729,101.414,0.157,0.189,-0.010,-0.003,-0.016,0.000,0.000,0.000,0.006,0.693,-0.002,0.721,0.0000000,0.0000000,23.608,0.000,0.000,0.000,0,00:00:00,0,0.000,0.000,0.000,0.000,0.000,0.000,0.000,0.000,0.000,0.000,0.000,0.000,0.000,0.000
21.727,1,0,-0.471,0.104,17.384,1.706,0.671,65.130,3.872,1.137,101.334,0.000,0.000,0.0103675,0.000,7500.000,0.159,2.276,1010.399,14.897,23.746,23.729,101.414,0.157,0.189,-0.010,-0.003,-0.016,0.000,0.000,0.000,0.005,0.693,-0.002,0.721,0.0000000,0.0000000,23.608,0.000,0.000,0.000,0,00:00:00,0,0.000,0.000,0.000,0.000,0.000,0.000,0.000,0.000,0.000,0.000,0.000,0.000,0.000,0.000
21.828,1,0,-0.253,0.161,26.619,2.081,0.796,77.151,3.577,1.323,103.267,0.000,0.000,0.0103675,0.000,7500.000,0.192,2.292,1008.487,14.792,39.706,39.688,103.336,0.055,0.388,0.026,0.017,0.013,0.000,0.000,0.000,0.006,0.693,-0.002,0.721,0.0000000,0.0000000,39.598,0.000,0.000,0.000,0,00:00:00,0,0.000,0.000,0.000,0.000,0.000,0.000,0.000,0.000,0.000,0.000,0.000,0.000,0.000,0.000
21.929,1,0,-0.020,0.225,36.942,2.492,0.931,89.172,4.061,1.458,104.225,0.000,0.000,0.0103675,0.000,7500.000,0.227,2.195,1007.348,14.728,49.224,49.207,104.314,0.162,0.268,0.001,-0.031,-0.006,0.000,0.000,0.000,0.006,0.692,-0.003,0.722,0.0000000,0.0000000,49.157,0.000,0.000,0.000,0,00:00:00,0,0.000,0.000,0.000,0.000,0.000,0.000,0.000,0.000,0.000,0.000,0.000,0.000,0.000,0.000
22.030,1,0,0.227,0.295,48.352,2.868,1.048,101.188,3.833,1.314,105.159,0.000,0.000,0.0103675,0.000,7500.000,0.263,2.374,1006.080,14.658,59.831,59.814,105.237,-0.001,0.378,0.001,0.015,0.004,0.000,0.000,0.000,0.006,0.693,-0.003,0.721,0.0000000,0.0000000,59.771,0.000,0.000,0.000,0,00:00:00,0,0.000,0.000,0.000,0.000,0.000,0.000,0.000,0.000,0.000,0.000,0.000,0.000,0.000,0.000
22.131,1,0,0.485,0.367,60.822,3.237,1.142,113.156,3.912,1.123,105.849,0.000,0.000,0.0103675,0.000,7500.000,0.298,2.289,1004.707,14.581,71.327,71.310,105.926,-0.029,0.338,-0.016,-0.001,0.014,0.000,0.000,0.000,0.006,0.693,-0.002,0.721,0.0000000,0.0000000,71.447,0.000,0.000,0.000,0,00:00:00,0,0.000,0.000,0.000,0.000,0.000,0.000,0.000,0.000,0.000,0.000,0.000,0.000,0.000,0.000
22.232,1,0,0.752,0.442,74.405,3.596,1.244,125.142,3.953,1.238,106.763,0.000,0.000,0.0103675,0.000,7500.000,0.334,2.295,1003.160,14.499,84.297,84.280,106.843,0.006,0.316,0.006,0.002,-0.008,0.000,0.000,0.000,0.006,0.693,-0.002,0.721,0.0000000,0.0000000,84.197,0.000,0.000,0.000,0,00:00:00,0,0.000,0.000,0.000,0.000,0.000,0.000,0.000,0.000,0.000,0.000,0.000,0.000,0.000,0.000
22.333,1,0,1.028,0.519,89.050,3.983,1.349,137.098,4.372,1.310,107.597,0.000,0.000,0.0103675,0.000,7500.000,0.369,2.286,1001.526,14.408,98.010,97.993,107.694,-0.016,0.331,0.007,-0.038,-0.027,0.000,0.000,0.000,0.005,0.691,-0.003,0.722,0.0000000,0.0000000,98.027,0.000,0.000,0.000,0,00:00:00,0,0.000,0.000,0.000,0.000,0.000,0.000,0.000,0.000,0.000,0.000,0.000,0.000,0.000,0.000
22.434,1,0,1.313,0.598,104.778,4.345,1.446,149.058,4.269,1.281,108.606,0.000,0.000,0.0103675,0.000,7500.000,0.404,2.501,999.751,14.310,112.932,112.915,108.696,-0.097,0.350,0.003,0.012,-0.019,0.000,0.000,0.000,0.005,0.692,-0.004,0.722,0.0000000,0.0000000,112.947,0.000,0.000,0.000,0,00:00:00,0,0.000,0.000,0.000,0.000,0.000,0.000,0.000,0.000,0.000,0.000,0.000,0.000,0.000,0.000
22.535,1,0,1.603,0.679,119.339,4.678,1.544,159.246,4.141,1.320,108.610,0.000,0.000,0.0103675,0.000,7500.000,0.440,2.435,999.751,14.310,112.932,112.915,108.696,-0.097,0.350,0.003,0.012,-0.019,0.000,0.000,0.000,0.004,0.692,-0.005,0.722,0.0000000,0.0000000,112.947,0.000,0.000,0.000,0,00:00:00,0,0.000,0.000,0.000,0.000,0.000,0.000,0.000,0.000,0.000,0.000,0.000,0.000,0.000,0.000
22.636,1,0,1.897,0.761,137.385,5.037,1.636,171.425,4.555,1.319,110.238,0.000,0.000,0.0103675,0.000,7500.000,0.470,2.369,995.828,14.091,145.986,145.969,110.339,-0.007,0.302,-0.011,-0.027,-0.026,0.000,0.000,0.000,0.003,0.691,-0.005,0.722,0.0000000,0.0000000,146.090,0.000,0.000,0.000,0,00:00:00,0,0.000,0.000,0.000,0.000,0.000,0.000,0.000,0.000,0.000,0.000,0.000,0.000,0.000,0.000
22.737,1,0,2.197,0.843,156.524,5.420,1.731,183.583,4.947,1.378,111.066,0.000,0.000,0.0103675,0.000,7500.000,0.506,2.525,993.664,13.973,164.264,164.246,111.185,0.086,0.225,-0.006,-0.026,-0.038,0.000,0.000,0.000,0.002,0.690,-0.007,0.723,0.0000000,0.0000000,164.330,0.000,0.000,0.000,0,00:00:00,0,0.000,0.000,0.000,0.000,0.000,0.000,0.000,0.000,0.000,0.000,0.000,0.000,0.000,0.000
22.838,1,0,2.502,0.926,176.754,5.755,1.812,195.725,4.633,1.288,111.959,0.000,0.000,0.0103675,0.000,7500.000,0.542,2.671,991.376,13.847,183.624,183.606,112.061,-0.096,0.333,0.008,0.022,0.008,0.000,0.000,0.000,0.002,0.691,-0.007,0.723,0.0000000,0.0000000,183.693,0.000,0.000,0.000,0,00:00:00,0,0.000,0.000,0.000,0.000,0.000,0.000,0.000,0.000,0.000,0.000,0.000,0.000,0.000,0.000
22.939,1,0,2.808,1.010,198.159,6.059,1.924,207.920,4.486,1.645,112.887,0.000,0.000,0.0103675,0.000,7500.000,0.578,2.544,988.891,13.711,204.687,204.670,112.988,0.061,0.387,0.016,0.011,-0.021,0.000,0.000,0.000,0.002,0.692,-0.008,0.722,0.0000000,0.0000000,204.187,0.000,0.000,0.000,0,00:00:00,0,0.000,0.000,0.000,0.000,0.000,0.000,0.000,0.000,0.000,0.000,0.000,0.000,0.000,0.000
23.040,1,0,3.114,1.097,220.523,6.389,2.037,219.973,4.904,1.691,113.530,0.000,0.000,0.0103675,0.000,7500.000,0.614,2.479,986.458,13.572,225.356,225.339,113.648,0.166,0.336,-0.007,-0.030,-0.014,0.000,0.000,0.000,0.001,0.691,-0.008,0.723,0.0000000,0.0000000,225.821,0.000,0.000,0.000,0,00:00:00,0,0.000,0.000,0.000,0.000,0.000,0.000,0.000,0.000,0.000,0.000,0.000,0.000,0.000,0.000
23.141,1,0,3.421,1.185,244.047,6.699,2.131,232.044,4.867,1.556,114.152,0.000,0.000,0.0103675,0.000,7500.000,0.650,2.651,983.738,13.420,248.511,248.493,114.265,0.071,0.437,-0.004,-0.003,-0.004,0.000,0.000,0.000,0.001,0.690,-0.008,0.723,0.0000000,0.0000000,248.602,0.000,0.000,0.000,0,00:00:00,0,0.000,0.000,0.000,0.000,0.000,0.000,0.000,0.000,0.000,0.000,0.000,0.000,0.000,0.000
23.242,1,0,3.726,1.273,268.641,6.986,2.222,244.102,4.804,1.570,115.175,0.000,0.000,0.0103675,0.000,7500.000,0.685,2.668,980.967,13.262,272.154,272.137,115.285,0.030,0.345,0.003,0.017,-0.016,0.000,0.000,0.000,0.000,0.691,-0.009,0.723,0.0000000,0.0000000,272.537,0.000,0.000,0.000,0,00:00:00,0,0.000,0.000,0.000,0.000,0.000,0.000,0.000,0.000,0.000,0.000,0.000,0.000,0.000,0.000
23.343,1,0,4.027,1.361,290.835,7.237,2.312,253.459,4.601,1.611,115.183,0.000,0.000,0.0103675,0.000,7500.000,0.721,2.569,980.967,13.262,272.154,272.137,115.285,0.030,0.345,0.003,0.017,-0.016,0.000,0.000,0.000,0.000,0.692,-0.010,0.722,0.0000000,0.0000000,272.537,0.000,0.000,0.000,0,00:00:00,0,0.000,0.000,0.000,0.000,0.000,0.000,0.000,0.000,0.000,0.000,0.000,0.000,0.000,0.000
23.444,1,0,4.323,1.450,317.968,7.500,2.423,265.923,4.876,1.859,116.459,0.000,0.000,0.0103675,0.000,7500.000,0.749,2.469,974.941,12.927,323.751,323.734,116.575,0.189,0.360,0.007,-0.020,0.011,0.000,0.000,0.000,0.001,0.691,-0.009,0.723,0.0000000,0.0000000,323.901,0.000,0.000,0.000,0,00:00:00,0,0.000,0.000,0.000,0.000,0.000,0.000,0.000,0.000,0.000,0.000,0.000,0.000,0.000,0.000
23.545,1,0,4.614,1.539,346.266,7.721,2.514,278.397,4.619,1.712,117.281,0.000,0.000,0.0103675,0.000,7500.000,0.786,2.585,971.720,12.746,351.444,351.426,117.384,-0.073,0.390,0.009,0.023,0.001,0.000,0.000,0.000,0.001,0.692,-0.010,0.722,0.0000000,0.0000000,351.345,0.000,0.000,0.000,0,00:00:00,0,0.000,0.000,0.000,0.000,0.000,0.000,0.000,0.000,0.000,0.000,0.000,0.000,0.000,0.000
23.646,1,0,4.896,1.629,375.695,7.909,2.606,290.841,4.439,1.766,117.967,0.000,0.000,0.0103675,0.000,7500.000,0.823,2.455,968.400,12.561,380.062,380.045,118.063,-0.034,0.291,0.000,0.026,-0.002,0.000,0.000,0.000,0.001,0.693,-0.010,0.721,0.0000000,0.0000000,379.973,0.000,0.000,0.000,0,00:00:00,0,0.000,0.000,0.000,0.000,0.000,0.000,0.000,0.000,0.000,0.000,0.000,0.000,0.000,0.000
23.747,1,0,5.166,1.721,406.290,8.019,2.731,303.285,3.802,2.139,118.656,0.000,0.000,0.0103675,0.000,7500.000,0.860,2.306,964.927,12.366,410.081,410.064,118.736,0.027,0.385,0.025,0.048,-0.009,0.000,0.000,0.000,0.002,0.694,-0.011,0.719,0.0000000,0.0000000,409.791,0.000,0.000,0.000,0,00:00:00,0,0.000,0.000,0.000,0.000,0.000,0.000,0.000,0.000,0.000,0.000,0.000,0.000,0.000,0.000
23.848,1,0,5.420,1.815,438.056,8.140,2.855,315.769,4.044,2.179,119.720,0.000,0.000,0.0103675,0.000,7500.000,0.897,2.034,961.327,12.163,441.289,441.271,119.808,-0.099,0.275,0.013,-0.008,0.010,0.000,0.000,0.000,0.002,0.694,-0.011,0.720,0.0000000,0.0000000,440.806,0.000,0.000,0.000,0,00:00:00,0,0.000,0.000,0.000,0.000,0.000,0.000,0.000,0.000,0.000,0.000,0.000,0.000,0.000,0.000
23.949,1,0,5.660,1.911,470.958,8.209,2.976,328.197,3.665,2.203,120.121,0.000,0.000,0.0103675,0.000,7500.000,0.935,2.078,957.634,11.949,473.405,473.388,120.197,-0.202,0.314,0.010,0.030,0.003,0.000,0.000,0.000,0.003,0.695,-0.011,0.719,0.0000000,0.0000000,473.026,0.000,0.000,0.000,0,00:00:00,0,0.000,0.000,0.000,0.000,0.000,0.000,0.000,0.000,0.000,0.000,0.000,0.000,0.000,0.000
24.050,1,0,5.881,2.010,505.030,8.236,3.106,340.615,3.361,2.345,120.667,0.000,0.000,0.0103675,0.000,7500.000,0.972,1.909,953.790,11.731,506.945,506.928,120.737,-0.026,0.246,-0.003,0.033,0.024,0.000,0.000,0.000,0.004,0.696,-0.010,0.718,0.0000000,0.0000000,506.455,0.000,0.000,0.000,0,00:00:00,0,0.000,0.000,0.000,0.000,0.000,0.000,0.000,0.000,0.000,0.000,0.000,0.000,0.000,0.000
24.151,1,0,6.085,2.114,540.236,8.287,3.285,353.018,3.700,2.888,121.434,0.000,0.000,0.0103675,0.000,7500.000,1.009,1.722,949.855,11.505,541.383,541.366,121.524,0.092,0.347,0.034,-0.035,-0.011,0.000,0.000,0.000,0.004,0.695,-0.012,0.719,0.0000000,0.0000000,541.101,0.000,0.000,0.000,0,00:00:00,0,0.000,0.000,0.000,0.000,0.000,0.000,0.000,0.000,0.000,0.000,0.000,0.000,0.000,0.000
24.252,1,0,6.275,2.223,576.657,8.351,3.429,365.434,3.935,2.591,121.858,0.000,0.000,0.0103675,0.000,7500.000,1.046,1.923,945.736,11.270,577.564,577.547,121.949,0.118,0.235,-0.027,-0.009,0.011,0.000,0.000,0.000,0.004,0.695,-0.010,0.719,0.0000000,0.0000000,576.968,0.000,0.000,0.000,0,00:00:00,0,0.000,0.000,0.000,0.000,0.000,0.000,0.000,0.000,0.000,0.000,0.000,0.000,0.000,0.000
24.353,1,0,6.452,2.334,614.159,8.384,3.556,377.780,3.720,2.484,122.473,0.000,0.000,0.0103675,0.000,7500.000,1.083,1.971,941.604,11.026,613.983,613.966,122.554,0.090,0.430,-0.009,0.003,-0.037,0.000,0.000,0.000,0.002,0.695,-0.011,0.719,0.0000000,0.0000000,614.064,0.000,0.000,0.000,0,00:00:00,0,0.000,0.000,0.000,0.000,0.000,0.000,0.000,0.000,0.000,0.000,0.000,0.000,0.000,0.000
24.454,1,0,6.616,2.444,652.939,8.428,3.640,390.196,3.915,2.125,122.964,0.000,0.000,0.0103675,0.000,7500.000,1.120,1.956,937.201,10.775,652.932,652.915,123.044,0.064,0.118,-0.028,0.011,0.006,0.000,0.000,0.000,0.001,0.695,-0.010,0.719,0.0000000,0.0000000,652.393,0.000,0.000,0.000,0,00:00:00,0,0.000,0.000,0.000,0.000,0.000,0.000,0.000,0.000,0.000,0.000,0.000,0.000,0.000,0.000
24.555,1,0,6.767,2.550,687.361,8.450,3.685,398.422,3.781,1.778,122.973,0.000,0.000,0.0103675,0.000,7500.000,1.158,1.891,937.201,10.775,652.932,652.915,123.044,0.064,0.118,-0.028,0.011,0.006,0.000,0.000,0.000,0.001,0.696,-0.009,0.718,0.0000000,0.0000000,652.393,0.000,0.000,0.000,0,00:00:00,0,0.000,0.000,0.000,0.000,0.000,0.000,0.000,0.000,0.000,0.000,0.000,0.000,0.000,0.000
24.656,1,0,6.904,2.649,728.924,8.420,3.710,411.484,3.325,1.641,124.237,0.000,0.000,0.0103675,0.000,7500.000,1.182,1.826,928.184,10.246,733.166,733.149,124.291,-0.003,0.543,-0.007,0.005,-0.023,0.000,0.000,0.000,-0.000,0.696,-0.010,0.718,0.0000000,0.0000000,732.772,0.000,0.000,0.000,0,00:00:00,0,0.000,0.000,0.000,0.000,0.000,0.000,0.000,0.000,0.000,0.000,0.000,0.000,0.000,0.000
24.757,1,0,7.027,2.742,771.692,8.425,3.764,424.495,3.750,1.984,124.580,0.000,0.000,0.0103675,0.000,7500.000,1.222,1.794,923.486,9.970,775.220,775.203,124.652,-0.145,0.376,0.038,-0.020,-0.015,0.000,0.000,0.000,0.000,0.695,-0.012,0.719,0.0000000,0.0000000,774.832,0.000,0.000,0.000,0,00:00:00,0,0.000,0.000,0.000,0.000,0.000,0.000,0.000,0.000,0.000,0.000,0.000,0.000,0.000,0.000
24.858,1,0,7.140,2.831,815.626,8.464,3.800,437.444,4.141,1.844,125.085,0.000,0.000,0.0103675,0.000,7500.000,1.261,1.911,918.701,9.689,818.232,818.215,125.167,-0.042,0.004,-0.020,-0.000,0.016,0.000,0.000,0.000,0.000,0.695,-0.010,0.719,0.0000000,0.0000000,818.145,0.000,0.000,0.000,0,00:00:00,0,0.000,0.000,0.000,0.000,0.000,0.000,0.000,0.000,0.000,0.000,0.000,0.000,0.000,0.000
24.959,1,0,7.246,2.913,854.527,8.498,3.806,445.655,4.144,1.587,125.088,0.000,0.000,0.0103675,0.000,7500.000,1.300,1.909,918.701,9.689,818.232,818.215,125.167,-0.042,0.004,-0.020,-0.000,0.016,0.000,0.000,0.000,0.000,0.695,-0.009,0.719,0.0000000,0.0000000,818.145,0.000,0.000,0.000,0,00:00:00,0,0.000,0.000,0.000,0.000,0.000,0.000,0.000,0.000,0.000,0.000,0.000,0.000,0.000,0.000
25.060,1,0,7.345,2.988,901.466,8.520,3.810,459.343,4.083,1.612,126.016,0.000,0.000,0.0103675,0.000,7500.000,1.325,1.908,908.629,9.097,909.366,909.349,126.093,-0.129,0.116,0.008,-0.002,-0.012,0.000,0.000,0.000,-0.000,0.695,-0.010,0.719,0.0000000,0.0000000,908.550,0.000,0.000,0.000,0,00:00:00,0,0.000,0.000,0.000,0.000,0.000,0.000,0.000,0.000,0.000,0.000,0.000,0.000,0.000,0.000
25.161,1,0,7.432,3.058,949.536,8.457,3.841,472.884,3.284,1.912,126.438,0.000,0.000,0.0103675,0.000,7500.000,1.367,1.918,903.522,8.787,955.882,955.865,126.494,-0.041,0.346,0.016,0.045,-0.031,0.000,0.000,0.000,-0.001,0.697,-0.011,0.717,0.0000000,0.0000000,955.650,0.000,0.000,0.000,0,00:00:00,0,0.000,0.000,0.000,0.000,0.000,0.000,0.000,0.000,0.000,0.000,0.000,0.000,0.000,0.000
25.262,1,0,7.507,3.124,998.816,8.413,3.877,486.375,3.515,2.005,127.140,0.000,0.000,0.0103675,0.000,7500.000,1.408,1.659,898.246,8.468,1004.169,1004.152,127.204,0.039,0.281,0.001,-0.011,0.023,0.000,0.000,0.000,0.000,0.696,-0.011,0.718,0.0000000,0.0000000,1004.020,0.000,0.000,0.000,0,00:00:00,0,0.000,0.000,0.000,0.000,0.000,0.000,0.000,0.000,0.000,0.000,0.000,0.000,0.000,0.000
25.363,1,0,7.571,3.189,1049.353,8.391,3.940,499.793,3.758,2.303,127.199,0.000,0.000,0.0103675,0.000,7500.000,1.449,1.723,892.821,8.145,1054.062,1054.045,127.275,0.000,0.257,0.026,-0.017,-0.004,0.000,0.000,0.000,0.001,0.696,-0.012,0.718,0.0000000,0.0000000,1053.664,0.000,0.000,0.000,0,00:00:00,0,0.000,0.000,0.000,0.000,0.000,0.000,0.000,0.000,0.000,0.000,0.000,0.000,0.000,0.000
25.464,1,0,7.627,3.252,1101.133,8.373,3.988,513.158,3.838,2.182,127.510,0.000,0.000,0.0103675,0.000,7500.000,1.489,1.823,887.294,7.811,1105.140,1105.123,127.586,0.091,0.185,-0.016,0.000,0.022,0.000,0.000,0.000,0.001,0.696,-0.010,0.718,0.0000000,0.0000000,1104.585,0.000,0.000,0.000,0,00:00:00,0,0.000,0.000,0.000,0.000,0.000,0.000,0.000,0.000,0.000,0.000,0.000,0.000,0.000,0.000
25.565,1,0,7.675,3.313,1154.156,8.305,4.020,526.487,3.363,2.060,127.971,0.000,0.000,0.0103675,0.000,7500.000,1.530,1.819,881.658,7.468,1157.492,1157.475,128.032,-0.087,0.343,0.004,0.026,0.003,0.000,0.000,0.000,0.001,0.697,-0.010,0.717,0.0000000,0.0000000,1156.787,0.000,0.000,0.000,0,00:00:00,0,0.000,0.000,0.000,0.000,0.000,0.000,0.000,0.000,0.000,0.000,0.000,0.000,0.000,0.000
25.666,1,0,7.710,3.372,1208.383,8.209,4.054,539.748,3.102,2.112,128.357,0.000,0.000,0.0103675,0.000,7500.000,1.571,1.670,875.945,7.119,1210.838,1210.821,128.411,-0.030,0.494,-0.001,0.009,-0.012,0.000,0.000,0.000,0.001,0.697,-0.011,0.717,0.0000000,0.0000000,1210.272,0.000,0.000,0.000,0,00:00:00,0,0.000,0.000,0.000,0.000,0.000,0.000,0.000,0.000,0.000,0.000,0.000,0.000,0.000,0.000
25.767,1,0,7.733,3.429,1263.878,8.098,4.107,552.980,2.965,2.325,128.608,0.000,0.000,0.0103675,0.000,7500.000,1.611,1.618,870.080,6.758,1265.888,1265.871,128.663,-0.014,0.409,0.014,0.017,-0.037,0.000,0.000,0.000,0.000,0.698,-0.013,0.716,0.0000000,0.0000000,1265.043,0.000,0.000,0.000,0,00:00:00,0,0.000,0.000,0.000,0.000,0.000,0.000,0.000,0.000,0.000,0.000,0.000,0.000,0.000,0.000
25.868,1,0,7.742,3.486,1320.548,7.978,4.181,566.113,2.889,2.571,128.832,0.000,0.000,0.0103675,0.000,7500.000,1.652,1.521,864.183,6.393,1321.554,1321.537,128.889,0.145,0.394,0.007,0.008,0.017,0.000,0.000,0.000,0.001,0.698,-0.012,0.716,0.0000000,0.0000000,1321.104,0.000,0.000,0.000,0,00:00:00,0,0.000,0.000,0.000,0.000,0.000,0.000,0.000,0.000,0.000,0.000,0.000,0.000,0.000,0.000
25.969,2,0,7.718,3.529,1377.279,7.365,3.903,560.466,-2.010,-0.901,-54.677,0.000,0.000,0.0103675,0.000,7500.000,1.692,1.478,858.418,6.036,1376.271,1376.253,-54.720,-0.000,0.335,-0.026,-0.051,-0.020,0.000,0.000,0.000,-0.001,0.696,-0.012,0.718,0.0000000,0.0000000,1375.701,0.000,0.000,0.000,0,00:00:00,0,0.000,0.000,0.000,0.000,0.000,0.000,0.000,0.000,0.000,0.000,0.000,0.000,0.000,0.000
26.070,2,0,7.639,3.542,1433.169,6.752,3.621,554.726,-2.058,-0.924,-53.552,0.000,0.000,0.0124256,0.000,7500.000,1.676,1.770,852.738,5.681,1430.466,1430.449,-53.598,-0.133,0.432,-0.017,0.002,0.012,0.000,0.000,0.000,-0.001,0.696,-0.011,0.718,0.0000000,0.0000000,1429.767,0.000,0.000,0.000,0,00:00:00,0,0.000,0.000,0.000,0.000,0.000,0.000,0.000,0.000,0.000,0.000,0.000,0.000,0.000,0.000
26.171,2,0,7.513,3.529,1488.235,6.162,3.355,548.895,-1.888,-0.784,-52.594,0.000,0.000,0.0124595,0.000,7500.000,1.660,1.755,847.158,5.331,1483.997,1483.980,-52.633,0.094,0.326,0.021,0.008,0.029,0.000,0.000,0.000,0.001,0.696,-0.011,0.718,0.0000000,0.0000000,1483.313,0.000,0.000,0.000,0,00:00:00,0,0.000,0.000,0.000,0.000,0.000,0.000,0.000,0.000,0.000,0.000,0.000,0.000,0.000,0.000
26.272,2,0,7.346,3.491,1542.540,5.597,3.050,543.051,-1.727,-1.186,-51.423,0.000,0.000,0.0125061,0.000,7500.000,1.644,1.712,841.640,4.981,1537.212,1537.195,-51.465,-0.101,0.354,0.043,0.029,-0.039,0.000,0.000,0.000,0.001,0.697,-0.014,0.716,0.0000000,0.0000000,1536.350,0.000,0.000,0.000,0,00:00:00,0,0.000,0.000,0.000,0.000,0.000,0.000,0.000,0.000,0.000,0.000,0.000,0.000,0.000,0.000
26.373,2,0,7.144,3.429,1596.065,5.041,2.754,537.154,-1.755,-1.129,-50.502,0.000,0.000,0.0125432,0.000,7500.000,1.627,1.551,836.242,4.636,1589.547,1589.530,-50.544,-0.128,0.258,-0.013,-0.030,-0.008,0.000,0.000,0.000,0.000,0.696,-0.013,0.718,0.0000000,0.0000000,1588.887,0.000,0.000,0.000,0,00:00:00,0,0.000,0.000,0.000,0.000,0.000,0.000,0.000,0.000,0.000,0.000,0.000,0.000,0.000,0.000
26.474,2,0,6.909,3.346,1648.891,4.496,2.477,531.274,-1.757,-0.978,-49.537,0.000,0.000,0.0125887,0.000,7500.000,1.611,1.721,830.890,4.296,1641.704,1641.687,-49.576,-0.058,0.350,-0.012,0.013,0.027,0.000,0.000,0.000,0.001,0.697,-0.012,0.717,0.0000000,0.0000000,1640.934,0.000,0.000,0.000,0,00:00:00,0,0.000,0.000,0.000,0.000,0.000,0.000,0.000,0.000,0.000,0.000,0.000,0.000,0.000,0.000
26.575,2,0,6.647,3.247,1701.058,3.945,2.223,525.446,-1.958,-0.808,-48.491,0.000,0.000,0.0126361,0.000,7500.000,1.594,1.644,825.609,3.959,1693.440,1693.423,-48.534,0.167,0.466,0.015,-0.023,-0.002,0.000,0.000,0.000,0.001,0.696,-0.013,0.718,0.0000000,0.0000000,1692.500,0.000,0.000,0.000,0,00:00:00,0,0.000,0.000,0.000,0.000,0.000,0.000,0.000,0.000,0.000,0.000,0.000,0.000,0.000,0.000
26.676,2,0,6.361,3.133,1752.501,3.435,1.934,519.598,-1.711,-1.216,-47.668,0.000,0.000,0.0126811,0.000,7500.000,1.578,1.776,820.472,3.621,1744.027,1744.010,-47.714,-0.158,0.179,0.021,-0.015,-0.011,0.000,0.000,0.000,0.002,0.696,-0.014,0.718,0.0000000,0.0000000,1743.595,0.000,0.000,0.000,0,00:00:00,0,0.000,0.000,0.000,0.000,0.000,0.000,0.000,0.000,0.000,0.000,0.000,0.000,0.000,0.000
26.777,2,0,6.055,3.004,1803.387,2.929,1.679,513.873,-1.827,-0.942,-46.650,0.000,0.000,0.0127318,0.000,7500.000,1.561,1.864,815.312,3.293,1795.085,1795.068,-46.694,0.027,0.344,-0.014,0.004,0.009,0.000,0.000,0.000,0.002,0.696,-0.013,0.718,0.0000000,0.0000000,1794.226,0.000,0.000,0.000,0,00:00:00,0,0.000,0.000,0.000,0.000,0.000,0.000,0.000,0.000,0.000,0.000,0.000,0.000,0.000,0.000
26.878,2,0,5.732,2.865,1853.745,2.433,1.451,508.259,-1.888,-0.754,-45.900,0.000,0.000,0.0127796,0.000,7500.000,1.545,1.839,810.221,2.962,1845.730,1845.713,-45.942,0.209,0.543,0.001,0.025,-0.003,0.000,0.000,0.000,0.001,0.697,-0.013,0.717,0.0000000,0.0000000,1844.403,0.000,0.000,0.000,0,00:00:00,0,0.000,0.000,0.000,0.000,0.000,0.000,0.000,0.000,0.000,0.000,0.000,0.000,0.000,0.000
26.979,2,0,5.396,2.718,1903.491,1.988,1.204,502.686,-1.568,-1.011,-45.142,0.000,0.000,0.0128321,0.000,7500.000,1.529,1.693,805.275,2.637,1895.180,1895.163,-45.180,-0.001,0.264,0.016,0.004,0.039,0.000,0.000,0.000,0.003,0.697,-0.012,0.717,0.0000000,0.0000000,1894.133,0.000,0.000,0.000,0,00:00:00,0,0.000,0.000,0.000,0.000,0.000,0.000,0.000,0.000,0.000,0.000,0.000,0.000,0.000,0.000
27.080,2,0,5.053,2.563,1952.621,1.572,0.988,497.150,-1.463,-0.793,-44.341,0.000,0.000,0.0128876,0.000,7500.000,1.513,1.670,800.419,2.315,1943.957,1943.939,-44.372,0.176,0.163,-0.005,-0.004,0.014,0.000,0.000,0.000,0.004,0.697,-0.012,0.717,0.0000000,0.0000000,1943.424,0.000,0.000,0.000,0,00:00:00,0,0.000,0.000,0.000,0.000,0.000,0.000,0.000,0.000,0.000,0.000,0.000,0.000,0.000,0.000
27.181,2,0,4.703,2.402,2001.313,1.152,0.759,491.777,-1.683,-1.000,-43.590,0.000,0.000,0.0129440,0.000,7500.000,1.497,1.691,795.526,1.993,1993.365,1993.347,-43.632,-0.149,0.391,-0.023,-0.004,0.016,0.000,0.000,0.000,0.003,0.696,-0.010,0.718,0.0000000,0.0000000,1992.284,0.000,0.000,0.000,0,00:00:00,0,0.000,0.000,0.000,0.000,0.000,0.000,0.000,0.000,0.000,0.000,0.000,0.000,0.000,0.000
27.282,2,0,4.349,2.237,2049.474,0.758,0.565,486.501,-1.617,-0.748,-42.701,0.000,0.000,0.0130020,0.000,7500.000,1.482,1.709,790.774,1.676,2041.577,2041.559,-42.737,0.010,0.251,-0.018,-0.023,-0.012,0.000,0.000,0.000,0.002,0.696,-0.010,0.718,0.0000000,0.0000000,2040.721,0.000,0.000,0.000,0,00:00:00,0,0.000,0.000,0.000,0.000,0.000,0.000,0.000,0.000,0.000,0.000,0.000,0.000,0.000,0.000
27.383,2,0,3.992,2.071,2097.213,0.363,0.397,481.366,-1.817,-0.574,-42.082,0.000,0.000,0.0130573,0.000,7500.000,1.467,1.842,786.027,1.363,2089.968,2089.951,-42.122,0.139,0.447,-0.009,-0.006,-0.012,0.000,0.000,0.000,0.002,0.695,-0.010,0.719,0.0000000,0.0000000,2088.740,0.000,0.000,0.000,0,00:00:00,0,0.000,0.000,0.000,0.000,0.000,0.000,0.000,0.000,0.000,0.000,0.000,0.000,0.000,0.000
27.484,2,0,3.634,1.905,2144.519,0.002,0.221,476.382,-1.662,-0.739,-41.200,0.000,0.000,0.0131159,0.000,7500.000,1.452,1.874,781.361,1.051,2137.778,2137.761,-41.239,0.045,0.263,0.022,-0.014,0.018,0.000,0.000,0.000,0.003,0.695,-0.010,0.719,0.0000000,0.0000000,2136.351,0.000,0.000,0.000,0,00:00:00,0,0.000,0.000,0.000,0.000,0.000,0.000,0.000,0.000,0.000,0.000,0.000,0.000,0.000,0.000
27.585,2,0,3.277,1.738,2191.317,-0.353,0.041,471.449,-1.788,-0.871,-40.630,0.000,0.000,0.0131710,0.000,7500.000,1.438,1.955,776.820,0.742,2184.524,2184.506,-40.674,-0.028,0.590,0.015,0.044,-0.021,0.000,0.000,0.000,0.003,0.697,-0.012,0.717,0.0000000,0.0000000,2183.558,0.000,0.000,0.000,0,00:00:00,0,0.000,0.000,0.000,0.000,0.000,0.000,0.000,0.000,0.000,0.000,0.000,0.000,0.000,0.000
27.686,2,0,2.924,1.572,2237.673,-0.650,-0.115,466.629,-1.404,-0.714,-39.911,0.000,0.000,0.0132294,0.000,7500.000,1.424,1.703,772.305,0.433,2231.211,2231.194,-39.941,0.126,0.224,0.003,-0.001,-0.020,0.000,0.000,0.000,0.002,0.696,-0.012,0.717,0.0000000,0.0000000,2230.369,0.000,0.000,0.000,0,00:00:00,0,0.000,0.000,0.000,0.000,0.000,0.000,0.000,0.000,0.000,0.000,0.000,0.000,0.000,0.000
27.787,2,0,2.576,1.406,2283.665,-0.944,-0.279,461.974,-1.558,-0.890,-39.153,0.000,0.000,0.0132868,0.000,7500.000,1.410,1.708,767.810,0.131,2277.926,2277.908,-39.193,-0.026,0.370,0.008,-0.009,-0.030,0.000,0.000,0.000,0.002,0.696,-0.014,0.718,0.0000000,0.0000000,2276.790,0.000,0.000,0.000,0,00:00:00,0,0.000,0.000,0.000,0.000,0.000,0.000,0.000,0.000,0.000,0.000,0.000,0.000,0.000,0.000
27.888,2,0,2.236,1.242,2329.285,-1.201,-0.422,457.432,-1.367,-0.756,-38.744,0.000,0.000,0.0133425,0.000,7500.000,1.397,1.760,763.384,-0.172,2324.137,2324.120,-38.775,-0.031,0.266,-0.033,0.019,0.011,0.000,0.000,0.000,0.001,0.697,-0.012,0.717,0.0000000,0.0000000,2322.827,0.000,0.000,0.000,0,00:00:00,0,0.000,0.000,0.000,0.000,0.000,0.000,0.000,0.000,0.000,0.000,0.000,0.000,0.000,0.000
27.989,2,0,1.906,1.081,2374.508,-1.437,-0.547,452.995,-1.337,-0.675,-38.138,0.000,0.000,0.0134026,0.000,7500.000,1.384,1.646,759.038,-0.471,2369.725,2369.708,-38.166,0.113,0.279,0.019,0.007,-0.015,0.000,0.000,0.000,0.001,0.697,-0.013,0.717,0.0000000,0.0000000,2368.487,0.000,0.000,0.000,0,00:00:00,0,0.000,0.000,0.000,0.000,0.000,0.000,0.000,0.000,0.000,0.000,0.000,0.000,0.000,0.000
28.090,2,0,1.585,0.924,2419.353,-1.664,-0.680,448.666,-1.410,-0.825,-37.562,0.000,0.000,0.0134626,0.000,7500.000,1.371,1.606,754.743,-0.767,2414.975,2414.958,-37.596,-0.017,0.337,0.008,-0.009,-0.006,0.000,0.000,0.000,0.001,0.697,-0.014,0.717,0.0000000,0.0000000,2413.774,0.000,0.000,0.000,0,00:00:00,0,0.000,0.000,0.000,0.000,0.000,0.000,0.000,0.000,0.000,0.000,0.000,0.000,0.000,0.000
28.191,2,0,1.275,0.769,2463.808,-1.865,-0.803,444.446,-1.320,-0.817,-36.809,0.000,0.000,0.0103675,0.000,7500.000,1.359,1.659,750.519,-1.063,2459.696,2459.679,-36.841,-0.071,0.313,-0.012,0.013,0.019,0.000,0.000,0.000,0.001,0.697,-0.013,0.717,0.0000000,0.0000000,2458.696,0.000,0.000,0.000,0,00:00:00,0,0.000,0.000,0.000,0.000,0.000,0.000,0.000,0.000,0.000,0.000,0.000,0.000,0.000,0.000
28.292,2,0,0.976,0.618,2501.665,-2.046,-0.914,435.615,-1.275,-0.771,-36.812,0.000,0.000,0.0105619,0.000,7500.000,1.347,1.586,750.519,-1.063,2459.696,2459.679,-36.841,-0.071,0.313,-0.012,0.013,0.019,0.000,0.000,0.000,0.001,0.698,-0.012,0.716,0.0000000,0.0000000,2458.696,0.000,0.000,0.000,0,00:00:00,0,0.000,0.000,0.000,0.000,0.000,0.000,0.000,0.000,0.000,0.000,0.000,0.000,0.000,0.000
28.393,2,0,0.690,0.473,2545.901,-2.199,-0.999,432.320,-1.155,-0.594,-35.730,0.000,0.000,0.0107678,0.000,7500.000,1.320,1.513,742.187,-1.642,2548.498,2548.480,-35.753,-0.035,0.261,-0.032,0.012,0.033,0.000,0.000,0.000,0.001,0.698,-0.009,0.716,0.0000000,0.0000000,2547.461,0.000,0.000,0.000,0,00:00:00,0,0.000,0.000,0.000,0.000,0.000,0.000,0.000,0.000,0.000,0.000,0.000,0.000,0.000,0.000
28.494,2,0,0.418,0.334,2589.861,-2.342,-1.072,429.107,-1.197,-0.547,-35.335,0.000,0.000,0.0109509,0.000,7500.000,1.311,1.444,738.059,-1.931,2592.798,2592.781,-35.358,-0.039,0.333,-0.013,0.006,-0.010,0.000,0.000,0.000,0.001,0.698,-0.009,0.716,0.0000000,0.0000000,2591.316,0.000,0.000,0.000,0,00:00:00,0,0.000,0.000,0.000,0.000,0.000,0.000,0.000,0.000,0.000,0.000,0.000,0.000,0.000,0.000
28.595,2,0,0.157,0.201,2633.446,-2.497,-1.133,425.920,-1.450,-0.497,-34.675,0.000,0.000,0.0111249,0.000,7500.000,1.302,1.411,734.045,-2.214,2636.053,2636.036,-34.704,-0.038,0.552,-0.013,-0.015,-0.019,0.000,0.000,0.000,-0.000,0.698,-0.010,0.716,0.0000000,0.0000000,2634.826,0.000,0.000,0.000,0,00:00:00,0,0.000,0.000,0.000,0.000,0.000,0.000,0.000,0.000,0.000,0.000,0.000,0.000,0.000,0.000
28.696,2,0,-0.092,0.077,2676.766,-2.618,-1.178,422.810,-1.243,-0.407,-34.319,0.000,0.000,0.0112864,0.000,7500.000,1.293,1.494,730.013,-2.499,2679.709,2679.692,-34.343,0.040,0.239,-0.001,-0.033,0.004,0.000,0.000,0.000,-0.000,0.697,-0.009,0.717,0.0000000,0.0000000,2677.996,0.000,0.000,0.000,0,00:00:00,0,0.000,0.000,0.000,0.000,0.000,0.000,0.000,0.000,0.000,0.000,0.000,0.000,0.000,0.000
28.797,2,0,-0.329,-0.040,2719.669,-2.748,-1.213,419.689,-1.469,-0.369,-33.647,0.000,0.000,0.0114411,0.000,7500.000,1.284,1.685,726.128,-2.778,2721.962,2721.945,-33.678,0.144,0.410,0.022,-0.022,0.006,0.000,0.000,0.000,0.001,0.696,-0.010,0.718,0.0000000,0.0000000,2720.830,0.000,0.000,0.000,0,00:00:00,0,0.000,0.000,0.000,0.000,0.000,0.000,0.000,0.000,0.000,0.000,0.000,0.000,0.000,0.000
28.898,2,0,-0.554,-0.149,2762.217,-2.849,-1.265,416.571,-1.284,-0.595,-33.308,0.000,0.000,0.0115850,0.000,7500.000,1.276,1.810,722.255,-3.057,2764.256,2764.239,-33.337,0.035,0.268,0.036,0.009,-0.026,0.000,0.000,0.000,0.001,0.696,-0.012,0.718,0.0000000,0.0000000,2763.334,0.000,0.000,0.000,0,00:00:00,0,0.000,0.000,0.000,0.000,0.000,0.000,0.000,0.000,0.000,0.000,0.000,0.000,0.000,0.000
28.999,2,0,-0.768,-0.253,2804.494,-2.964,-1.311,413.539,-1.545,-0.585,-32.767,0.000,0.000,0.0117240,0.000,7500.000,1.267,1.762,718.378,-3.334,2806.786,2806.769,-32.806,0.108,0.404,0.021,-0.043,-0.013,0.000,0.000,0.000,0.001,0.695,-0.013,0.719,0.0000000,0.0000000,2805.512,0.000,0.000,0.000,0,00:00:00,0,0.000,0.000,0.000,0.000,0.000,0.000,0.000,0.000,0.000,0.000,0.000,0.000,0.000,0.000
29.100,2,0,-0.971,-0.352,2846.427,-3.049,-1.354,410.527,-1.352,-0.613,-32.266,0.000,0.000,0.0118555,0.000,7500.000,1.258,2.011,714.594,-3.608,2848.470,2848.453,-32.298,0.033,0.398,-0.012,0.052,-0.021,0.000,0.000,0.000,0.000,0.696,-0.014,0.717,0.0000000,0.0000000,2847.368,0.000,0.000,0.000,0,00:00:00,0,0.000,0.000,0.000,0.000,0.000,0.000,0.000,0.000,0.000,0.000,0.000,0.000,0.000,0.000
29.201,2,0,-1.162,-0.444,2888.090,-3.115,-1.380,407.574,-1.265,-0.492,-31.912,0.000,0.000,0.0119804,0.000,7500.000,1.250,1.713,710.810,-3.880,2890.329,2890.312,-31.937,0.183,0.426,0.011,0.033,-0.016,0.000,0.000,0.000,-0.000,0.698,-0.015,0.716,0.0000000,0.0000000,2888.907,0.000,0.000,0.000,0,00:00:00,0,0.000,0.000,0.000,0.000,0.000,0.000,0.000,0.000,0.000,0.000,0.000,0.000,0.000,0.000
29.302,2,0,-1.340,-0.530,2929.426,-3.151,-1.422,404.647,-1.058,-0.693,-31.435,0.000,0.000,0.0121014,0.000,7500.000,1.241,1.524,707.107,-4.152,2931.479,2931.462,-31.460,-0.134,0.207,-0.031,-0.009,0.035,0.000,0.000,0.000,0.000,0.697,-0.012,0.717,0.0000000,0.0000000,2930.133,0.000,0.000,0.000,0,00:00:00,0,0.000,0.000,0.000,0.000,0.000,0.000,0.000,0.000,0.000,0.000,0.000,0.000,0.000,0.000
29.403,2,0,-1.504,-0.611,2970.482,-3.187,-1.441,401.761,-1.149,-0.508,-31.131,0.000,0.000,0.0122169,0.000,7500.000,1.233,1.572,703.420,-4.418,2972.619,2972.602,-31.154,0.018,0.349,-0.010,0.014,-0.019,0.000,0.000,0.000,-0.001,0.698,-0.013,0.716,0.0000000,0.0000000,2971.049,0.000,0.000,0.000,0,00:00:00,0,0.000,0.000,0.000,0.000,0.000,0.000,0.000,0.000,0.000,0.000,0.000,0.000,0.000,0.000
29.504,2,0,-1.656,-0.686,3011.170,-3.215,-1.445,398.851,-1.146,-0.404,-30.778,0.000,0.000,0.0123299,0.000,7500.000,1.225,1.488,699.832,-4.683,3012.821,3012.804,-30.800,0.082,0.319,-0.011,-0.012,-0.011,0.000,0.000,0.000,-0.002,0.697,-0.013,0.717,0.0000000,0.0000000,3011.661,0.000,0.000,0.000,0,00:00:00,0,0.000,0.000,0.000,0.000,0.000,0.000,0.000,0.000,0.000,0.000,0.000,0.000,0.000,0.000
29.605,2,0,-1.796,-0.754,3045.902,-3.239,-1.443,391.712,-1.181,-0.371,-30.777,0.000,0.000,0.0124399,0.000,7500.000,1.217,1.554,699.832,-4.683,3012.821,3012.804,-30.800,0.082,0.319,-0.011,-0.012,-0.011,0.000,0.000,0.000,-0.003,0.697,-0.013,0.717,0.0000000,0.0000000,3011.661,0.000,0.000,0.000,0,00:00:00,0,0.000,0.000,0.000,0.000,0.000,0.000,0.000,0.000,0.000,0.000,0.000,0.000,0.000,0.000
29.706,2,0,-1.924,-0.815,3086.467,-3.257,-1.439,389.547,-1.192,-0.392,-29.981,0.000,0.000,0.0125617,0.000,7500.000,1.195,1.619,692.670,-5.210,3093.573,3093.556,-30.005,0.077,0.290,0.009,-0.021,-0.004,0.000,0.000,0.000,-0.002,0.696,-0.013,0.718,0.0000000,0.0000000,3091.986,0.000,0.000,0.000,0,00:00:00,0,0.000,0.000,0.000,0.000,0.000,0.000,0.000,0.000,0.000,0.000,0.000,0.000,0.000,0.000
29.807,2,0,-2.043,-0.871,3126.687,-3.280,-1.445,387.331,-1.306,-0.513,-29.533,0.000,0.000,0.0126723,0.000,7500.000,1.189,1.739,689.194,-5.470,3133.001,3132.984,-29.564,-0.071,0.396,-0.010,-0.009,-0.050,0.000,0.000,0.000,-0.004,0.696,-0.015,0.718,0.0000000,0.0000000,3131.706,0.000,0.000,0.000,0,00:00:00,0,0.000,0.000,0.000,0.000,0.000,0.000,0.000,0.000,0.000,0.000,0.000,0.000,0.000,0.000
29.908,2,0,-2.151,-0.920,3166.649,-3.275,-1.433,385.121,-1.085,-0.364,-29.208,0.000,0.000,0.0127776,0.000,7500.000,1.183,1.790,685.706,-5.729,3172.737,3172.720,-29.230,0.082,0.212,0.005,0.011,-0.007,0.000,0.000,0.000,-0.005,0.696,-0.015,0.718,0.0000000,0.0000000,3171.136,0.000,0.000,0.000,0,00:00:00,0,0.000,0.000,0.000,0.000,0.000,0.000,0.000,0.000,0.000,0.000,0.000,0.000,0.000,0.000
30.009,2,0,-2.249,-0.965,3206.276,-3.272,-1.430,382.878,-1.145,-0.483,-28.689,0.000,0.000,0.0128794,0.000,7500.000,1.177,1.730,682.302,-5.987,3211.675,3211.658,-28.713,-0.055,0.343,-0.004,0.018,0.015,0.000,0.000,0.000,-0.004,0.697,-0.014,0.717,0.0000000,0.0000000,3210.280,0.000,0.000,0.000,0,00:00:00,0,0.000,0.000,0.000,0.000,0.000,0.000,0.000,0.000,0.000,0.000,0.000,0.000,0.000,0.000
30.110,2,0,-2.338,-1.005,3245.675,-3.290,-1.420,380.661,-1.410,-0.428,-28.409,0.000,0.000,0.0129753,0.000,7500.000,1.171,1.625,678.874,-6.238,3251.044,3251.027,-28.441,0.016,0.591,0.005,-0.008,0.003,0.000,0.000,0.000,-0.004,0.697,-0.014,0.717,0.0000000,0.0000000,3249.141,0.000,0.000,0.000,0,00:00:00,0,0.000,0.000,0.000,0.000,0.000,0.000,0.000,0.000,0.000,0.000,0.000,0.000,0.000,0.000
30.211,2,0,-2.419,-1.040,3284.701,-3.276,-1.398,378.368,-1.134,-0.333,-28.049,0.000,0.000,0.0130692,0.000,7500.000,1.164,1.674,675.569,-6.493,3289.149,3289.132,-28.072,0.099,0.378,-0.001,0.020,-0.020,0.000,0.000,0.000,-0.005,0.697,-0.015,0.717,0.0000000,0.0000000,3287.723,0.000,0.000,0.000,0,00:00:00,0,0.000,0.000,0.000,0.000,0.000,0.000,0.000,0.000,0.000,0.000,0.000,0.000,0.000,0.000
30.312,2,0,-2.490,-1.070,3323.443,-3.238,-1.395,376.059,-0.931,-0.530,-27.800,0.000,0.000,0.0131600,0.000,7500.000,1.158,1.560,672.251,-6.745,3327.562,3327.545,-27.820,-0.058,0.283,0.017,0.035,0.017,0.000,0.000,0.000,-0.003,0.699,-0.015,0.715,0.0000000,0.0000000,3326.029,0.000,0.000,0.000,0,00:00:00,0,0.000,0.000,0.000,0.000,0.000,0.000,0.000,0.000,0.000,0.000,0.000,0.000,0.000,0.000
30.413,2,0,-2.550,-1.096,3361.912,-3.187,-1.374,373.753,-0.836,-0.372,-27.479,0.000,0.000,0.0132493,0.000,7500.000,1.151,1.362,668.962,-6.993,3365.782,3365.765,-27.494,0.117,0.207,0.009,0.006,0.001,0.000,0.000,0.000,-0.003,0.699,-0.015,0.715,0.0000000,0.0000000,3364.062,0.000,0.000,0.000,0,00:00:00,0,0.000,0.000,0.000,0.000,0.000,0.000,0.000,0.000,0.000,0.000,0.000,0.000,0.000,0.000
30.514,2,0,-2.600,-1.118,3394.790,-3.131,-1.355,367.443,-0.819,-0.396,-27.479,0.000,0.000,0.0133365,0.000,7500.000,1.145,1.329,668.962,-6.993,3365.782,3365.765,-27.494,0.117,0.207,0.009,0.006,0.001,0.000,0.000,0.000,-0.003,0.699,-0.016,0.715,0.0000000,0.0000000,3364.062,0.000,0.000,0.000,0,00:00:00,0,0.000,0.000,0.000,0.000,0.000,0.000,0.000,0.000,0.000,0.000,0.000,0.000,0.000,0.000
30.615,2,0,-2.641,-1.137,3433.009,-3.105,-1.357,365.662,-1.126,-0.617,-26.829,0.000,0.000,0.0134340,0.000,7500.000,1.126,1.296,662.558,-7.482,3440.656,3440.639,-26.856,-0.077,0.457,0.012,-0.028,0.005,0.000,0.000,0.000,-0.002,0.698,-0.016,0.716,0.0000000,0.0000000,3439.321,0.000,0.000,0.000,0,00:00:00,0,0.000,0.000,0.000,0.000,0.000,0.000,0.000,0.000,0.000,0.000,0.000,0.000,0.000,0.000
30.716,2,0,-2.676,-1.155,3470.970,-3.075,-1.361,363.858,-1.110,-0.644,-26.479,0.000,0.000,0.0103675,0.000,7500.000,1.121,1.461,659.372,-7.730,3478.130,3478.112,-26.508,-0.043,0.364,0.026,-0.032,-0.011,0.000,0.000,0.000,-0.002,0.697,-0.017,0.717,0.0000000,0.0000000,3476.554,0.000,0.000,0.000,0,00:00:00,0,0.000,0.000,0.000,0.000,0.000,0.000,0.000,0.000,0.000,0.000,0.000,0.000,0.000,0.000
30.817,2,0,-2.704,-1.172,3508.634,-3.025,-1.371,362.004,-0.934,-0.721,-26.100,0.000,0.000,0.0105196,0.000,7500.000,1.116,1.648,656.242,-7.971,3515.077,3515.060,-26.124,-0.186,0.276,-0.021,0.028,0.006,0.000,0.000,0.000,-0.002,0.698,-0.016,0.716,0.0000000,0.0000000,3513.526,0.000,0.000,0.000,0,00:00:00,0,0.000,0.000,0.000,0.000,0.000,0.000,0.000,0.000,0.000,0.000,0.000,0.000,0.000,0.000
30.918,2,0,-2.725,-1.186,3545.993,-2.981,-1.356,360.071,-0.990,-0.472,-26.013,0.000,0.000,0.0106653,0.000,7500.000,1.111,1.484,653.151,-8.213,3551.712,3551.695,-26.034,0.005,0.306,-0.021,-0.008,0.013,0.000,0.000,0.000,-0.002,0.698,-0.015,0.716,0.0000000,0.0000000,3550.240,0.000,0.000,0.000,0,00:00:00,0,0.000,0.000,0.000,0.000,0.000,0.000,0.000,0.000,0.000,0.000,0.000,0.000,0.000,0.000
31.019,2,0,-2.740,-1.198,3583.089,-2.933,-1.325,358.120,-0.969,-0.328,-25.677,0.000,0.000,0.0108091,0.000,7500.000,1.106,1.530,650.068,-8.451,3588.381,3588.364,-25.695,0.105,0.291,-0.015,-0.000,-0.009,0.000,0.000,0.000,-0.003,0.698,-0.015,0.716,0.0000000,0.0000000,3586.700,0.000,0.000,0.000,0,00:00:00,0,0.000,0.000,0.000,0.000,0.000,0.000,0.000,0.000,0.000,0.000,0.000,0.000,0.000,0.000
31.120,2,0,-2.749,-1.205,3619.947,-2.895,-1.296,356.189,-1.068,-0.347,-25.163,0.000,0.000,0.0109478,0.000,7500.000,1.100,1.530,647.004,-8.690,3624.974,3624.957,-25.185,0.061,0.407,-0.009,0.001,-0.023,0.000,0.000,0.000,-0.004,0.698,-0.015,0.716,0.0000000,0.0000000,3622.907,0.000,0.000,0.000,0,00:00:00,0,0.000,0.000,0.000,0.000,0.000,0.000,0.000,0.000,0.000,0.000,0.000,0.000,0.000,0.000
31.221,2,0,-2.755,-1.210,3656.402,-2.860,-1.282,354.134,-1.106,-0.491,-24.832,0.000,0.000,0.0110794,0.000,7500.000,1.095,1.526,644.070,-8.924,3660.139,3660.121,-24.856,-0.063,0.544,0.008,0.035,-0.007,0.000,0.000,0.000,-0.004,0.699,-0.016,0.715,0.0000000,0.0000000,3658.865,0.000,0.000,0.000,0,00:00:00,0,0.000,0.000,0.000,0.000,0.000,0.000,0.000,0.000,0.000,0.000,0.000,0.000,0.000,0.000
31.322,2,0,-2.756,-1.213,3692.613,-2.816,-1.256,352.054,-1.011,-0.387,-24.812,0.000,0.000,0.0112068,0.000,7500.000,1.089,1.327,641.079,-9.157,3696.126,3696.109,-24.831,0.039,0.470,-0.000,0.010,-0.007,0.000,0.000,0.000,-0.005,0.699,-0.016,0.715,0.0000000,0.0000000,3694.575,0.000,0.000,0.000,0,00:00:00,0,0.000,0.000,0.000,0.000,0.000,0.000,0.000,0.000,0.000,0.000,0.000,0.000,0.000,0.000
31.423,2,0,-2.753,-1.214,3728.552,-2.762,-1.251,349.949,-0.913,-0.585,-24.593,0.000,0.000,0.0113344,0.000,7500.000,1.083,1.272,638.135,-9.391,3731.685,3731.668,-24.615,-0.121,0.295,0.020,-0.035,0.017,0.000,0.000,0.000,-0.003,0.698,-0.016,0.716,0.0000000,0.0000000,3730.042,0.000,0.000,0.000,0,00:00:00,0,0.000,0.000,0.000,0.000,0.000,0.000,0.000,0.000,0.000,0.000,0.000,0.000,0.000,0.000
31.524,2,0,-2.745,-1.213,3764.212,-2.722,-1.236,347.828,-1.052,-0.491,-24.242,0.000,0.000,0.0114595,0.000,7500.000,1.077,1.477,635.228,-9.623,3766.921,3766.903,-24.267,-0.047,0.387,-0.006,-0.022,0.010,0.000,0.000,0.000,-0.003,0.697,-0.016,0.717,0.0000000,0.0000000,3765.267,0.000,0.000,0.000,0,00:00:00,0,0.000,0.000,0.000,0.000,0.000,0.000,0.000,0.000,0.000,0.000,0.000,0.000,0.000,0.000
31.625,2,0,-2.735,-1.212,3799.579,-2.682,-1.210,345.670,-1.034,-0.384,-24.024,0.000,0.000,0.0115808,0.000,7500.000,1.071,1.602,632.361,-9.848,3801.798,3801.781,-24.045,0.060,0.462,0.000,0.037,-0.017,0.000,0.000,0.000,-0.004,0.698,-0.016,0.715,0.0000000,0.0000000,3800.252,0.000,0.000,0.000,0,00:00:00,0,0.000,0.000,0.000,0.000,0.000,0.000,0.000,0.000,0.000,0.000,0.000,0.000,0.000,0.000
31.726,2,0,-2.722,-1.208,3834.686,-2.645,-1.193,343.499,-1.071,-0.460,-23.831,0.000,0.000,0.0117000,0.000,7500.000,1.065,1.388,629.508,-10.077,3836.642,3836.625,-23.855,-0.034,0.463,-0.007,-0.018,-0.017,0.000,0.000,0.000,-0.005,0.698,-0.017,0.716,0.0000000,0.0000000,3835.000,0.000,0.000,0.000,0,00:00:00,0,0.000,0.000,0.000,0.000,0.000,0.000,0.000,0.000,0.000,0.000,0.000,0.000,0.000,0.000
31.827,2,0,-2.707,-1.203,3869.505,-2.604,-1.189,341.288,-1.019,-0.594,-23.711,0.000,0.000,0.0118178,0.000,7500.000,1.058,1.492,626.702,-10.303,3871.031,3871.013,-23.738,-0.149,0.348,0.009,-0.030,-0.031,0.000,0.000,0.000,-0.005,0.697,-0.018,0.717,0.0000000,0.0000000,3869.514,0.000,0.000,0.000,0,00:00:00,0,0.000,0.000,0.000,0.000,0.000,0.000,0.000,0.000,0.000,0.000,0.000,0.000,0.000,0.000
31.928,2,0,-2.689,-1.199,3899.251,-2.571,-1.188,335.455,-1.088,-0.618,-23.708,0.000,0.000,0.0119353,0.000,7500.000,1.052,1.665,626.702,-10.303,3871.031,3871.013,-23.738,-0.149,0.348,0.009,-0.030,-0.031,0.000,0.000,0.000,-0.006,0.696,-0.019,0.718,0.0000000,0.0000000,3869.514,0.000,0.000,0.000,0,00:00:00,0,0.000,0.000,0.000,0.000,0.000,0.000,0.000,0.000,0.000,0.000,0.000,0.000,0.000,0.000
32.029,2,0,-2.671,-1.195,3933.952,-2.548,-1.190,333.833,-1.174,-0.649,-22.984,0.000,0.000,0.0120608,0.000,7500.000,1.034,1.839,621.128,-10.751,3939.718,3939.700,-23.016,-0.199,0.542,-0.004,0.037,0.018,0.000,0.000,0.000,-0.006,0.697,-0.019,0.717,0.0000000,0.0000000,3937.848,0.000,0.000,0.000,0,00:00:00,0,0.000,0.000,0.000,0.000,0.000,0.000,0.000,0.000,0.000,0.000,0.000,0.000,0.000,0.000
32.130,2,0,-2.652,-1.191,3968.361,-2.515,-1.167,332.114,-1.067,-0.401,-23.005,0.000,0.000,0.0121767,0.000,7500.000,1.030,1.628,618.414,-10.971,3973.341,3973.323,-23.030,0.080,0.395,0.015,-0.013,0.005,0.000,0.000,0.000,-0.005,0.696,-0.019,0.717,0.0000000,0.0000000,3971.672,0.000,0.000,0.000,0,00:00:00,0,0.000,0.000,0.000,0.000,0.000,0.000,0.000,0.000,0.000,0.000,0.000,0.000,0.000,0.000
32.231,2,0,-2.632,-1.186,4002.511,-2.486,-1.163,330.365,-1.093,-0.581,-22.666,0.000,0.000,0.0122934,0.000,7500.000,1.025,1.705,615.710,-11.192,4006.959,4006.941,-22.696,-0.087,0.395,0.007,-0.019,-0.035,0.000,0.000,0.000,-0.006,0.696,-0.020,0.718,0.0000000,0.0000000,4005.271,0.000,0.000,0.000,0,00:00:00,0,0.000,0.000,0.000,0.000,0.000,0.000,0.000,0.000,0.000,0.000,0.000,0.000,0.000,0.000
32.332,2,0,-2.611,-1.180,4036.408,-2.450,-1.151,328.562,-1.021,-0.510,-22.629,0.000,0.000,0.0124062,0.000,7500.000,1.020,1.817,613.030,-11.411,4040.389,4040.372,-22.655,-0.033,0.347,-0.006,0.011,-0.006,0.000,0.000,0.000,-0.006,0.696,-0.020,0.718,0.0000000,0.0000000,4038.646,0.000,0.000,0.000,0,00:00:00,0,0.000,0.000,0.000,0.000,0.000,0.000,0.000,0.000,0.000,0.000,0.000,0.000,0.000,0.000
32.433,2,0,-2.589,-1.174,4070.014,-2.423,-1.129,326.731,-1.090,-0.398,-22.071,0.000,0.000,0.0125194,0.000,7500.000,1.015,1.753,610.401,-11.627,4073.303,4073.286,-22.097,-0.025,0.424,-0.042,-0.003,0.018,0.000,0.000,0.000,-0.007,0.696,-0.018,0.718,0.0000000,0.0000000,4071.800,0.000,0.000,0.000,0,00:00:00,0,0.000,0.000,0.000,0.000,0.000,0.000,0.000,0.000,0.000,0.000,0.000,0.000,0.000,0.000
32.534,2,0,-2.566,-1.165,4103.417,-2.385,-1.091,324.876,-0.973,-0.234,-22.194,0.000,0.000,0.0126260,0.000,7500.000,1.010,1.762,607.751,-11.845,4106.607,4106.589,-22.215,0.125,0.281,-0.005,-0.008,-0.005,0.000,0.000,0.000,-0.008,0.696,-0.018,0.718,0.0000000,0.0000000,4104.735,0.000,0.000,0.000,0,00:00:00,0,0.000,0.000,0.000,0.000,0.000,0.000,0.000,0.000,0.000,0.000,0.000,0.000,0.000,0.000
32.635,2,0,-2.542,-1.154,4136.564,-2.351,-1.056,323.005,-1.003,-0.265,-21.825,0.000,0.000,0.0127354,0.000,7500.000,1.004,1.806,605.156,-12.057,4139.318,4139.301,-21.848,0.086,0.274,0.001,-0.023,0.040,0.000,0.000,0.000,-0.006,0.695,-0.017,0.719,0.0000000,0.0000000,4137.452,0.000,0.000,0.000,0,00:00:00,0,0.000,0.000,0.000,0.000,0.000,0.000,0.000,0.000,0.000,0.000,0.000,0.000,0.000,0.000
32.736,2,0,-2.517,-1.140,4169.489,-2.323,-1.007,321.130,-1.047,-0.107,-21.608,0.000,0.000,0.0128410,0.000,7500.000,0.999,1.935,602.571,-12.269,4172.031,4172.014,-21.630,0.196,0.335,-0.021,0.007,0.025,0.000,0.000,0.000,-0.006,0.695,-0.015,0.719,0.0000000,0.0000000,4169.955,0.000,0.000,0.000,0,00:00:00,0,0.000,0.000,0.000,0.000,0.000,0.000,0.000,0.000,0.000,0.000,0.000,0.000,0.000,0.000
32.837,2,0,-2.492,-1.124,4202.122,-2.299,-0.975,319.208,-1.077,-0.279,-21.298,0.000,0.000,0.0129451,0.000,7500.000,0.994,1.892,600.051,-12.481,4204.026,4204.009,-21.324,0.063,0.334,0.022,-0.021,0.033,0.000,0.000,0.000,-0.004,0.695,-0.015,0.719,0.0000000,0.0000000,4202.244,0.000,0.000,0.000,0,00:00:00,0,0.000,0.000,0.000,0.000,0.000,0.000,0.000,0.000,0.000,0.000,0.000,0.000,0.000,0.000
32.938,2,0,-2.467,-1.106,4234.538,-2.261,-0.933,317.262,-0.921,-0.168,-21.380,0.000,0.000,0.0130465,0.000,7500.000,0.988,2.015,597.517,-12.694,4236.305,4236.288,-21.397,0.203,0.265,0.014,0.044,-0.005,0.000,0.000,0.000,-0.004,0.696,-0.016,0.718,0.0000000,0.0000000,4234.321,0.000,0.000,0.000,0,00:00:00,0,0.000,0.000,0.000,0.000,0.000,0.000,0.000,0.000,0.000,0.000,0.000,0.000,0.000,0.000
33.039,2,0,-2.441,-1.086,4266.703,-2.224,-0.911,315.331,-0.910,-0.347,-20.803,0.000,0.000,0.0131504,0.000,7500.000,0.982,1.768,595.029,-12.902,4268.114,4268.096,-20.824,-0.024,0.300,-0.020,0.010,-0.022,0.000,0.000,0.000,-0.005,0.696,-0.016,0.717,0.0000000,0.0000000,4266.189,0.000,0.000,0.000,0,00:00:00,0,0.000,0.000,0.000,0.000,0.000,0.000,0.000,0.000,0.000,0.000,0.000,0.000,0.000,0.000
33.140,2,0,-2.414,-1.067,4298.614,-2.209,-0.895,313.348,-1.128,-0.410,-20.875,0.000,0.000,0.0132482,0.000,7500.000,0.977,1.706,592.568,-13.107,4299.667,4299.650,-20.904,-0.050,0.455,0.013,-0.030,-0.031,0.000,0.000,0.000,-0.006,0.695,-0.017,0.718,0.0000000,0.0000000,4297.849,0.000,0.000,0.000,0,00:00:00,0,0.000,0.000,0.000,0.000,0.000,0.000,0.000,0.000,0.000,0.000,0.000,0.000,0.000,0.000
33.241,2,0,-2.389,-1.048,4330.319,-2.186,-0.875,311.368,-1.029,-0.351,-20.813,0.000,0.000,0.0133489,0.000,7500.000,0.971,1.879,590.107,-13.315,4331.338,4331.321,-20.839,-0.016,0.340,-0.010,-0.008,-0.012,0.000,0.000,0.000,-0.007,0.695,-0.017,0.719,0.0000000,0.0000000,4329.303,0.000,0.000,0.000,0,00:00:00,0,0.000,0.000,0.000,0.000,0.000,0.000,0.000,0.000,0.000,0.000,0.000,0.000,0.000,0.000
33.342,2,0,-2.364,-1.029,4361.748,-2.159,-0.851,309.361,-0.977,-0.299,-20.501,0.000,0.000,0.0134504,0.000,7500.000,0.965,1.924,587.710,-13.521,4362.289,4362.272,-20.524,0.028,0.305,0.000,0.004,0.027,0.000,0.000,0.000,-0.006,0.695,-0.016,0.719,0.0000000,0.0000000,4360.553,0.000,0.000,0.000,0,00:00:00,0,0.000,0.000,0.000,0.000,0.000,0.000,0.000,0.000,0.000,0.000,0.000,0.000,0.000,0.000
33.443,2,0,-2.339,-1.009,4392.993,-2.143,-0.830,307.373,-1.069,-0.325,-20.454,0.000,0.000,0.0103675,0.000,7500.000,0.960,1.900,585.289,-13.724,4393.649,4393.632,-20.481,0.028,0.390,0.011,-0.004,-0.007,0.000,0.000,0.000,-0.006,0.695,-0.017,0.719,0.0000000,0.0000000,4391.601,0.000,0.000,0.000,0,00:00:00,0,0.000,0.000,0.000,0.000,0.000,0.000,0.000,0.000,0.000,0.000,0.000,0.000,0.000,0.000
33.544,2,0,-2.314,-0.989,4423.980,-2.118,-0.804,305.354,-0.974,-0.262,-20.325,0.000,0.000,0.0105103,0.000,7500.000,0.954,1.927,582.933,-13.925,4424.275,4424.258,-20.348,-0.050,0.299,-0.069,-0.002,-0.031,0.000,0.000,0.000,-0.009,0.695,-0.016,0.719,0.0000000,0.0000000,4422.447,0.000,0.000,0.000,0,00:00:00,0,0.000,0.000,0.000,0.000,0.000,0.000,0.000,0.000,0.000,0.000,0.000,0.000,0.000,0.000
33.645,2,0,-2.289,-0.967,4454.787,-2.087,-0.753,303.393,-0.891,-0.003,-19.927,0.000,0.000,0.0106521,0.000,7500.000,0.948,1.924,580.560,-14.127,4455.225,4455.207,-19.945,0.174,0.210,-0.014,-0.006,-0.004,0.000,0.000,0.000,-0.010,0.695,-0.015,0.719,0.0000000,0.0000000,4453.095,0.000,0.000,0.000,0,00:00:00,0,0.000,0.000,0.000,0.000,0.000,0.000,0.000,0.000,0.000,0.000,0.000,0.000,0.000,0.000
33.746,2,0,-2.264,-0.944,4485.389,-2.064,-0.731,301.424,-0.964,-0.280,-19.946,0.000,0.000,0.0107892,0.000,7500.000,0.942,1.956,578.224,-14.326,4485.782,4485.764,-19.970,-0.076,0.242,0.012,-0.025,-0.020,0.000,0.000,0.000,-0.010,0.694,-0.016,0.720,0.0000000,0.0000000,4483.545,0.000,0.000,0.000,0,00:00:00,0,0.000,0.000,0.000,0.000,0.000,0.000,0.000,0.000,0.000,0.000,0.000,0.000,0.000,0.000
33.847,2,0,-2.240,-0.922,4515.728,-2.056,-0.705,299.439,-1.098,-0.226,-19.618,0.000,0.000,0.0109276,0.000,7500.000,0.936,2.100,575.944,-14.523,4515.713,4515.695,-19.647,-0.022,0.365,-0.001,-0.011,-0.010,0.000,0.000,0.000,-0.010,0.694,-0.017,0.720,0.0000000,0.0000000,4513.799,0.000,0.000,0.000,0,00:00:00,0,0.000,0.000,0.000,0.000,0.000,0.000,0.000,0.000,0.000,0.000,0.000,0.000,0.000,0.000
33.948,2,0,-2.219,-0.898,4545.918,-2.061,-0.682,297.519,-1.219,-0.247,-19.348,0.000,0.000,0.0110625,0.000,7500.000,0.931,2.162,573.628,-14.721,4546.215,4546.198,-19.382,-0.016,0.494,0.014,-0.001,0.025,0.000,0.000,0.000,-0.009,0.694,-0.016,0.720,0.0000000,0.0000000,4543.859,0.000,0.000,0.000,0,00:00:00,0,0.000,0.000,0.000,0.000,0.000,0.000,0.000,0.000,0.000,0.000,0.000,0.000,0.000,0.000
34.049,2,0,-2.199,-0.875,4575.861,-2.064,-0.652,295.567,-1.187,-0.158,-19.261,0.000,0.000,0.0111948,0.000,7500.000,0.925,2.170,571.386,-14.917,4575.829,4575.812,-19.293,0.053,0.473,-0.009,0.005,0.003,0.000,0.000,0.000,-0.009,0.694,-0.016,0.720,0.0000000,0.0000000,4573.726,0.000,0.000,0.000,0,00:00:00,0,0.000,0.000,0.000,0.000,0.000,0.000,0.000,0.000,0.000,0.000,0.000,0.000,0.000,0.000
34.150,2,0,-2.180,-0.851,4605.563,-2.035,-0.625,293.581,-0.858,-0.185,-19.278,0.000,0.000,0.0113270,0.000,7500.000,0.919,2.138,569.165,-15.110,4605.259,4605.242,-19.297,-0.010,0.182,-0.013,0.020,0.016,0.000,0.000,0.000,-0.009,0.694,-0.015,0.719,0.0000000,0.0000000,4603.401,0.000,0.000,0.000,0,00:00:00,0,0.000,0.000,0.000,0.000,0.000,0.000,0.000,0.000,0.000,0.000,0.000,0.000,0.000,0.000
34.251,2,0,-2.162,-0.827,4635.079,-2.030,-0.594,291.626,-1.086,-0.130,-19.071,0.000,0.000,0.0114604,0.000,7500.000,0.913,2.023,566.939,-15.304,4634.860,4634.842,-19.096,0.063,0.466,0.007,0.027,0.025,0.000,0.000,0.000,-0.008,0.695,-0.014,0.718,0.0000000,0.0000000,4632.887,0.000,0.000,0.000,0,00:00:00,0,0.000,0.000,0.000,0.000,0.000,0.000,0.000,0.000,0.000,0.000,0.000,0.000,0.000,0.000
34.352,2,0,-2.144,-0.803,4664.394,-2.009,-0.570,289.689,-0.917,-0.183,-18.862,0.000,0.000,0.0115923,0.000,7500.000,0.908,1.870,564.743,-15.497,4664.145,4664.128,-18.882,0.069,0.337,0.033,0.017,-0.025,0.000,0.000,0.000,-0.008,0.696,-0.016,0.718,0.0000000,0.0000000,4662.185,0.000,0.000,0.000,0,00:00:00,0,0.000,0.000,0.000,0.000,0.000,0.000,0.000,0.000,0.000,0.000,0.000,0.000,0.000,0.000
34.453,2,0,-2.125,-0.779,4693.556,-1.978,-0.562,287.808,-0.816,-0.331,-18.615,0.000,0.000,0.0117224,0.000,7500.000,0.902,1.777,562.544,-15.686,4693.566,4693.549,-18.632,-0.065,0.328,0.009,0.043,-0.001,0.000,0.000,0.000,-0.007,0.698,-0.017,0.716,0.0000000,0.0000000,4691.295,0.000,0.000,0.000,0,00:00:00,0,0.000,0.000,0.000,0.000,0.000,0.000,0.000,0.000,0.000,0.000,0.000,0.000,0.000,0.000
34.554,2,0,-2.105,-0.757,4722.498,-1.955,-0.550,285.907,-0.880,-0.280,-18.591,0.000,0.000,0.0118503,0.000,7500.000,0.896,1.535,560.401,-15.874,4722.323,4722.306,-18.611,0.046,0.360,0.032,-0.015,0.003,0.000,0.000,0.000,-0.006,0.697,-0.018,0.717,0.0000000,0.0000000,4720.220,0.000,0.000,0.000,0,00:00:00,0,0.000,0.000,0.000,0.000,0.000,0.000,0.000,0.000,0.000,0.000,0.000,0.000,0.000,0.000
34.655,2,0,-2.086,-0.736,4751.225,-1.933,-0.543,284.006,-0.879,-0.320,-18.401,0.000,0.000,0.0119791,0.000,7500.000,0.891,1.629,558.279,-16.065,4750.894,4750.877,-18.420,-0.057,0.404,-0.034,0.019,-0.019,0.000,0.000,0.000,-0.008,0.698,-0.017,0.716,0.0000000,0.0000000,4748.960,0.000,0.000,0.000,0,00:00:00,0,0.000,0.000,0.000,0.000,0.000,0.000,0.000,0.000,0.000,0.000,0.000,0.000,0.000,0.000
34.756,2,0,-2.066,-0.716,4779.803,-1.918,-0.520,282.145,-0.935,-0.145,-18.332,0.000,0.000,0.0121067,0.000,7500.000,0.885,1.514,556.142,-16.252,4779.741,4779.724,-18.350,0.130,0.479,0.003,0.013,-0.040,0.000,0.000,0.000,-0.009,0.698,-0.019,0.716,0.0000000,0.0000000,4777.518,0.000,0.000,0.000,0,00:00:00,0,0.000,0.000,0.000,0.000,0.000,0.000,0.000,0.000,0.000,0.000,0.000,0.000,0.000,0.000
34.857,2,0,-2.047,-0.695,4804.214,-1.901,-0.499,277.311,-0.911,-0.155,-18.333,0.000,0.000,0.0122346,0.000,7500.000,0.880,1.440,556.142,-16.252,4779.741,4779.724,-18.350,0.130,0.479,0.003,0.013,-0.040,0.000,0.000,0.000,-0.010,0.699,-0.020,0.715,0.0000000,0.0000000,4777.518,0.000,0.000,0.000,0,00:00:00,0,0.000,0.000,0.000,0.000,0.000,0.000,0.000,0.000,0.000,0.000,0.000,0.000,0.000,0.000
34.958,2,0,-2.027,-0.675,4832.681,-1.864,-0.482,275.906,-0.693,-0.188,-17.981,0.000,0.000,0.0123696,0.000,7500.000,0.865,1.366,551.990,-16.621,4836.074,4836.057,-17.992,0.116,0.330,0.017,0.033,0.001,0.000,0.000,0.000,-0.010,0.700,-0.021,0.714,0.0000000,0.0000000,4834.091,0.000,0.000,0.000,0,00:00:00,0,0.000,0.000,0.000,0.000,0.000,0.000,0.000,0.000,0.000,0.000,0.000,0.000,0.000,0.000
35.059,2,0,-2.006,-0.655,4860.927,-1.837,-0.473,274.450,-0.789,-0.254,-17.898,0.000,0.000,0.0124999,0.000,7500.000,0.861,1.181,549.953,-16.806,4863.834,4863.817,-17.913,0.041,0.346,-0.003,-0.047,0.015,0.000,0.000,0.000,-0.009,0.698,-0.020,0.716,0.0000000,0.0000000,4862.108,0.000,0.000,0.000,0,00:00:00,0,0.000,0.000,0.000,0.000,0.000,0.000,0.000,0.000,0.000,0.000,0.000,0.000,0.000,0.000
35.160,2,0,-1.984,-0.637,4889.004,-1.788,-0.484,272.987,-0.559,-0.447,-17.795,0.000,0.000,0.0126297,0.000,7500.000,0.857,1.449,547.909,-16.987,4891.771,4891.754,-17.808,-0.156,0.143,0.003,0.009,0.002,0.000,0.000,0.000,-0.009,0.698,-0.020,0.715,0.0000000,0.0000000,4889.948,0.000,0.000,0.000,0,00:00:00,0,0.000,0.000,0.000,0.000,0.000,0.000,0.000,0.000,0.000,0.000,0.000,0.000,0.000,0.000
35.261,2,0,-1.960,-0.621,4916.898,-1.755,-0.473,271.507,-0.707,-0.219,-17.717,0.000,0.000,0.0127588,0.000,7500.000,0.852,1.396,545.890,-17.168,4919.449,4919.432,-17.730,0.035,0.283,-0.023,-0.002,0.010,0.000,0.000,0.000,-0.010,0.698,-0.019,0.715,0.0000000,0.0000000,4917.611,0.000,0.000,0.000,0,00:00:00,0,0.000,0.000,0.000,0.000,0.000,0.000,0.000,0.000,0.000,0.000,0.000,0.000,0.000,0.000
35.362,2,0,-1.935,-0.606,4944.671,-1.725,-0.472,270.044,-0.723,-0.309,-17.752,0.000,0.000,0.0128876,0.000,7500.000,0.848,1.399,543.857,-17.347,4947.398,4947.381,-17.767,0.004,0.296,0.033,-0.001,0.022,0.000,0.000,0.000,-0.008,0.698,-0.019,0.716,0.0000000,0.0000000,4945.099,0.000,0.000,0.000,0,00:00:00,0,0.000,0.000,0.000,0.000,0.000,0.000,0.000,0.000,0.000,0.000,0.000,0.000,0.000,0.000
35.463,2,0,-1.911,-0.593,4972.202,-1.707,-0.473,268.538,-0.820,-0.316,-17.458,0.000,0.000,0.0130179,0.000,7500.000,0.844,1.414,541.904,-17.528,4974.336,4974.319,-17.475,0.040,0.416,0.024,0.010,-0.004,0.000,0.000,0.000,-0.007,0.699,-0.020,0.715,0.0000000,0.0000000,4972.413,0.000,0.000,0.000,0,00:00:00,0,0.000,0.000,0.000,0.000,0.000,0.000,0.000,0.000,0.000,0.000,0.000,0.000,0.000,0.000
35.564,2,0,-1.886,-0.581,4999.546,-1.675,-0.483,267.009,-0.675,-0.412,-17.444,0.000,0.000,0.0131448,0.000,7500.000,0.839,1.365,539.942,-17.706,5001.471,5001.454,-17.459,0.013,0.283,0.043,0.007,0.012,0.000,0.000,0.000,-0.005,0.699,-0.022,0.715,0.0000000,0.0000000,4999.554,0.000,0.000,0.000,0,00:00:00,0,0.000,0.000,0.000,0.000,0.000,0.000,0.000,0.000,0.000,0.000,0.000,0.000,0.000,0.000
35.665,2,0,-1.861,-0.570,5026.759,-1.642,-0.467,265.533,-0.652,-0.134,-17.063,0.000,0.000,0.0132726,0.000,7500.000,0.835,1.336,537.971,-17.883,5028.812,5028.794,-17.072,0.220,0.242,-0.035,-0.011,0.019,0.000,0.000,0.000,-0.006,0.698,-0.020,0.715,0.0000000,0.0000000,5026.524,0.000,0.000,0.000,0,00:00:00,0,0.000,0.000,0.000,0.000,0.000,0.000,0.000,0.000,0.000,0.000,0.000,0.000,0.000,0.000
35.766,2,0,-1.835,-0.559,5053.815,-1.619,-0.459,264.051,-0.741,-0.214,-17.077,0.000,0.000,0.0133956,0.000,7500.000,0.831,1.392,536.030,-18.058,5055.826,5055.809,-17.092,0.104,0.260,-0.021,-0.043,-0.001,0.000,0.000,0.000,-0.006,0.697,-0.019,0.717,0.0000000,0.0000000,5053.323,0.000,0.000,0.000,0,00:00:00,0,0.000,0.000,0.000,0.000,0.000,0.000,0.000,0.000,0.000,0.000,0.000,0.000,0.000,0.000
35.867,2,0,-1.810,-0.548,5080.676,-1.593,-0.462,262.553,-0.697,-0.324,-16.890,0.000,0.000,0.0103675,0.000,7500.000,0.826,1.636,534.125,-18.232,5082.399,5082.382,-16.905,-0.055,0.244,-0.026,0.011,0.012,0.000,0.000,0.000,-0.007,0.697,-0.018,0.717,0.0000000,0.0000000,5079.953,0.000,0.000,0.000,0,00:00:00,0,0.000,0.000,0.000,0.000,0.000,0.000,0.000,0.000,0.000,0.000,0.000,0.000,0.000,0.000
35.968,2,0,-1.786,-0.540,5107.313,-1.589,-0.482,261.002,-0.901,-0.477,-16.872,0.000,0.000,0.0105221,0.000,7500.000,0.822,1.570,532.254,-18.406,5108.588,5108.571,-16.897,-0.187,0.427,0.007,-0.017,-0.018,0.000,0.000,0.000,-0.007,0.697,-0.018,0.717,0.0000000,0.0000000,5106.414,0.000,0.000,0.000,0,00:00:00,0,0.000,0.000,0.000,0.000,0.000,0.000,0.000,0.000,0.000,0.000,0.000,0.000,0.000,0.000
36.069,2,0,-1.763,-0.533,5133.824,-1.574,-0.475,259.488,-0.771,-0.217,-16.732,0.000,0.000,0.0106774,0.000,7500.000,0.817,1.668,530.352,-18.577,5135.285,5135.268,-16.748,0.121,0.296,0.034,0.004,0.020,0.000,0.000,0.000,-0.005,0.697,-0.019,0.717,0.0000000,0.0000000,5132.708,0.000,0.000,0.000,0,00:00:00,0,0.000,0.000,0.000,0.000,0.000,0.000,0.000,0.000,0.000,0.000,0.000,0.000,0.000,0.000
36.170,2,0,-1.741,-0.527,5160.116,-1.564,-0.494,257.944,-0.817,-0.462,-16.530,0.000,0.000,0.0108310,0.000,7500.000,0.813,1.650,528.513,-18.748,5161.163,5161.146,-16.551,-0.113,0.390,0.009,0.022,0.032,0.000,0.000,0.000,-0.004,0.698,-0.018,0.716,0.0000000,0.0000000,5158.836,0.000,0.000,0.000,0,00:00:00,0,0.000,0.000,0.000,0.000,0.000,0.000,0.000,0.000,0.000,0.000,0.000,0.000,0.000,0.000
36.271,2,0,-1.720,-0.523,5186.213,-1.553,-0.502,256.372,-0.799,-0.352,-16.511,0.000,0.000,0.0109824,0.000,7500.000,0.808,1.525,526.681,-18.917,5187.020,5187.003,-16.529,-0.022,0.397,-0.012,0.016,0.005,0.000,0.000,0.000,-0.004,0.698,-0.018,0.716,0.0000000,0.0000000,5184.799,0.000,0.000,0.000,0,00:00:00,0,0.000,0.000,0.000,0.000,0.000,0.000,0.000,0.000,0.000,0.000,0.000,0.000,0.000,0.000
36.372,2,0,-1.700,-0.520,5212.122,-1.537,-0.506,254.786,-0.739,-0.314,-16.444,0.000,0.000,0.0111343,0.000,7500.000,0.804,1.431,524.863,-19.089,5212.751,5212.734,-16.460,-0.035,0.313,-0.028,-0.016,-0.005,0.000,0.000,0.000,-0.005,0.698,-0.017,0.716,0.0000000,0.0000000,5210.598,0.000,0.000,0.000,0,00:00:00,0,0.000,0.000,0.000,0.000,0.000,0.000,0.000,0.000,0.000,0.000,0.000,0.000,0.000,0.000
36.473,3,0,-1.681,-0.518,5237.854,-1.531,-0.506,253.210,-0.822,-0.274,-16.203,0.000,0.000,0.0112862,0.000,7500.000,0.799,1.517,523.058,-19.253,5238.371,5238.353,-16.222,-0.005,0.344,-0.005,-0.035,-0.009,0.000,0.000,0.000,-0.006,0.696,-0.017,0.717,0.0000000,0.0000000,5236.234,0.000,0.000,0.000,0,00:00:00,0,0.000,0.000,0.000,0.000,0.000,0.000,0.000,0.000,0.000,0.000,0.000,0.000,0.000,0.000
36.574,3,0,-1.663,-0.516,5263.402,-1.532,-0.508,251.613,-0.881,-0.294,-16.231,70.000,0.000,0.0112862,7703.255,7500.000,0.794,1.719,521.274,-19.423,5263.762,5263.745,-16.252,-0.005,0.429,0.010,0.016,-0.001,0.000,0.000,0.000,-0.006,0.697,-0.017,0.717,0.0000000,0.0000000,5261.708,0.000,0.000,0.000,0,00:00:00,0,0.000,0.000,0.000,0.000,0.000,0.000,0.000,0.000,0.000,0.000,0.000,0.000,0.000,0.000
36.675,3,0,-1.646,-0.513,5288.823,-1.508,-0.493,250.056,-0.626,-0.123,-16.083,70.000,0.000,0.0112862,7704.830,7500.000,0.789,1.627,519.478,-19.589,5289.398,5289.381,-16.095,0.106,0.173,-0.030,-0.001,0.026,0.000,0.000,0.000,-0.006,0.697,-0.015,0.717,0.0000000,0.0000000,5287.020,0.000,0.000,0.000,0,00:00:00,0,0.000,0.000,0.000,0.000,0.000,0.000,0.000,0.000,0.000,0.000,0.000,0.000,0.000,0.000
36.776,3,0,-1.629,-0.511,5314.087,-1.486,-0.516,248.499,-0.642,-0.495,-16.078,70.000,0.000,0.0112862,7706.603,7500.000,0.785,1.626,517.713,-19.752,5314.654,5314.636,-16.095,-0.246,0.225,0.011,0.016,-0.015,0.000,0.000,0.000,-0.006,0.698,-0.016,0.716,0.0000000,0.0000000,5312.173,0.000,0.000,0.000,0,00:00:00,0,0.000,0.000,0.000,0.000,0.000,0.000,0.000,0.000,0.000,0.000,0.000,0.000,0.000,0.000
36.877,3,0,-1.612,-0.510,5339.141,-1.480,-0.502,246.922,-0.792,-0.133,-15.889,70.000,0.000,0.0112862,7708.322,7500.000,0.780,1.539,515.990,-19.916,5339.384,5339.367,-15.905,0.076,0.382,-0.027,0.008,-0.015,0.000,0.000,0.000,-0.007,0.698,-0.016,0.716,0.0000000,0.0000000,5337.166,0.000,0.000,0.000,0,00:00:00,0,0.000,0.000,0.000,0.000,0.000,0.000,0.000,0.000,0.000,0.000,0.000,0.000,0.000,0.000
36.978,3,0,-1.595,-0.508,5364.015,-1.453,-0.504,245.344,-0.564,-0.284,-15.736,70.000,0.000,0.0112862,7711.870,7500.000,0.775,1.490,514.271,-20.081,5364.124,5364.107,-15.748,-0.092,0.204,-0.006,0.025,0.003,0.000,0.000,0.000,-0.007,0.699,-0.016,0.715,0.0000000,0.0000000,5362.001,0.000,0.000,0.000,0,00:00:00,0,0.000,0.000,0.000,0.000,0.000,0.000,0.000,0.000,0.000,0.000,0.000,0.000,0.000,0.000
37.079,3,0,-1.577,-0.506,5388.786,-1.440,-0.503,243.802,-0.705,-0.255,-15.803,70.000,0.000,0.0112862,7713.215,7500.000,0.771,1.345,512.530,-20.239,5389.245,5389.228,-15.817,-0.010,0.332,0.029,-0.005,-0.021,0.000,0.000,0.000,-0.007,0.698,-0.017,0.715,0.0000000,0.0000000,5386.679,0.000,0.000,0.000,0,00:00:00,0,0.000,0.000,0.000,0.000,0.000,0.000,0.000,0.000,0.000,0.000,0.000,0.000,0.000,0.000
37.180,3,0,-1.561,-0.505,5413.369,-1.439,-0.496,242.239,-0.806,-0.198,-15.769,70.000,0.000,0.0112862,7714.563,7500.000,0.766,1.382,510.844,-20.404,5413.632,5413.614,-15.784,0.006,0.460,-0.028,0.017,-0.002,0.000,0.000,0.000,-0.008,0.699,-0.016,0.715,0.0000000,0.0000000,5411.201,0.000,0.000,0.000,0,00:00:00,0,0.000,0.000,0.000,0.000,0.000,0.000,0.000,0.000,0.000,0.000,0.000,0.000,0.000,0.000
37.281,3,0,-1.546,-0.503,5437.782,-1.433,-0.495,240.681,-0.760,-0.251,-15.618,70.000,0.000,0.0112862,7715.568,7500.000,0.761,1.281,509.167,-20.560,5437.959,5437.942,-15.632,-0.014,0.425,0.023,0.005,-0.001,0.000,0.000,0.000,-0.007,0.699,-0.017,0.715,0.0000000,0.0000000,5435.566,0.000,0.000,0.000,0,00:00:00,0,0.000,0.000,0.000,0.000,0.000,0.000,0.000,0.000,0.000,0.000,0.000,0.000,0.000,0.000
37.382,3,0,-1.532,-0.501,5462.022,-1.430,-0.511,239.112,-0.768,-0.423,-15.609,70.000,0.000,0.0112862,7716.233,7500.000,0.757,1.256,507.507,-20.720,5462.103,5462.086,-15.626,-0.206,0.442,-0.013,0.002,0.009,0.000,0.000,0.000,-0.008,0.699,-0.017,0.715,0.0000000,0.0000000,5459.778,0.000,0.000,0.000,0,00:00:00,0,0.000,0.000,0.000,0.000,0.000,0.000,0.000,0.000,0.000,0.000,0.000,0.000,0.000,0.000
37.483,3,0,-1.519,-0.501,5486.077,-1.422,-0.517,237.572,-0.723,-0.323,-15.114,70.000,0.000,0.0112862,7718.924,7500.000,0.752,1.244,505.870,-20.876,5485.985,5485.968,-15.130,-0.076,0.379,0.026,-0.016,0.009,0.000,0.000,0.000,-0.006,0.699,-0.017,0.715,0.0000000,0.0000000,5483.835,0.000,0.000,0.000,0,00:00:00,0,0.000,0.000,0.000,0.000,0.000,0.000,0.000,0.000,0.000,0.000,0.000,0.000,0.000,0.000
37.584,3,0,-1.506,-0.501,5510.072,-1.410,-0.504,236.092,-0.670,-0.139,-15.236,70.000,0.000,0.0112862,7719.592,7500.000,0.748,1.342,504.189,-21.035,5510.566,5510.549,-15.247,0.139,0.331,0.019,0.010,-0.019,0.000,0.000,0.000,-0.006,0.699,-0.018,0.715,0.0000000,0.0000000,5507.740,0.000,0.000,0.000,0,00:00:00,0,0.000,0.000,0.000,0.000,0.000,0.000,0.000,0.000,0.000,0.000,0.000,0.000,0.000,0.000
37.685,3,0,-1.492,-0.501,5533.818,-1.390,-0.519,234.531,-0.595,-0.409,-15.298,70.000,0.000,0.0112862,7721.326,7500.000,0.743,1.290,502.610,-21.192,5533.706,5533.689,-15.312,-0.128,0.292,0.002,0.019,-0.002,0.000,0.000,0.000,-0.006,0.700,-0.019,0.714,0.0000000,0.0000000,5531.492,0.000,0.000,0.000,0,00:00:00,0,0.000,0.000,0.000,0.000,0.000,0.000,0.000,0.000,0.000,0.000,0.000,0.000,0.000,0.000
37.786,3,0,-1.479,-0.502,5557.478,-1.382,-0.525,233.051,-0.692,-0.322,-15.005,70.000,0.000,0.0112862,7721.530,7500.000,0.738,1.184,500.972,-21.344,5557.791,5557.774,-15.020,-0.058,0.365,-0.011,-0.019,-0.026,0.000,0.000,0.000,-0.008,0.699,-0.019,0.715,0.0000000,0.0000000,5555.093,0.000,0.000,0.000,0,00:00:00,0,0.000,0.000,0.000,0.000,0.000,0.000,0.000,0.000,0.000,0.000,0.000,0.000,0.000,0.000
37.887,3,0,-1.466,-0.502,5580.929,-1.359,-0.514,231.521,-0.550,-0.157,-15.082,70.000,0.000,0.0112862,7722.500,7500.000,0.734,1.290,499.404,-21.495,5580.889,5580.872,-15.091,0.002,0.243,-0.067,0.016,-0.004,0.000,0.000,0.000,-0.010,0.700,-0.017,0.714,0.0000000,0.0000000,5578.544,0.000,0.000,0.000,0,00:00:00,0,0.000,0.000,0.000,0.000,0.000,0.000,0.000,0.000,0.000,0.000,0.000,0.000,0.000,0.000
37.988,3,0,-1.451,-0.501,5600.962,-1.335,-0.493,227.551,-0.526,-0.056,-15.083,70.000,0.000,0.0112862,7722.720,7500.000,0.729,1.185,499.404,-21.495,5580.889,5580.872,-15.091,0.002,0.243,-0.067,0.016,-0.004,0.000,0.000,0.000,-0.013,0.700,-0.015,0.714,0.0000000,0.0000000,5578.544,0.000,0.000,0.000,0,00:00:00,0,0.000,0.000,0.000,0.000,0.000,0.000,0.000,0.000,0.000,0.000,0.000,0.000,0.000,0.000
38.089,3,0,-1.436,-0.498,5624.394,-1.314,-0.476,226.442,-0.539,-0.089,-14.872,70.000,0.000,0.0112862,7683.702,7500.000,0.717,1.079,496.244,-21.802,5627.637,5627.620,-14.879,-0.027,0.310,0.001,0.032,-0.001,0.000,0.000,0.000,-0.013,0.701,-0.015,0.712,0.0000000,0.0000000,5624.997,0.000,0.000,0.000,0,00:00:00,0,0.000,0.000,0.000,0.000,0.000,0.000,0.000,0.000,0.000,0.000,0.000,0.000,0.000,0.000
38.190,3,0,-1.421,-0.495,5647.614,-1.305,-0.465,225.268,-0.661,-0.152,-14.764,70.000,0.000,0.0112862,7690.864,7500.000,0.714,0.895,494.723,-21.951,5650.232,5650.215,-14.773,-0.084,0.411,0.002,-0.016,-0.013,0.000,0.000,0.000,-0.013,0.701,-0.015,0.713,0.0000000,0.0000000,5648.001,0.000,0.000,0.000,0,00:00:00,0,0.000,0.000,0.000,0.000,0.000,0.000,0.000,0.000,0.000,0.000,0.000,0.000,0.000,0.000
38.291,3,0,-1.406,-0.490,5670.712,-1.278,-0.447,224.084,-0.473,-0.080,-14.840,70.000,0.000,0.0112862,7696.369,7500.000,0.710,0.989,493.172,-22.100,5673.316,5673.298,-14.845,-0.020,0.275,-0.002,0.037,0.011,0.000,0.000,0.000,-0.013,0.702,-0.015,0.712,0.0000000,0.0000000,5670.858,0.000,0.000,0.000,0,00:00:00,0,0.000,0.000,0.000,0.000,0.000,0.000,0.000,0.000,0.000,0.000,0.000,0.000,0.000,0.000
38.392,3,0,-1.390,-0.484,5690.470,-1.246,-0.429,220.494,-0.418,-0.076,-14.841,70.000,0.000,0.0112862,7701.906,7500.000,0.707,0.775,493.172,-22.100,5673.316,5673.298,-14.845,-0.020,0.275,-0.002,0.037,0.011,0.000,0.000,0.000,-0.012,0.704,-0.014,0.710,0.0000000,0.0000000,5670.858,0.000,0.000,0.000,0,00:00:00,0,0.000,0.000,0.000,0.000,0.000,0.000,0.000,0.000,0.000,0.000,0.000,0.000,0.000,0.000
38.493,3,0,-1.373,-0.477,5713.445,-1.236,-0.415,219.593,-0.619,-0.111,-14.695,70.000,0.000,0.0112862,7669.088,7500.000,0.695,0.561,490.165,-22.398,5718.250,5718.232,-14.701,-0.035,0.443,0.009,-0.024,-0.017,0.000,0.000,0.000,-0.013,0.703,-0.015,0.711,0.0000000,0.0000000,5716.132,0.000,0.000,0.000,0,00:00:00,0,0.000,0.000,0.000,0.000,0.000,0.000,0.000,0.000,0.000,0.000,0.000,0.000,0.000,0.000
38.594,3,0,-1.357,-0.470,5733.122,-1.230,-0.402,216.295,-0.655,-0.126,-14.693,70.000,0.000,0.0112862,7678.772,7500.000,0.693,0.703,490.165,-22.398,5718.250,5718.232,-14.701,-0.035,0.443,0.009,-0.024,-0.017,0.000,0.000,0.000,-0.013,0.702,-0.016,0.712,0.0000000,0.0000000,5716.132,0.000,0.000,0.000,0,00:00:00,0,0.000,0.000,0.000,0.000,0.000,0.000,0.000,0.000,0.000,0.000,0.000,0.000,0.000,0.000
38.695,3,0,-1.342,-0.463,5756.117,-1.226,-0.408,215.752,-0.664,-0.301,-14.426,70.000,0.000,0.0112862,7649.959,7500.000,0.683,0.845,487.143,-22.691,5763.635,5763.618,-14.436,-0.221,0.458,-0.005,-0.003,0.039,0.000,0.000,0.000,-0.012,0.702,-0.015,0.712,0.0000000,0.0000000,5760.826,0.000,0.000,0.000,0,00:00:00,0,0.000,0.000,0.000,0.000,0.000,0.000,0.000,0.000,0.000,0.000,0.000,0.000,0.000,0.000
38.796,3,0,-1.327,-0.456,5778.906,-1.210,-0.395,215.090,-0.540,-0.108,-14.485,70.000,0.000,0.0112862,7665.428,7500.000,0.681,0.862,485.693,-22.837,5785.504,5785.487,-14.491,-0.021,0.333,0.009,0.006,0.014,0.000,0.000,0.000,-0.011,0.702,-0.014,0.712,0.0000000,0.0000000,5782.957,0.000,0.000,0.000,0,00:00:00,0,0.000,0.000,0.000,0.000,0.000,0.000,0.000,0.000,0.000,0.000,0.000,0.000,0.000,0.000
38.897,3,0,-1.313,-0.449,5801.483,-1.196,-0.387,214.346,-0.556,-0.154,-14.205,70.000,0.000,0.0112862,7678.897,7500.000,0.679,0.832,484.258,-22.983,5807.173,5807.156,-14.213,-0.055,0.339,0.009,-0.011,0.012,0.000,0.000,0.000,-0.010,0.701,-0.014,0.712,0.0000000,0.0000000,5804.945,0.000,0.000,0.000,0,00:00:00,0,0.000,0.000,0.000,0.000,0.000,0.000,0.000,0.000,0.000,0.000,0.000,0.000,0.000,0.000
38.998,3,0,-1.299,-0.442,5823.931,-1.192,-0.372,213.557,-0.641,-0.082,-14.262,70.000,0.000,0.0112862,7690.756,7500.000,0.677,0.898,482.798,-23.125,5829.297,5829.280,-14.269,-0.007,0.469,-0.019,0.034,0.013,0.000,0.000,0.000,-0.010,0.703,-0.013,0.711,0.0000000,0.0000000,5826.791,0.000,0.000,0.000,0,00:00:00,0,0.000,0.000,0.000,0.000,0.000,0.000,0.000,0.000,0.000,0.000,0.000,0.000,0.000,0.000
39.099,3,0,-1.286,-0.433,5843.164,-1.183,-0.354,210.426,-0.592,-0.054,-14.264,70.000,0.000,0.0112862,7702.016,7500.000,0.675,0.700,482.798,-23.125,5829.297,5829.280,-14.269,-0.007,0.469,-0.019,0.034,0.013,0.000,0.000,0.000,-0.011,0.704,-0.012,0.710,0.0000000,0.0000000,5826.791,0.000,0.000,0.000,0,00:00:00,0,0.000,0.000,0.000,0.000,0.000,0.000,0.000,0.000,0.000,0.000,0.000,0.000,0.000,0.000
39.200,3,0,-1.272,-0.424,5865.492,-1.165,-0.332,209.864,-0.492,-0.008,-14.036,70.000,0.000,0.0112862,7673.562,7500.000,0.665,0.502,479.953,-23.408,5872.539,5872.521,-14.039,0.011,0.405,-0.018,0.025,0.000,0.000,0.000,0.000,-0.011,0.705,-0.011,0.709,0.0000000,0.0000000,5870.058,0.000,0.000,0.000,0,00:00:00,0,0.000,0.000,0.000,0.000,0.000,0.000,0.000,0.000,0.000,0.000,0.000,0.000,0.000,0.000
39.301,3,0,-1.259,-0.413,5887.658,-1.157,-0.300,209.217,-0.576,0.100,-14.118,70.000,0.000,0.0112862,7688.012,7500.000,0.664,0.354,478.542,-23.547,5894.067,5894.050,-14.123,0.089,0.455,-0.023,-0.022,-0.001,0.000,0.000,0.000,-0.012,0.704,-0.011,0.710,0.0000000,0.0000000,5891.480,0.000,0.000,0.000,0,00:00:00,0,0.000,0.000,0.000,0.000,0.000,0.000,0.000,0.000,0.000,0.000,0.000,0.000,0.000,0.000
39.402,3,0,-1.246,-0.400,5909.695,-1.128,-0.268,208.528,-0.372,0.113,-14.057,70.000,0.000,0.0112862,7703.320,7500.000,0.662,0.478,477.126,-23.686,5915.717,5915.700,-14.059,0.089,0.253,-0.006,0.002,-0.017,0.000,0.000,0.000,-0.013,0.704,-0.011,0.710,0.0000000,0.0000000,5912.763,0.000,0.000,0.000,0,00:00:00,0,0.000,0.000,0.000,0.000,0.000,0.000,0.000,0.000,0.000,0.000,0.000,0.000,0.000,0.000
39.503,3,0,-1.231,-0.386,5931.499,-1.105,-0.237,207.721,-0.419,0.103,-14.008,70.000,0.000,0.0112862,7715.616,7500.000,0.660,0.468,475.770,-23.822,5936.506,5936.489,-14.011,0.078,0.315,-0.001,0.010,0.013,0.000,0.000,0.000,-0.012,0.704,-0.011,0.710,0.0000000,0.0000000,5933.907,0.000,0.000,0.000,0,00:00:00,0,0.000,0.000,0.000,0.000,0.000,0.000,0.000,0.000,0.000,0.000,0.000,0.000,0.000,0.000
39.604,3,0,-1.215,-0.370,5950.176,-1.082,-0.206,204.639,-0.405,0.106,-14.008,70.000,0.000,0.0112862,7725.865,7500.000,0.657,0.411,475.770,-23.822,5936.506,5936.489,-14.011,0.078,0.315,-0.001,0.010,0.013,0.000,0.000,0.000,-0.012,0.705,-0.010,0.709,0.0000000,0.0000000,5933.907,0.000,0.000,0.000,0,00:00:00,0,0.000,0.000,0.000,0.000,0.000,0.000,0.000,0.000,0.000,0.000,0.000,0.000,0.000,0.000
39.705,3,0,-1.199,-0.353,5971.829,-1.060,-0.187,204.029,-0.413,0.000,-13.845,70.000,0.000,0.0112862,7698.087,7500.000,0.648,0.354,473.052,-24.098,5978.320,5978.302,-13.848,-0.015,0.326,0.008,-0.001,-0.005,0.000,0.000,0.000,-0.012,0.705,-0.011,0.709,0.0000000,0.0000000,5975.780,0.000,0.000,0.000,0,00:00:00,0,0.000,0.000,0.000,0.000,0.000,0.000,0.000,0.000,0.000,0.000,0.000,0.000,0.000,0.000
39.806,3,0,-1.183,-0.337,5993.342,-1.038,-0.180,203.370,-0.412,-0.104,-13.749,70.000,0.000,0.0112862,7711.070,7500.000,0.646,0.362,471.690,-24.233,5999.347,5999.329,-13.752,-0.123,0.317,-0.003,-0.008,-0.033,0.000,0.000,0.000,-0.013,0.704,-0.012,0.710,0.0000000,0.0000000,5996.511,0.000,0.000,0.000,0,00:00:00,0,0.000,0.000,0.000,0.000,0.000,0.000,0.000,0.000,0.000,0.000,0.000,0.000,0.000,0.000
39.907,3,0,-1.166,-0.321,6011.783,-1.019,-0.173,200.465,-0.422,-0.101,-13.749,70.000,0.000,0.0112862,7723.117,7500.000,0.644,0.406,471.690,-24.233,5999.347,5999.329,-13.752,-0.123,0.317,-0.003,-0.008,-0.033,0.000,0.000,0.000,-0.015,0.704,-0.013,0.710,0.0000000,0.0000000,5996.511,0.000,0.000,0.000,0,00:00:00,0,0.000,0.000,0.000,0.000,0.000,0.000,0.000,0.000,0.000,0.000,0.000,0.000,0.000,0.000
40.008,3,0,-1.149,-0.306,6033.097,-0.993,-0.153,199.922,-0.351,0.041,-13.793,70.000,0.000,0.0112862,7700.565,7500.000,0.635,0.451,469.059,-24.503,6040.094,6040.077,-13.796,0.027,0.209,0.009,-0.023,0.036,0.000,0.000,0.000,-0.013,0.703,-0.012,0.711,0.0000000,0.0000000,6037.562,0.000,0.000,0.000,0,00:00:00,0,0.000,0.000,0.000,0.000,0.000,0.000,0.000,0.000,0.000,0.000,0.000,0.000,0.000,0.000
40.109,3,0,-1.131,-0.291,6054.237,-0.976,-0.138,199.310,-0.427,-0.007,-13.578,70.000,0.000,0.0112862,7714.251,7500.000,0.634,0.582,467.746,-24.636,6060.495,6060.478,-13.581,-0.024,0.321,-0.005,0.023,-0.009,0.000,0.000,0.000,-0.013,0.704,-0.012,0.710,0.0000000,0.0000000,6057.885,0.000,0.000,0.000,0,00:00:00,0,0.000,0.000,0.000,0.000,0.000,0.000,0.000,0.000,0.000,0.000,0.000,0.000,0.000,0.000
40.210,3,0,-1.113,-0.275,6075.181,-0.956,-0.109,198.616,-0.384,0.144,-13.405,70.000,0.000,0.0112862,7726.861,7500.000,0.632,0.449,466.455,-24.767,6080.612,6080.595,-13.407,0.106,0.279,-0.015,0.003,0.025,0.000,0.000,0.000,-0.013,0.704,-0.010,0.710,0.0000000,0.0000000,6078.073,0.000,0.000,0.000,0,00:00:00,0,0.000,0.000,0.000,0.000,0.000,0.000,0.000,0.000,0.000,0.000,0.000,0.000,0.000,0.000
40.311,3,0,-1.095,-0.259,6095.990,-0.931,-0.099,197.867,-0.327,-0.035,-13.460,70.000,0.000,0.0112862,7737.935,7500.000,0.630,0.429,465.147,-24.899,6101.024,6101.007,-13.461,-0.115,0.267,-0.030,0.029,0.021,0.000,0.000,0.000,-0.013,0.705,-0.009,0.709,0.0000000,0.0000000,6098.126,0.000,0.000,0.000,0,00:00:00,0,0.000,0.000,0.000,0.000,0.000,0.000,0.000,0.000,0.000,0.000,0.000,0.000,0.000,0.000
40.412,3,0,-1.076,-0.242,6116.543,-0.905,-0.081,196.982,-0.313,0.048,-13.476,70.000,0.000,0.0112862,7748.086,7500.000,0.628,0.260,463.905,-25.031,6120.468,6120.450,-13.478,0.030,0.235,0.046,-0.010,-0.021,0.000,0.000,0.000,-0.012,0.705,-0.011,0.709,0.0000000,0.0000000,6118.046,0.000,0.000,0.000,0,00:00:00,0,0.000,0.000,0.000,0.000,0.000,0.000,0.000,0.000,0.000,0.000,0.000,0.000,0.000,0.000
40.513,3,0,-1.057,-0.227,6136.972,-0.879,-0.077,196.080,-0.292,-0.075,-13.373,70.000,0.000,0.0112862,7755.803,7500.000,0.625,0.326,462.616,-25.160,6140.680,6140.663,-13.374,-0.085,0.236,0.007,0.013,0.017,0.000,0.000,0.000,-0.012,0.705,-0.011,0.709,0.0000000,0.0000000,6137.833,0.000,0.000,0.000,0,00:00:00,0,0.000,0.000,0.000,0.000,0.000,0.000,0.000,0.000,0.000,0.000,0.000,0.000,0.000,0.000
40.614,3,0,-1.037,-0.212,6157.215,-0.847,-0.061,195.123,-0.231,0.046,-13.223,70.000,0.000,0.0112862,7763.167,7500.000,0.622,0.250,461.365,-25.289,6160.338,6160.321,-13.224,0.021,0.159,-0.009,-0.009,-0.012,0.000,0.000,0.000,-0.012,0.705,-0.011,0.709,0.0000000,0.0000000,6157.486,0.000,0.000,0.000,0,00:00:00,0,0.000,0.000,0.000,0.000,0.000,0.000,0.000,0.000,0.000,0.000,0.000,0.000,0.000,0.000
40.715,3,0,-1.017,-0.197,6177.277,-0.849,-0.038,194.105,-0.556,0.121,-13.206,70.000,0.000,0.0112862,7771.974,7500.000,0.619,0.303,460.124,-25.417,6179.889,6179.872,-13.211,0.147,0.424,0.032,-0.043,0.002,0.000,0.000,0.000,-0.011,0.704,-0.012,0.710,0.0000000,0.0000000,6177.008,0.000,0.000,0.000,0,00:00:00,0,0.000,0.000,0.000,0.000,0.000,0.000,0.000,0.000,0.000,0.000,0.000,0.000,0.000,0.000
40.816,3,0,-1.000,-0.181,6197.113,-0.870,-0.020,193.003,-0.737,0.085,-13.117,70.000,0.000,0.0112862,7777.370,7500.000,0.616,0.553,458.916,-25.543,6198.959,6198.942,-13.124,0.127,0.599,0.010,-0.006,0.035,0.000,0.000,0.000,-0.010,0.703,-0.011,0.711,0.0000000,0.0000000,6196.398,0.000,0.000,0.000,0,00:00:00,0,0.000,0.000,0.000,0.000,0.000,0.000,0.000,0.000,0.000,0.000,0.000,0.000,0.000,0.000
40.917,3,0,-0.986,-0.165,6216.816,-0.869,-0.013,191.871,-0.509,-0.019,-13.257,70.000,0.000,0.0112862,7781.340,7500.000,0.613,0.590,457.678,-25.669,6218.532,6218.515,-13.262,0.012,0.360,-0.003,-0.010,0.010,0.000,0.000,0.000,-0.009,0.703,-0.010,0.711,0.0000000,0.0000000,6215.657,0.000,0.000,0.000,0,00:00:00,0,0.000,0.000,0.000,0.000,0.000,0.000,0.000,0.000,0.000,0.000,0.000,0.000,0.000,0.000
41.018,3,0,-0.972,-0.151,6236.316,-0.851,-0.013,190.706,-0.326,-0.075,-12.923,70.000,0.000,0.0112862,7784.679,7500.000,0.610,0.645,456.483,-25.796,6237.484,6237.467,-12.926,-0.063,0.168,-0.010,-0.011,-0.001,0.000,0.000,0.000,-0.010,0.703,-0.010,0.711,0.0000000,0.0000000,6234.786,0.000,0.000,0.000,0,00:00:00,0,0.000,0.000,0.000,0.000,0.000,0.000,0.000,0.000,0.000,0.000,0.000,0.000,0.000,0.000
41.119,3,0,-0.959,-0.138,6255.660,-0.848,-0.010,189.508,-0.473,-0.045,-12.961,70.000,0.000,0.0112862,7787.272,7500.000,0.606,0.709,455.280,-25.920,6256.589,6256.572,-12.966,-0.031,0.306,-0.000,-0.006,0.018,0.000,0.000,0.000,-0.009,0.702,-0.009,0.712,0.0000000,0.0000000,6253.785,0.000,0.000,0.000,0,00:00:00,0,0.000,0.000,0.000,0.000,0.000,0.000,0.000,0.000,0.000,0.000,0.000,0.000,0.000,0.000
41.220,3,0,-0.946,-0.125,6274.784,-0.853,-0.000,188.238,-0.554,0.028,-12.939,70.000,0.000,0.0112862,7789.195,7500.000,0.602,0.742,454.117,-26.045,6275.105,6275.088,-12.946,0.051,0.354,0.004,-0.024,-0.023,0.000,0.000,0.000,-0.010,0.702,-0.010,0.712,0.0000000,0.0000000,6272.654,0.000,0.000,0.000,0,00:00:00,0,0.000,0.000,0.000,0.000,0.000,0.000,0.000,0.000,0.000,0.000,0.000,0.000,0.000,0.000
41.321,3,0,-0.936,-0.114,6293.790,-0.848,-0.002,186.999,-0.440,-0.074,-12.705,70.000,0.000,0.0112862,7792.320,7500.000,0.598,0.879,452.922,-26.164,6294.169,6294.152,-12.710,-0.049,0.252,0.004,0.004,-0.008,0.000,0.000,0.000,-0.010,0.702,-0.011,0.712,0.0000000,0.0000000,6291.394,0.000,0.000,0.000,0,00:00:00,0,0.000,0.000,0.000,0.000,0.000,0.000,0.000,0.000,0.000,0.000,0.000,0.000,0.000,0.000
41.422,3,0,-0.925,-0.103,6312.604,-0.847,0.000,185.697,-0.477,-0.035,-12.832,70.000,0.000,0.0112862,7793.703,7500.000,0.595,0.857,451.771,-26.287,6312.574,6312.557,-12.838,0.011,0.307,0.015,0.017,0.011,0.000,0.000,0.000,-0.009,0.702,-0.011,0.712,0.0000000,0.0000000,6310.005,0.000,0.000,0.000,0,00:00:00,0,0.000,0.000,0.000,0.000,0.000,0.000,0.000,0.000,0.000,0.000,0.000,0.000,0.000,0.000
41.523,3,0,-0.917,-0.093,6331.298,-0.870,0.007,184.407,-0.710,0.023,-12.807,70.000,0.000,0.0112862,7793.989,7500.000,0.591,0.761,450.599,-26.409,6331.340,6331.322,-12.814,0.089,0.548,0.011,0.008,0.016,0.000,0.000,0.000,-0.008,0.703,-0.011,0.711,0.0000000,0.0000000,6328.489,0.000,0.000,0.000,0,00:00:00,0,0.000,0.000,0.000,0.000,0.000,0.000,0.000,0.000,0.000,0.000,0.000,0.000,0.000,0.000
41.624,3,0,-0.910,-0.083,6349.796,-0.864,0.014,183.069,-0.419,0.018,-12.787,70.000,0.000,0.0112862,7794.233,7500.000,0.587,0.718,449.472,-26.530,6349.432,6349.415,-12.791,0.093,0.238,0.014,-0.016,-0.003,0.000,0.000,0.000,-0.008,0.702,-0.011,0.712,0.0000000,0.0000000,6346.845,0.000,0.000,0.000,0,00:00:00,0,0.000,0.000,0.000,0.000,0.000,0.000,0.000,0.000,0.000,0.000,0.000,0.000,0.000,0.000
41.725,3,0,-0.905,-0.075,6368.165,-0.883,0.008,181.738,-0.661,-0.093,-12.765,70.000,0.000,0.0112862,7793.442,7500.000,0.583,0.812,448.328,-26.648,6367.842,6367.824,-12.773,0.015,0.499,0.022,0.013,0.034,0.000,0.000,0.000,-0.006,0.703,-0.011,0.712,0.0000000,0.0000000,6365.073,0.000,0.000,0.000,0,00:00:00,0,0.000,0.000,0.000,0.000,0.000,0.000,0.000,0.000,0.000,0.000,0.000,0.000,0.000,0.000
41.826,3,0,-0.901,-0.067,6386.355,-0.892,-0.006,180.396,-0.566,-0.175,-12.539,70.000,0.000,0.0112862,7795.309,7500.000,0.578,0.740,447.217,-26.765,6385.751,6385.734,-12.545,-0.093,0.418,-0.018,0.008,-0.005,0.000,0.000,0.000,-0.007,0.703,-0.011,0.711,0.0000000,0.0000000,6383.175,0.000,0.000,0.000,0,00:00:00,0,0.000,0.000,0.000,0.000,0.000,0.000,0.000,0.000,0.000,0.000,0.000,0.000,0.000,0.000
41.927,3,0,-0.899,-0.062,6401.880,-0.901,-0.018,177.163,-0.557,-0.153,-12.540,70.000,0.000,0.0112862,7794.659,7500.000,0.574,0.694,447.217,-26.765,6385.751,6385.734,-12.545,-0.093,0.418,-0.018,0.008,-0.005,0.000,0.000,0.000,-0.007,0.703,-0.010,0.711,0.0000000,0.0000000,6383.175,0.000,0.000,0.000,0,00:00:00,0,0.000,0.000,0.000,0.000,0.000,0.000,0.000,0.000,0.000,0.000,0.000,0.000,0.000,0.000
42.028,3,0,-0.897,-0.058,6414.948,-0.908,-0.028,172.339,-0.547,-0.132,-12.540,70.000,0.000,0.0112862,7764.036,7500.000,0.564,0.648,447.217,-26.765,6385.751,6385.734,-12.545,-0.093,0.418,-0.018,0.008,-0.005,0.000,0.000,0.000,-0.008,0.703,-0.010,0.711,0.0000000,0.0000000,6383.175,0.000,0.000,0.000,0,00:00:00,0,0.000,0.000,0.000,0.000,0.000,0.000,0.000,0.000,0.000,0.000,0.000,0.000,0.000,0.000
42.129,3,0,-0.897,-0.057,6433.293,-0.929,-0.056,171.818,-0.682,-0.302,-12.574,70.000,0.000,0.0112862,7711.496,7500.000,0.549,0.603,443.898,-27.118,6439.461,6439.444,-12.583,-0.235,0.538,0.017,-0.016,-0.052,0.000,0.000,0.000,-0.009,0.703,-0.012,0.711,0.0000000,0.0000000,6436.726,0.000,0.000,0.000,0,00:00:00,0,0.000,0.000,0.000,0.000,0.000,0.000,0.000,0.000,0.000,0.000,0.000,0.000,0.000,0.000
42.230,3,0,-0.898,-0.057,6451.496,-0.931,-0.074,171.248,-0.483,-0.214,-12.398,70.000,0.000,0.0112862,7722.767,7500.000,0.547,0.696,442.812,-27.234,6457.117,6457.100,-12.404,-0.147,0.318,0.006,-0.016,0.002,0.000,0.000,0.000,-0.009,0.702,-0.012,0.712,0.0000000,0.0000000,6454.326,0.000,0.000,0.000,0,00:00:00,0,0.000,0.000,0.000,0.000,0.000,0.000,0.000,0.000,0.000,0.000,0.000,0.000,0.000,0.000
42.331,3,0,-0.898,-0.059,6469.532,-0.918,-0.072,170.615,-0.344,-0.005,-12.208,70.000,0.000,0.0112862,7733.186,7500.000,0.546,0.791,441.746,-27.350,6474.469,6474.451,-12.211,0.067,0.206,0.007,0.025,-0.009,0.000,0.000,0.000,-0.009,0.703,-0.013,0.711,0.0000000,0.0000000,6471.801,0.000,0.000,0.000,0,00:00:00,0,0.000,0.000,0.000,0.000,0.000,0.000,0.000,0.000,0.000,0.000,0.000,0.000,0.000,0.000
42.432,3,0,-0.898,-0.060,6487.453,-0.922,-0.069,169.909,-0.515,-0.002,-12.556,70.000,0.000,0.0112862,7742.661,7500.000,0.544,0.646,440.666,-27.462,6492.088,6492.071,-12.561,0.072,0.336,-0.004,-0.030,-0.016,0.000,0.000,0.000,-0.010,0.702,-0.013,0.712,0.0000000,0.0000000,6489.153,0.000,0.000,0.000,0,00:00:00,0,0.000,0.000,0.000,0.000,0.000,0.000,0.000,0.000,0.000,0.000,0.000,0.000,0.000,0.000
42.533,3,0,-0.898,-0.060,6502.801,-0.930,-0.065,167.334,-0.552,0.003,-12.554,70.000,0.000,0.0112862,7750.804,7500.000,0.542,0.815,440.666,-27.462,6492.088,6492.071,-12.561,0.072,0.336,-0.004,-0.030,-0.016,0.000,0.000,0.000,-0.011,0.701,-0.014,0.713,0.0000000,0.0000000,6489.153,0.000,0.000,0.000,0,00:00:00,0,0.000,0.000,0.000,0.000,0.000,0.000,0.000,0.000,0.000,0.000,0.000,0.000,0.000,0.000
42.634,3,0,-0.899,-0.061,6520.590,-0.929,-0.075,166.790,-0.461,-0.131,-12.429,70.000,0.000,0.0112862,7733.134,7500.000,0.534,0.984,438.566,-27.684,6526.445,6526.428,-12.436,-0.033,0.268,0.023,0.013,-0.044,0.000,0.000,0.000,-0.011,0.701,-0.016,0.713,0.0000000,0.0000000,6523.485,0.000,0.000,0.000,0,00:00:00,0,0.000,0.000,0.000,0.000,0.000,0.000,0.000,0.000,0.000,0.000,0.000,0.000,0.000,0.000
42.735,3,0,-0.900,-0.063,6538.156,-0.930,-0.084,166.125,-0.489,-0.116,-12.377,70.000,0.000,0.0112862,7743.742,7500.000,0.532,0.913,437.558,-27.797,6542.979,6542.962,-12.383,0.062,0.307,0.065,0.011,0.023,0.000,0.000,0.000,-0.008,0.702,-0.018,0.712,0.0000000,0.0000000,6540.466,0.000,0.000,0.000,0,00:00:00,0,0.000,0.000,0.000,0.000,0.000,0.000,0.000,0.000,0.000,0.000,0.000,0.000,0.000,0.000
42.836,3,0,-0.900,-0.065,6555.550,-0.927,-0.089,165.371,-0.443,-0.084,-12.490,70.000,0.000,0.0112862,7752.433,7500.000,0.530,0.863,436.539,-27.906,6559.739,6559.721,-12.495,0.073,0.273,-0.017,0.012,-0.007,0.000,0.000,0.000,-0.009,0.702,-0.017,0.712,0.0000000,0.0000000,6557.326,0.000,0.000,0.000,0,00:00:00,0,0.000,0.000,0.000,0.000,0.000,0.000,0.000,0.000,0.000,0.000,0.000,0.000,0.000,0.000
42.937,3,0,-0.901,-0.067,6572.873,-0.929,-0.090,164.640,-0.492,-0.042,-12.287,70.000,0.000,0.0112862,7759.721,7500.000,0.528,0.792,435.486,-28.019,6577.077,6577.060,-12.292,0.083,0.346,-0.027,0.017,0.003,0.000,0.000,0.000,-0.010,0.703,-0.016,0.711,0.0000000,0.0000000,6574.063,0.000,0.000,0.000,0,00:00:00,0,0.000,0.000,0.000,0.000,0.000,0.000,0.000,0.000,0.000,0.000,0.000,0.000,0.000,0.000
43.038,3,0,-0.900,-0.069,6590.022,-0.911,-0.103,163.853,-0.292,-0.167,-12.101,70.000,0.000,0.0112862,7767.247,7500.000,0.526,0.688,434.484,-28.126,6593.613,6593.595,-12.105,-0.012,0.161,0.031,0.009,-0.008,0.000,0.000,0.000,-0.009,0.703,-0.018,0.711,0.0000000,0.0000000,6590.678,0.000,0.000,0.000,0,00:00:00,0,0.000,0.000,0.000,0.000,0.000,0.000,0.000,0.000,0.000,0.000,0.000,0.000,0.000,0.000
43.139,3,0,-0.899,-0.073,6606.973,-0.901,-0.118,162.950,-0.379,-0.192,-12.378,70.000,0.000,0.0112862,7773.766,7500.000,0.523,0.646,433.502,-28.235,6609.839,6609.822,-12.382,-0.008,0.256,0.018,0.008,-0.003,0.000,0.000,0.000,-0.008,0.703,-0.018,0.711,0.0000000,0.0000000,6607.172,0.000,0.000,0.000,0,00:00:00,0,0.000,0.000,0.000,0.000,0.000,0.000,0.000,0.000,0.000,0.000,0.000,0.000,0.000,0.000
43.240,3,0,-0.896,-0.077,6623.805,-0.888,-0.129,162.062,-0.341,-0.149,-12.019,70.000,0.000,0.0112862,7781.053,7500.000,0.520,0.602,432.497,-28.342,6626.494,6626.477,-12.022,0.062,0.250,0.028,0.026,0.004,0.000,0.000,0.000,-0.007,0.704,-0.019,0.710,0.0000000,0.0000000,6623.546,0.000,0.000,0.000,0,00:00:00,0,0.000,0.000,0.000,0.000,0.000,0.000,0.000,0.000,0.000,0.000,0.000,0.000,0.000,0.000
43.341,3,0,-0.893,-0.082,6640.481,-0.882,-0.143,161.118,-0.412,-0.177,-12.074,70.000,0.000,0.0112862,7786.195,7500.000,0.518,0.462,431.516,-28.446,6642.767,6642.749,-12.078,0.047,0.341,0.007,0.016,0.001,0.000,0.000,0.000,-0.007,0.705,-0.019,0.709,0.0000000,0.0000000,6639.799,0.000,0.000,0.000,0,00:00:00,0,0.000,0.000,0.000,0.000,0.000,0.000,0.000,0.000,0.000,0.000,0.000,0.000,0.000,0.000
43.442,3,0,-0.889,-0.088,6656.943,-0.861,-0.151,160.075,-0.251,-0.132,-12.189,70.000,0.000,0.0112862,7790.395,7500.000,0.515,0.369,430.569,-28.550,6658.502,6658.485,-12.190,0.078,0.201,-0.008,0.020,0.066,0.000,0.000,0.000,-0.005,0.706,-0.017,0.708,0.0000000,0.0000000,6655.932,0.000,0.000,0.000,0,00:00:00,0,0.000,0.000,0.000,0.000,0.000,0.000,0.000,0.000,0.000,0.000,0.000,0.000,0.000,0.000
43.543,3,0,-0.884,-0.094,6673.314,-0.847,-0.149,159.076,-0.329,-0.022,-11.836,70.000,0.000,0.0112862,7793.002,7500.000,0.512,0.252,429.582,-28.656,6674.946,6674.929,-11.836,0.135,0.286,-0.042,0.006,-0.003,0.000,0.000,0.000,-0.007,0.706,-0.015,0.708,0.0000000,0.0000000,6671.945,0.000,0.000,0.000,0,00:00:00,0,0.000,0.000,0.000,0.000,0.000,0.000,0.000,0.000,0.000,0.000,0.000,0.000,0.000,0.000
43.644,3,0,-0.878,-0.100,6689.454,-0.837,-0.177,157.992,-0.363,-0.334,-11.731,70.000,0.000,0.0112862,7796.078,7500.000,0.508,0.211,428.662,-28.764,6690.293,6690.276,-11.734,-0.137,0.365,0.032,0.035,-0.027,0.000,0.000,0.000,-0.006,0.707,-0.017,0.707,0.0000000,0.0000000,6687.838,0.000,0.000,0.000,0,00:00:00,0,0.000,0.000,0.000,0.000,0.000,0.000,0.000,0.000,0.000,0.000,0.000,0.000,0.000,0.000
43.745,3,0,-0.872,-0.108,6705.523,-0.829,-0.216,156.917,-0.377,-0.447,-11.908,70.000,0.000,0.0112862,7797.743,7500.000,0.505,0.042,427.687,-28.864,6706.594,6706.577,-11.913,-0.227,0.403,0.017,0.018,0.011,0.000,0.000,0.000,-0.005,0.707,-0.017,0.707,0.0000000,0.0000000,6703.613,0.000,0.000,0.000,0,00:00:00,0,0.000,0.000,0.000,0.000,0.000,0.000,0.000,0.000,0.000,0.000,0.000,0.000,0.000,0.000
43.846,3,0,-0.865,-0.119,6721.465,-0.808,-0.232,155.835,-0.254,-0.215,-11.850,70.000,0.000,0.0112862,7802.002,7500.000,0.502,-0.060,426.741,-28.967,6722.426,6722.409,-11.851,-0.018,0.275,-0.015,0.002,0.030,0.000,0.000,0.000,-0.005,0.708,-0.016,0.706,0.0000000,0.0000000,6719.269,0.000,0.000,0.000,0,00:00:00,0,0.000,0.000,0.000,0.000,0.000,0.000,0.000,0.000,0.000,0.000,0.000,0.000,0.000,0.000
43.947,3,0,-0.858,-0.129,6737.203,-0.814,-0.239,154.687,-0.507,-0.144,-11.801,70.000,0.000,0.0112862,7803.880,7500.000,0.498,-0.071,425.838,-29.068,6737.579,6737.562,-11.801,0.048,0.514,-0.009,-0.010,-0.004,0.000,0.000,0.000,-0.005,0.707,-0.016,0.707,0.0000000,0.0000000,6734.806,0.000,0.000,0.000,0,00:00:00,0,0.000,0.000,0.000,0.000,0.000,0.000,0.000,0.000,0.000,0.000,0.000,0.000,0.000,0.000
44.048,3,0,-0.851,-0.140,6752.803,-0.790,-0.255,153.515,-0.215,-0.225,-11.886,70.000,0.000,0.0112862,7804.657,7500.000,0.495,-0.014,424.917,-29.170,6753.052,6753.035,-11.888,-0.038,0.193,0.003,-0.025,0.033,0.000,0.000,0.000,-0.004,0.706,-0.015,0.708,0.0000000,0.0000000,6750.226,0.000,0.000,0.000,0,00:00:00,0,0.000,0.000,0.000,0.000,0.000,0.000,0.000,0.000,0.000,0.000,0.000,0.000,0.000,0.000
44.149,3,0,-0.844,-0.151,6768.261,-0.796,-0.276,152.334,-0.497,-0.293,-11.784,70.000,0.000,0.0112862,7804.941,7500.000,0.491,0.132,424.008,-29.271,6768.355,6768.338,-11.788,-0.087,0.490,0.011,0.010,-0.007,0.000,0.000,0.000,-0.004,0.707,-0.015,0.707,0.0000000,0.0000000,6765.527,0.000,0.000,0.000,0,00:00:00,0,0.000,0.000,0.000,0.000,0.000,0.000,0.000,0.000,0.000,0.000,0.000,0.000,0.000,0.000
44.250,3,0,-0.837,-0.162,6783.652,-0.784,-0.288,151.186,-0.320,-0.197,-11.856,70.000,0.000,0.0112862,7804.954,7500.000,0.487,0.074,423.076,-29.371,6784.071,6784.054,-11.858,-0.005,0.299,-0.008,-0.009,0.030,0.000,0.000,0.000,-0.003,0.706,-0.014,0.708,0.0000000,0.0000000,6780.712,0.000,0.000,0.000,0,00:00:00,0,0.000,0.000,0.000,0.000,0.000,0.000,0.000,0.000,0.000,0.000,0.000,0.000,0.000,0.000
44.351,3,0,-0.829,-0.174,6798.821,-0.771,-0.305,149.966,-0.313,-0.261,-11.777,70.000,0.000,0.0112862,7807.758,7500.000,0.484,0.125,422.216,-29.469,6798.592,6798.574,-11.779,-0.083,0.312,-0.011,0.015,0.006,0.000,0.000,0.000,-0.003,0.707,-0.013,0.707,0.0000000,0.0000000,6795.779,0.000,0.000,0.000,0,00:00:00,0,0.000,0.000,0.000,0.000,0.000,0.000,0.000,0.000,0.000,0.000,0.000,0.000,0.000,0.000
44.452,3,0,-0.822,-0.186,6813.878,-0.770,-0.310,148.759,-0.422,-0.153,-11.735,70.000,0.000,0.0112862,7807.417,7500.000,0.480,0.035,421.323,-29.566,6813.712,6813.695,-11.736,0.042,0.417,0.013,0.004,-0.012,0.000,0.000,0.000,-0.003,0.707,-0.014,0.707,0.0000000,0.0000000,6810.730,0.000,0.000,0.000,0,00:00:00,0,0.000,0.000,0.000,0.000,0.000,0.000,0.000,0.000,0.000,0.000,0.000,0.000,0.000,0.000
44.553,3,0,-0.814,-0.198,6828.745,-0.745,-0.341,147.510,-0.178,-0.406,-11.631,70.000,0.000,0.0112862,7807.087,7500.000,0.476,0.045,420.470,-29.663,6828.156,6828.139,-11.636,-0.228,0.208,-0.008,0.040,0.024,0.000,0.000,0.000,-0.002,0.708,-0.013,0.706,0.0000000,0.0000000,6825.564,0.000,0.000,0.000,0,00:00:00,0,0.000,0.000,0.000,0.000,0.000,0.000,0.000,0.000,0.000,0.000,0.000,0.000,0.000,0.000
44.654,3,0,-0.805,-0.211,6843.473,-0.730,-0.347,146.257,-0.278,-0.176,-11.590,70.000,0.000,0.0112862,7806.005,7500.000,0.472,-0.106,419.607,-29.757,6842.808,6842.790,-11.590,-0.001,0.304,-0.005,0.029,0.016,0.000,0.000,0.000,-0.001,0.708,-0.012,0.706,0.0000000,0.0000000,6840.283,0.000,0.000,0.000,0,00:00:00,0,0.000,0.000,0.000,0.000,0.000,0.000,0.000,0.000,0.000,0.000,0.000,0.000,0.000,0.000
44.755,3,0,-0.796,-0.224,6858.141,-0.729,-0.352,145.046,-0.403,-0.164,-11.654,70.000,0.000,0.0112862,7804.693,7500.000,0.469,-0.110,418.721,-29.855,6857.884,6857.867,-11.654,0.024,0.427,0.009,0.022,0.027,0.000,0.000,0.000,0.000,0.708,-0.011,0.706,0.0000000,0.0000000,6854.885,0.000,0.000,0.000,0,00:00:00,0,0.000,0.000,0.000,0.000,0.000,0.000,0.000,0.000,0.000,0.000,0.000,0.000,0.000,0.000
44.856,3,0,-0.789,-0.235,6872.698,-0.737,-0.363,143.858,-0.495,-0.231,-11.515,70.000,0.000,0.0112862,7806.427,7500.000,0.465,-0.105,417.862,-29.951,6872.507,6872.490,-11.519,-0.034,0.452,0.009,-0.008,-0.016,0.000,0.000,0.000,0.001,0.706,-0.011,0.708,0.0000000,0.0000000,6869.372,0.000,0.000,0.000,0,00:00:00,0,0.000,0.000,0.000,0.000,0.000,0.000,0.000,0.000,0.000,0.000,0.000,0.000,0.000,0.000
44.957,3,0,-0.782,-0.247,6887.032,-0.737,-0.384,142.606,-0.409,-0.338,-11.385,70.000,0.000,0.0112862,7806.225,7500.000,0.461,0.227,417.059,-30.046,6886.206,6886.188,-11.391,-0.130,0.353,0.012,0.048,0.011,0.000,0.000,0.000,0.002,0.705,-0.011,0.709,0.0000000,0.0000000,6883.744,0.000,0.000,0.000,0,00:00:00,0,0.000,0.000,0.000,0.000,0.000,0.000,0.000,0.000,0.000,0.000,0.000,0.000,0.000,0.000
45.058,3,0,-0.777,-0.260,6901.308,-0.745,-0.408,141.397,-0.487,-0.378,-11.459,70.000,0.000,0.0112862,7804.969,7500.000,0.457,0.300,416.199,-30.137,6900.901,6900.884,-11.469,-0.156,0.374,0.011,-0.010,0.009,0.000,0.000,0.000,0.002,0.703,-0.011,0.711,0.0000000,0.0000000,6898.001,0.000,0.000,0.000,0,00:00:00,0,0.000,0.000,0.000,0.000,0.000,0.000,0.000,0.000,0.000,0.000,0.000,0.000,0.000,0.000
45.159,3,0,-0.772,-0.274,6915.432,-0.755,-0.425,140.148,-0.511,-0.312,-11.644,70.000,0.000,0.0112862,7804.114,7500.000,0.453,0.586,415.384,-30.230,6914.852,6914.835,-11.654,-0.014,0.340,0.063,-0.038,0.013,0.000,0.000,0.000,0.005,0.702,-0.013,0.712,0.0000000,0.0000000,6912.143,0.000,0.000,0.000,0,00:00:00,0,0.000,0.000,0.000,0.000,0.000,0.000,0.000,0.000,0.000,0.000,0.000,0.000,0.000,0.000
45.260,3,0,-0.769,-0.288,6929.522,-0.766,-0.441,138.981,-0.516,-0.304,-11.509,70.000,0.000,0.0112862,7802.543,7500.000,0.449,0.858,414.530,-30.320,6929.500,6929.483,-11.521,-0.032,0.298,-0.021,-0.034,-0.032,0.000,0.000,0.000,0.004,0.700,-0.013,0.714,0.0000000,0.0000000,6926.171,0.000,0.000,0.000,0,00:00:00,0,0.000,0.000,0.000,0.000,0.000,0.000,0.000,0.000,0.000,0.000,0.000,0.000,0.000,0.000
45.361,3,0,-0.768,-0.302,6943.421,-0.775,-0.466,137.776,-0.489,-0.408,-11.332,70.000,0.000,0.0112862,7804.614,7500.000,0.446,1.105,413.746,-30.416,6942.947,6942.930,-11.345,-0.157,0.281,-0.014,0.021,0.008,0.000,0.000,0.000,0.003,0.700,-0.012,0.714,0.0000000,0.0000000,6940.085,0.000,0.000,0.000,0,00:00:00,0,0.000,0.000,0.000,0.000,0.000,0.000,0.000,0.000,0.000,0.000,0.000,0.000,0.000,0.000
45.462,3,0,-0.768,-0.317,6957.249,-0.806,-0.476,136.597,-0.708,-0.265,-11.469,70.000,0.000,0.0112862,7803.973,7500.000,0.442,1.078,412.924,-30.504,6957.090,6957.073,-11.485,-0.035,0.458,-0.023,-0.003,0.012,0.000,0.000,0.000,0.003,0.699,-0.010,0.715,0.0000000,0.0000000,6953.886,0.000,0.000,0.000,0,00:00:00,0,0.000,0.000,0.000,0.000,0.000,0.000,0.000,0.000,0.000,0.000,0.000,0.000,0.000,0.000
45.563,3,0,-0.771,-0.332,6970.942,-0.842,-0.489,135.419,-0.766,-0.309,-11.325,70.000,0.000,0.0112862,7803.406,7500.000,0.438,1.260,412.135,-30.594,6970.682,6970.665,-11.345,-0.087,0.466,-0.002,-0.008,0.034,0.000,0.000,0.000,0.004,0.698,-0.009,0.716,0.0000000,0.0000000,6967.573,0.000,0.000,0.000,0,00:00:00,0,0.000,0.000,0.000,0.000,0.000,0.000,0.000,0.000,0.000,0.000,0.000,0.000,0.000,0.000
45.664,3,0,-0.777,-0.346,6984.472,-0.858,-0.499,134.208,-0.563,-0.272,-11.315,70.000,0.000,0.0112862,7802.625,7500.000,0.435,1.527,411.367,-30.683,6983.933,6983.916,-11.328,-0.091,0.276,-0.035,0.007,-0.023,0.000,0.000,0.000,0.002,0.698,-0.009,0.716,0.0000000,0.0000000,6981.146,0.000,0.000,0.000,0,00:00:00,0,0.000,0.000,0.000,0.000,0.000,0.000,0.000,0.000,0.000,0.000,0.000,0.000,0.000,0.000
45.765,3,0,-0.784,-0.359,6997.899,-0.902,-0.493,133.013,-0.851,-0.131,-11.321,70.000,0.000,0.0112862,7801.508,7500.000,0.431,1.466,410.583,-30.772,6997.484,6997.467,-11.341,0.008,0.518,-0.038,0.005,0.021,0.000,0.000,0.000,0.002,0.697,-0.006,0.717,0.0000000,0.0000000,6994.607,0.000,0.000,0.000,0,00:00:00,0,0.000,0.000,0.000,0.000,0.000,0.000,0.000,0.000,0.000,0.000,0.000,0.000,0.000,0.000
45.866,3,0,-0.795,-0.369,7011.206,-0.948,-0.479,131.827,-0.875,-0.056,-11.221,70.000,0.000,0.0112862,7803.033,7500.000,0.427,1.686,409.814,-30.858,7010.793,7010.776,-11.245,0.061,0.484,-0.015,-0.025,0.031,0.000,0.000,0.000,0.004,0.695,-0.004,0.719,0.0000000,0.0000000,7007.956,0.000,0.000,0.000,0,00:00:00,0,0.000,0.000,0.000,0.000,0.000,0.000,0.000,0.000,0.000,0.000,0.000,0.000,0.000,0.000
45.967,3,0,-0.809,-0.378,7024.449,-0.974,-0.463,130.682,-0.685,-0.040,-11.235,70.000,0.000,0.0112862,7802.128,7500.000,0.423,1.995,409.029,-30.944,7024.383,7024.366,-11.250,0.109,0.328,0.028,0.021,-0.028,0.000,0.000,0.000,0.005,0.696,-0.005,0.718,0.0000000,0.0000000,7021.192,0.000,0.000,0.000,0,00:00:00,0,0.000,0.000,0.000,0.000,0.000,0.000,0.000,0.000,0.000,0.000,0.000,0.000,0.000,0.000
46.068,3,0,-0.823,-0.384,7037.542,-1.007,-0.456,129.522,-0.760,-0.135,-11.116,70.000,0.000,0.0112862,7802.081,7500.000,0.420,1.820,408.288,-31.031,7037.257,7037.239,-11.135,0.039,0.395,0.023,0.003,-0.014,0.000,0.000,0.000,0.006,0.695,-0.005,0.719,0.0000000,0.0000000,7034.315,0.000,0.000,0.000,0,00:00:00,0,0.000,0.000,0.000,0.000,0.000,0.000,0.000,0.000,0.000,0.000,0.000,0.000,0.000,0.000
46.169,3,0,-0.840,-0.389,7050.519,-1.032,-0.430,128.359,-0.684,0.047,-11.164,70.000,0.000,0.0112862,7801.467,7500.000,0.416,1.878,407.541,-31.113,7050.242,7050.225,-11.177,0.189,0.361,-0.029,0.053,-0.006,0.000,0.000,0.000,0.006,0.697,-0.003,0.717,0.0000000,0.0000000,7047.328,0.000,0.000,0.000,0,00:00:00,0,0.000,0.000,0.000,0.000,0.000,0.000,0.000,0.000,0.000,0.000,0.000,0.000,0.000,0.000
46.270,3,0,-0.856,-0.391,7063.418,-1.057,-0.425,127.226,-0.696,-0.152,-11.159,70.000,0.000,0.0112862,7800.920,7500.000,0.412,1.656,406.786,-31.201,7063.384,7063.367,-11.175,-0.018,0.377,-0.009,0.026,-0.019,0.000,0.000,0.000,0.005,0.697,-0.004,0.717,0.0000000,0.0000000,7060.228,0.000,0.000,0.000,0,00:00:00,0,0.000,0.000,0.000,0.000,0.000,0.000,0.000,0.000,0.000,0.000,0.000,0.000,0.000,0.000
46.371,3,0,-0.874,-0.393,7076.164,-1.077,-0.414,126.065,-0.664,-0.100,-11.155,70.000,0.000,0.0112862,7803.336,7500.000,0.409,1.636,406.068,-31.283,7075.897,7075.880,-11.169,0.004,0.355,-0.026,0.026,0.024,0.000,0.000,0.000,0.004,0.697,-0.002,0.717,0.0000000,0.0000000,7073.017,0.000,0.000,0.000,0,00:00:00,0,0.000,0.000,0.000,0.000,0.000,0.000,0.000,0.000,0.000,0.000,0.000,0.000,0.000,0.000
46.472,3,0,-0.890,-0.393,7088.801,-1.071,-0.392,124.925,-0.401,0.016,-10.993,70.000,0.000,0.0112862,7802.893,7500.000,0.405,1.587,405.342,-31.367,7088.576,7088.559,-10.999,0.071,0.157,-0.044,0.005,-0.026,0.000,0.000,0.000,0.003,0.699,-0.001,0.715,0.0000000,0.0000000,7085.695,0.000,0.000,0.000,0,00:00:00,0,0.000,0.000,0.000,0.000,0.000,0.000,0.000,0.000,0.000,0.000,0.000,0.000,0.000,0.000
46.573,3,0,-0.904,-0.392,7101.375,-1.072,-0.387,123.807,-0.495,-0.164,-11.165,70.000,0.000,0.0112862,7802.740,7500.000,0.402,1.268,404.604,-31.447,7101.476,7101.459,-11.174,-0.117,0.252,-0.009,0.008,-0.004,0.000,0.000,0.000,0.001,0.699,-0.002,0.715,0.0000000,0.0000000,7098.262,0.000,0.000,0.000,0,00:00:00,0,0.000,0.000,0.000,0.000,0.000,0.000,0.000,0.000,0.000,0.000,0.000,0.000,0.000,0.000
46.674,3,0,-0.918,-0.390,7112.090,-1.073,-0.382,121.385,-0.491,-0.155,-11.166,70.000,0.000,0.0112862,7802.564,7500.000,0.398,1.244,404.604,-31.447,7101.476,7101.459,-11.174,-0.117,0.252,-0.009,0.008,-0.004,0.000,0.000,0.000,-0.001,0.699,-0.003,0.715,0.0000000,0.0000000,7098.262,0.000,0.000,0.000,0,00:00:00,0,0.000,0.000,0.000,0.000,0.000,0.000,0.000,0.000,0.000,0.000,0.000,0.000,0.000,0.000
46.775,3,0,-0.931,-0.387,7124.574,-1.097,-0.356,120.478,-0.726,0.061,-11.045,70.000,0.000,0.0112862,7788.473,7500.000,0.390,1.227,403.187,-31.608,7126.308,7126.290,-11.061,0.096,0.407,-0.001,-0.029,-0.011,0.000,0.000,0.000,0.001,0.697,-0.001,0.717,0.0000000,0.0000000,7123.064,0.000,0.000,0.000,0,00:00:00,0,0.000,0.000,0.000,0.000,0.000,0.000,0.000,0.000,0.000,0.000,0.000,0.000,0.000,0.000
46.876,3,0,-0.945,-0.383,7136.928,-1.110,-0.337,119.561,-0.625,-0.022,-10.873,70.000,0.000,0.0112862,7790.714,7500.000,0.387,1.650,402.497,-31.692,7138.428,7138.410,-10.887,0.037,0.309,0.024,-0.008,0.038,0.000,0.000,0.000,0.003,0.697,-0.001,0.717,0.0000000,0.0000000,7135.301,0.000,0.000,0.000,0,00:00:00,0,0.000,0.000,0.000,0.000,0.000,0.000,0.000,0.000,0.000,0.000,0.000,0.000,0.000,0.000
46.977,3,0,-0.960,-0.377,7149.104,-1.163,-0.323,118.571,-1.033,-0.058,-10.952,70.000,0.000,0.0112862,7792.945,7500.000,0.385,1.665,401.834,-31.771,7150.077,7150.059,-10.984,-0.004,0.596,-0.003,-0.014,0.011,0.000,0.000,0.000,0.003,0.693,-0.001,0.721,0.0000000,0.0000000,7147.427,0.000,0.000,0.000,0,00:00:00,0,0.000,0.000,0.000,0.000,0.000,0.000,0.000,0.000,0.000,0.000,0.000,0.000,0.000,0.000
47.078,3,0,-0.977,-0.370,7161.256,-1.186,-0.304,117.645,-0.736,-0.006,-10.891,70.000,0.000,0.0112862,7793.685,7500.000,0.381,2.280,401.117,-31.853,7162.699,7162.682,-10.911,0.042,0.343,-0.004,0.001,0.019,0.000,0.000,0.000,0.003,0.694,-0.000,0.720,0.0000000,0.0000000,7159.443,0.000,0.000,0.000,0,00:00:00,0,0.000,0.000,0.000,0.000,0.000,0.000,0.000,0.000,0.000,0.000,0.000,0.000,0.000,0.000
47.179,3,0,-0.995,-0.363,7171.625,-1.205,-0.285,115.455,-0.713,-0.001,-10.893,70.000,0.000,0.0112862,7795.804,7500.000,0.379,2.068,401.117,-31.853,7162.699,7162.682,-10.911,0.042,0.343,-0.004,0.001,0.019,0.000,0.000,0.000,0.003,0.695,0.000,0.719,0.0000000,0.0000000,7159.443,0.000,0.000,0.000,0,00:00:00,0,0.000,0.000,0.000,0.000,0.000,0.000,0.000,0.000,0.000,0.000,0.000,0.000,0.000,0.000
47.280,3,0,-1.011,-0.355,7183.657,-1.183,-0.281,114.698,-0.310,-0.149,-10.649,70.000,0.000,0.0112862,7785.174,7500.000,0.371,1.948,399.781,-32.003,7186.286,7186.269,-10.654,-0.104,0.094,0.002,0.022,0.030,0.000,0.000,0.000,0.001,0.700,-0.002,0.714,0.0000000,0.0000000,7183.147,0.000,0.000,0.000,0,00:00:00,0,0.000,0.000,0.000,0.000,0.000,0.000,0.000,0.000,0.000,0.000,0.000,0.000,0.000,0.000
47.381,3,0,-1.023,-0.347,7193.938,-1.152,-0.278,112.688,-0.236,-0.150,-10.651,70.000,0.000,0.0112862,7789.637,7500.000,0.369,1.163,399.781,-32.003,7186.286,7186.269,-10.654,-0.104,0.094,0.002,0.022,0.030,0.000,0.000,0.000,0.000,0.702,-0.003,0.712,0.0000000,0.0000000,7183.147,0.000,0.000,0.000,0,00:00:00,0,0.000,0.000,0.000,0.000,0.000,0.000,0.000,0.000,0.000,0.000,0.000,0.000,0.000,0.000
47.482,3,0,-1.033,-0.339,7205.823,-1.167,-0.258,112.009,-0.692,0.018,-10.860,70.000,0.000,0.0112862,7778.588,7500.000,0.363,0.770,398.481,-32.156,7209.273,7209.256,-10.874,0.035,0.422,-0.027,0.001,0.019,0.000,0.000,0.000,0.001,0.698,-0.000,0.716,0.0000000,0.0000000,7206.416,0.000,0.000,0.000,0,00:00:00,0,0.000,0.000,0.000,0.000,0.000,0.000,0.000,0.000,0.000,0.000,0.000,0.000,0.000,0.000
47.583,3,0,-1.043,-0.330,7217.607,-1.180,-0.236,111.302,-0.676,0.043,-10.900,70.000,0.000,0.0112862,7782.966,7500.000,0.361,1.424,397.828,-32.232,7220.856,7220.839,-10.915,0.038,0.367,-0.021,0.007,-0.011,0.000,0.000,0.000,0.000,0.697,0.001,0.717,0.0000000,0.0000000,7217.887,0.000,0.000,0.000,0,00:00:00,0,0.000,0.000,0.000,0.000,0.000,0.000,0.000,0.000,0.000,0.000,0.000,0.000,0.000,0.000
47.684,3,0,-1.054,-0.319,7229.270,-1.184,-0.215,110.561,-0.598,0.040,-10.862,70.000,0.000,0.0112862,7789.696,7500.000,0.358,1.620,397.188,-32.309,7232.214,7232.197,-10.873,0.025,0.314,-0.007,0.045,0.014,0.000,0.000,0.000,0.000,0.698,0.001,0.716,0.0000000,0.0000000,7229.250,0.000,0.000,0.000,0,00:00:00,0,0.000,0.000,0.000,0.000,0.000,0.000,0.000,0.000,0.000,0.000,0.000,0.000,0.000,0.000
47.785,3,0,-1.063,-0.308,7240.819,-1.188,-0.187,109.807,-0.590,0.116,-10.695,70.000,0.000,0.0112862,7793.858,7500.000,0.356,1.495,396.552,-32.381,7243.518,7243.501,-10.707,0.131,0.293,0.029,-0.020,-0.006,0.000,0.000,0.000,0.003,0.697,0.002,0.717,0.0000000,0.0000000,7240.505,0.000,0.000,0.000,0,00:00:00,0,0.000,0.000,0.000,0.000,0.000,0.000,0.000,0.000,0.000,0.000,0.000,0.000,0.000,0.000
47.886,3,0,-1.072,-0.295,7252.288,-1.184,-0.168,109.048,-0.533,0.039,-10.717,70.000,0.000,0.0112862,7797.640,7500.000,0.354,1.590,395.909,-32.454,7254.959,7254.942,-10.727,0.033,0.260,-0.021,0.010,0.001,0.000,0.000,0.000,0.002,0.698,0.002,0.716,0.0000000,0.0000000,7251.651,0.000,0.000,0.000,0,00:00:00,0,0.000,0.000,0.000,0.000,0.000,0.000,0.000,0.000,0.000,0.000,0.000,0.000,0.000,0.000
47.987,3,0,-1.080,-0.282,7263.588,-1.184,-0.143,108.215,-0.567,0.095,-10.772,70.000,0.000,0.0112862,7801.401,7500.000,0.351,1.461,395.307,-32.525,7265.695,7265.678,-10.783,0.102,0.288,0.013,0.004,-0.018,0.000,0.000,0.000,0.003,0.698,0.002,0.716,0.0000000,0.0000000,7262.690,0.000,0.000,0.000,0,00:00:00,0,0.000,0.000,0.000,0.000,0.000,0.000,0.000,0.000,0.000,0.000,0.000,0.000,0.000,0.000
48.088,3,0,-1.088,-0.269,7274.776,-1.207,-0.148,107.366,-0.797,-0.188,-10.723,70.000,0.000,0.0112862,7804.140,7500.000,0.349,1.484,394.689,-32.600,7276.718,7276.701,-10.744,-0.157,0.442,0.018,0.006,-0.002,0.000,0.000,0.000,-0.001,0.695,-0.002,0.719,0.0000000,0.0000000,7273.622,0.000,0.000,0.000,0,00:00:00,0,0.000,0.000,0.000,0.000,0.000,0.000,0.000,0.000,0.000,0.000,0.000,0.000,0.000,0.000
48.189,3,0,-1.096,-0.257,7285.858,-1.203,-0.142,106.491,-0.532,-0.075,-10.837,70.000,0.000,0.0112862,7806.367,7500.000,0.346,1.902,394.076,-32.668,7287.672,7287.655,-10.847,-0.060,0.235,-0.014,0.007,0.020,0.000,0.000,0.000,-0.001,0.697,-0.002,0.717,0.0000000,0.0000000,7284.445,0.000,0.000,0.000,0,00:00:00,0,0.000,0.000,0.000,0.000,0.000,0.000,0.000,0.000,0.000,0.000,0.000,0.000,0.000,0.000
48.290,3,0,-1.105,-0.244,7296.778,-1.232,-0.120,105.580,-0.876,0.084,-10.635,70.000,0.000,0.0112862,7808.652,7500.000,0.343,1.570,393.491,-32.739,7298.138,7298.121,-10.660,0.102,0.485,0.004,-0.006,-0.030,0.000,0.000,0.000,0.001,0.694,-0.000,0.720,0.0000000,0.0000000,7295.162,0.000,0.000,0.000,0,00:00:00,0,0.000,0.000,0.000,0.000,0.000,0.000,0.000,0.000,0.000,0.000,0.000,0.000,0.000,0.000
48.391,3,0,-1.114,-0.232,7307.619,-1.234,-0.107,104.677,-0.599,0.007,-10.652,70.000,0.000,0.0112862,7812.619,7500.000,0.340,2.104,392.881,-32.808,7309.060,7309.043,-10.665,0.014,0.265,-0.009,-0.009,0.047,0.000,0.000,0.000,0.002,0.696,0.001,0.718,0.0000000,0.0000000,7305.772,0.000,0.000,0.000,0,00:00:00,0,0.000,0.000,0.000,0.000,0.000,0.000,0.000,0.000,0.000,0.000,0.000,0.000,0.000,0.000
48.492,3,0,-1.123,-0.220,7318.336,-1.253,-0.106,103.749,-0.779,-0.106,-10.664,70.000,0.000,0.0112862,7814.781,7500.000,0.337,1.790,392.295,-32.876,7319.571,7319.554,-10.685,-0.081,0.407,0.014,-0.005,-0.030,0.000,0.000,0.000,-0.000,0.695,-0.002,0.719,0.0000000,0.0000000,7316.275,0.000,0.000,0.000,0,00:00:00,0,0.000,0.000,0.000,0.000,0.000,0.000,0.000,0.000,0.000,0.000,0.000,0.000,0.000,0.000
48.593,3,0,-1.133,-0.208,7328.889,-1.274,-0.093,102.783,-0.802,0.019,-10.502,70.000,0.000,0.0112862,7816.220,7500.000,0.335,2.000,391.731,-32.945,7329.689,7329.672,-10.524,0.068,0.406,0.026,-0.018,0.013,0.000,0.000,0.000,0.002,0.694,-0.001,0.720,0.0000000,0.0000000,7326.671,0.000,0.000,0.000,0,00:00:00,0,0.000,0.000,0.000,0.000,0.000,0.000,0.000,0.000,0.000,0.000,0.000,0.000,0.000,0.000
48.694,3,0,-1.144,-0.198,7339.252,-1.282,-0.098,101.747,-0.690,-0.152,-10.533,70.000,0.000,0.0112862,7817.151,7500.000,0.331,2.157,391.185,-33.010,7339.493,7339.476,-10.551,-0.105,0.331,-0.003,0.010,0.022,0.000,0.000,0.000,0.001,0.695,-0.003,0.719,0.0000000,0.0000000,7336.961,0.000,0.000,0.000,0,00:00:00,0,0.000,0.000,0.000,0.000,0.000,0.000,0.000,0.000,0.000,0.000,0.000,0.000,0.000,0.000
48.795,3,0,-1.155,-0.188,7349.589,-1.298,-0.098,100.752,-0.762,-0.101,-10.699,70.000,0.000,0.0112862,7817.417,7500.000,0.328,1.950,390.584,-33.079,7350.308,7350.291,-10.719,-0.058,0.398,-0.005,0.030,0.003,0.000,0.000,0.000,-0.000,0.695,-0.003,0.719,0.0000000,0.0000000,7347.145,0.000,0.000,0.000,0,00:00:00,0,0.000,0.000,0.000,0.000,0.000,0.000,0.000,0.000,0.000,0.000,0.000,0.000,0.000,0.000
48.896,3,0,-1.166,-0.180,7359.726,-1.314,-0.109,99.679,-0.774,-0.198,-10.742,70.000,0.000,0.0112862,7820.430,7500.000,0.325,1.951,390.055,-33.144,7359.846,7359.828,-10.764,-0.128,0.403,0.023,0.020,0.002,0.000,0.000,0.000,-0.001,0.695,-0.005,0.719,0.0000000,0.0000000,7357.222,0.000,0.000,0.000,0,00:00:00,0,0.000,0.000,0.000,0.000,0.000,0.000,0.000,0.000,0.000,0.000,0.000,0.000,0.000,0.000
48.997,3,0,-1.178,-0.173,7369.825,-1.350,-0.113,98.674,-0.971,-0.132,-10.582,70.000,0.000,0.0112862,7820.429,7500.000,0.322,1.989,389.472,-33.210,7370.365,7370.348,-10.614,-0.077,0.518,-0.013,-0.022,0.019,0.000,0.000,0.000,-0.001,0.692,-0.004,0.722,0.0000000,0.0000000,7367.193,0.000,0.000,0.000,0,00:00:00,0,0.000,0.000,0.000,0.000,0.000,0.000,0.000,0.000,0.000,0.000,0.000,0.000,0.000,0.000
49.098,3,0,-1.193,-0.167,7379.788,-1.391,-0.118,97.637,-1.030,-0.135,-10.644,70.000,0.000,0.0112862,7820.736,7500.000,0.318,2.454,388.932,-33.277,7380.116,7380.099,-10.681,-0.088,0.524,-0.005,-0.034,0.036,0.000,0.000,0.000,-0.001,0.690,-0.003,0.724,0.0000000,0.0000000,7377.059,0.000,0.000,0.000,0,00:00:00,0,0.000,0.000,0.000,0.000,0.000,0.000,0.000,0.000,0.000,0.000,0.000,0.000,0.000,0.000
49.199,3,0,-1.209,-0.162,7389.620,-1.415,-0.117,96.598,-0.878,-0.077,-10.461,70.000,0.000,0.0112862,7820.698,7500.000,0.315,2.727,388.397,-33.338,7389.786,7389.769,-10.490,-0.039,0.412,-0.008,-0.023,-0.001,0.000,0.000,0.000,-0.001,0.691,-0.003,0.723,0.0000000,0.0000000,7386.819,0.000,0.000,0.000,0,00:00:00,0,0.000,0.000,0.000,0.000,0.000,0.000,0.000,0.000,0.000,0.000,0.000,0.000,0.000,0.000
49.300,3,0,-1.226,-0.158,7397.984,-1.437,-0.115,94.541,-0.863,-0.068,-10.462,70.000,0.000,0.0112862,7820.849,7500.000,0.312,2.553,388.397,-33.338,7389.786,7389.769,-10.490,-0.039,0.412,-0.008,-0.023,-0.001,0.000,0.000,0.000,-0.001,0.692,-0.002,0.722,0.0000000,0.0000000,7386.819,0.000,0.000,0.000,0,00:00:00,0,0.000,0.000,0.000,0.000,0.000,0.000,0.000,0.000,0.000,0.000,0.000,0.000,0.000,0.000
49.401,3,0,-1.244,-0.153,7407.700,-1.452,-0.113,93.645,-0.801,-0.061,-10.509,70.000,0.000,0.0112862,7812.718,7500.000,0.305,2.466,387.331,-33.464,7409.075,7409.057,-10.533,-0.049,0.375,-0.014,-0.023,0.031,0.000,0.000,0.000,-0.001,0.693,-0.001,0.721,0.0000000,0.0000000,7406.023,0.000,0.000,0.000,0,00:00:00,0,0.000,0.000,0.000,0.000,0.000,0.000,0.000,0.000,0.000,0.000,0.000,0.000,0.000,0.000
49.502,3,0,-1.260,-0.150,7417.317,-1.466,-0.124,92.747,-0.806,-0.181,-10.460,70.000,0.000,0.0112862,7814.452,7500.000,0.302,2.319,386.805,-33.526,7418.631,7418.614,-10.484,-0.118,0.402,0.048,0.014,0.008,0.000,0.000,0.000,-0.000,0.693,-0.004,0.721,0.0000000,0.0000000,7415.468,0.000,0.000,0.000,0,00:00:00,0,0.000,0.000,0.000,0.000,0.000,0.000,0.000,0.000,0.000,0.000,0.000,0.000,0.000,0.000
49.603,3,0,-1.275,-0.148,7426.780,-1.440,-0.136,91.806,-0.412,-0.205,-10.414,70.000,0.000,0.0112862,7816.025,7500.000,0.299,2.217,386.305,-33.587,7427.710,7427.693,-10.422,-0.179,0.134,-0.032,-0.021,0.015,0.000,0.000,0.000,-0.003,0.698,-0.005,0.717,0.0000000,0.0000000,7424.808,0.000,0.000,0.000,0,00:00:00,0,0.000,0.000,0.000,0.000,0.000,0.000,0.000,0.000,0.000,0.000,0.000,0.000,0.000,0.000
49.704,3,0,-1.287,-0.146,7436.148,-1.436,-0.123,90.881,-0.633,0.059,-10.253,70.000,0.000,0.0112862,7817.324,7500.000,0.296,1.537,385.790,-33.649,7437.070,7437.053,-10.267,0.084,0.332,-0.000,0.006,-0.007,0.000,0.000,0.000,0.000,0.697,-0.001,0.717,0.0000000,0.0000000,7434.042,0.000,0.000,0.000,0,00:00:00,0,0.000,0.000,0.000,0.000,0.000,0.000,0.000,0.000,0.000,0.000,0.000,0.000,0.000,0.000
49.805,3,0,-1.298,-0.143,7445.411,-1.445,-0.127,89.929,-0.772,-0.119,-10.437,70.000,0.000,0.0112862,7818.265,7500.000,0.294,1.679,385.284,-33.708,7446.270,7446.253,-10.458,-0.111,0.419,-0.019,0.017,-0.012,0.000,0.000,0.000,-0.002,0.695,-0.003,0.719,0.0000000,0.0000000,7443.172,0.000,0.000,0.000,0,00:00:00,0,0.000,0.000,0.000,0.000,0.000,0.000,0.000,0.000,0.000,0.000,0.000,0.000,0.000,0.000
49.906,3,0,-1.309,-0.141,7454.546,-1.453,-0.109,88.950,-0.768,0.103,-10.486,70.000,0.000,0.0112862,7821.416,7500.000,0.290,1.940,384.793,-33.765,7455.215,7455.198,-10.506,0.110,0.391,0.001,-0.007,-0.018,0.000,0.000,0.000,0.001,0.694,0.000,0.720,0.0000000,0.0000000,7452.198,0.000,0.000,0.000,0,00:00:00,0,0.000,0.000,0.000,0.000,0.000,0.000,0.000,0.000,0.000,0.000,0.000,0.000,0.000,0.000
50.007,3,0,-1.320,-0.137,7463.609,-1.481,-0.086,88.005,-0.968,0.161,-10.329,70.000,0.000,0.0112862,7822.082,7500.000,0.287,2.057,384.287,-33.827,7464.436,7464.419,-10.361,0.157,0.529,-0.006,0.016,0.007,0.000,0.000,0.000,0.003,0.692,0.003,0.722,0.0000000,0.0000000,7461.120,0.000,0.000,0.000,0,00:00:00,0,0.000,0.000,0.000,0.000,0.000,0.000,0.000,0.000,0.000,0.000,0.000,0.000,0.000,0.000
50.108,3,0,-1.332,-0.131,7472.531,-1.475,-0.077,87.023,-0.645,0.020,-10.362,70.000,0.000,0.0112862,7822.823,7500.000,0.284,2.442,383.814,-33.883,7473.077,7473.060,-10.379,0.028,0.286,0.007,0.009,-0.011,0.000,0.000,0.000,0.002,0.695,0.001,0.719,0.0000000,0.0000000,7469.937,0.000,0.000,0.000,0,00:00:00,0,0.000,0.000,0.000,0.000,0.000,0.000,0.000,0.000,0.000,0.000,0.000,0.000,0.000,0.000
50.209,3,0,-1.341,-0.125,7480.117,-1.465,-0.069,85.116,-0.603,0.012,-10.365,70.000,0.000,0.0112862,7823.537,7500.000,0.281,1.983,383.814,-33.883,7473.077,7473.060,-10.379,0.028,0.286,0.007,0.009,-0.011,0.000,0.000,0.000,0.002,0.696,0.001,0.718,0.0000000,0.0000000,7469.937,0.000,0.000,0.000,0,00:00:00,0,0.000,0.000,0.000,0.000,0.000,0.000,0.000,0.000,0.000,0.000,0.000,0.000,0.000,0.000
50.310,3,0,-1.349,-0.120,7488.908,-1.453,-0.067,84.254,-0.594,-0.044,-10.369,70.000,0.000,0.0112862,7814.790,7500.000,0.275,1.753,382.864,-33.995,7490.443,7490.426,-10.381,-0.002,0.298,0.026,0.021,0.038,0.000,0.000,0.000,0.003,0.697,-0.000,0.717,0.0000000,0.0000000,7487.259,0.000,0.000,0.000,0,00:00:00,0,0.000,0.000,0.000,0.000,0.000,0.000,0.000,0.000,0.000,0.000,0.000,0.000,0.000,0.000
50.411,3,0,-1.353,-0.115,7497.586,-1.417,-0.061,83.369,-0.355,0.002,-10.398,70.000,0.000,0.0112862,7819.015,7500.000,0.272,1.637,382.399,-34.053,7498.959,7498.941,-10.403,0.053,0.137,0.007,-0.002,-0.026,0.000,0.000,0.000,0.003,0.700,-0.001,0.714,0.0000000,0.0000000,7495.765,0.000,0.000,0.000,0,00:00:00,0,0.000,0.000,0.000,0.000,0.000,0.000,0.000,0.000,0.000,0.000,0.000,0.000,0.000,0.000
50.512,3,0,-1.355,-0.109,7506.140,-1.396,-0.045,82.457,-0.502,0.099,-10.414,70.000,0.000,0.0112862,7820.601,7500.000,0.269,1.199,381.943,-34.106,7507.305,7507.287,-10.423,0.115,0.267,-0.033,0.013,-0.017,0.000,0.000,0.000,0.003,0.699,0.002,0.715,0.0000000,0.0000000,7504.167,0.000,0.000,0.000,0,00:00:00,0,0.000,0.000,0.000,0.000,0.000,0.000,0.000,0.000,0.000,0.000,0.000,0.000,0.000,0.000
50.613,3,0,-1.355,-0.103,7514.583,-1.388,-0.050,81.533,-0.634,-0.102,-10.391,70.000,0.000,0.0112862,7821.680,7500.000,0.267,1.295,381.489,-34.162,7515.630,7515.612,-10.405,-0.076,0.348,0.009,0.011,0.037,0.000,0.000,0.000,0.001,0.697,-0.000,0.717,0.0000000,0.0000000,7512.465,0.000,0.000,0.000,0,00:00:00,0,0.000,0.000,0.000,0.000,0.000,0.000,0.000,0.000,0.000,0.000,0.000,0.000,0.000,0.000
50.714,3,0,-1.355,-0.098,7521.762,-1.382,-0.056,79.734,-0.659,-0.111,-10.389,70.000,0.000,0.0112862,7822.487,7500.000,0.264,1.575,381.489,-34.162,7515.630,7515.612,-10.405,-0.076,0.348,0.009,0.011,0.037,0.000,0.000,0.000,0.001,0.696,-0.002,0.718,0.0000000,0.0000000,7512.465,0.000,0.000,0.000,0,00:00:00,0,0.000,0.000,0.000,0.000,0.000,0.000,0.000,0.000,0.000,0.000,0.000,0.000,0.000,0.000
50.815,3,0,-1.354,-0.094,7527.780,-1.378,-0.063,77.203,-0.672,-0.120,-10.388,70.000,0.000,0.0112862,7817.418,7500.000,0.258,1.716,381.489,-34.162,7515.630,7515.612,-10.405,-0.076,0.348,0.009,0.011,0.037,0.000,0.000,0.000,0.001,0.696,-0.002,0.718,0.0000000,0.0000000,7512.465,0.000,0.000,0.000,0,00:00:00,0,0.000,0.000,0.000,0.000,0.000,0.000,0.000,0.000,0.000,0.000,0.000,0.000,0.000,0.000
50.916,3,0,-1.353,-0.092,7536.132,-1.378,-0.077,76.631,-0.712,-0.191,-10.163,70.000,0.000,0.0112862,7803.871,7500.000,0.250,1.786,380.170,-34.320,7539.874,7539.857,-10.182,-0.130,0.371,0.014,0.003,-0.019,0.000,0.000,0.000,-0.001,0.695,-0.005,0.719,0.0000000,0.0000000,7536.742,0.000,0.000,0.000,0,00:00:00,0,0.000,0.000,0.000,0.000,0.000,0.000,0.000,0.000,0.000,0.000,0.000,0.000,0.000,0.000
51.017,3,0,-1.353,-0.090,7544.346,-1.385,-0.081,75.986,-0.772,-0.088,-10.282,70.000,0.000,0.0112862,7807.753,7500.000,0.248,1.928,379.751,-34.370,7547.597,7547.580,-10.303,0.019,0.402,0.046,0.007,0.000,0.000,0.000,0.000,0.002,0.694,-0.005,0.720,0.0000000,0.0000000,7544.628,0.000,0.000,0.000,0,00:00:00,0,0.000,0.000,0.000,0.000,0.000,0.000,0.000,0.000,0.000,0.000,0.000,0.000,0.000,0.000
51.118,3,0,-1.353,-0.090,7551.354,-1.392,-0.090,74.488,-0.785,-0.134,-10.280,70.000,0.000,0.0112862,7810.940,7500.000,0.246,2.062,379.751,-34.370,7547.597,7547.580,-10.303,0.019,0.402,0.046,0.007,0.000,0.000,0.000,0.000,0.005,0.694,-0.006,0.720,0.0000000,0.0000000,7544.628,0.000,0.000,0.000,0,00:00:00,0,0.000,0.000,0.000,0.000,0.000,0.000,0.000,0.000,0.000,0.000,0.000,0.000,0.000,0.000
51.219,3,0,-1.353,-0.090,7559.435,-1.397,-0.094,73.908,-0.766,-0.088,-10.262,70.000,0.000,0.0112862,7808.906,7500.000,0.241,2.129,378.904,-34.472,7563.201,7563.184,-10.283,0.074,0.386,0.011,0.007,0.009,0.000,0.000,0.000,0.007,0.694,-0.004,0.720,0.0000000,0.0000000,7560.092,0.000,0.000,0.000,0,00:00:00,0,0.000,0.000,0.000,0.000,0.000,0.000,0.000,0.000,0.000,0.000,0.000,0.000,0.000,0.000
51.320,3,0,-1.354,-0.091,7567.405,-1.383,-0.121,73.293,-0.569,-0.312,-10.208,70.000,0.000,0.0112862,7812.785,7500.000,0.239,2.118,378.491,-34.522,7570.837,7570.820,-10.225,-0.119,0.251,0.027,-0.012,-0.011,0.000,0.000,0.000,0.005,0.696,-0.008,0.718,0.0000000,0.0000000,7567.670,0.000,0.000,0.000,0,00:00:00,0,0.000,0.000,0.000,0.000,0.000,0.000,0.000,0.000,0.000,0.000,0.000,0.000,0.000,0.000
51.421,3,0,-1.353,-0.094,7575.249,-1.384,-0.120,72.646,-0.720,-0.040,-10.052,70.000,0.000,0.0112862,7816.393,7500.000,0.237,1.795,378.087,-34.570,7578.292,7578.275,-10.069,0.145,0.385,0.001,0.030,0.022,0.000,0.000,0.000,0.009,0.695,-0.005,0.719,0.0000000,0.0000000,7575.146,0.000,0.000,0.000,0,00:00:00,0,0.000,0.000,0.000,0.000,0.000,0.000,0.000,0.000,0.000,0.000,0.000,0.000,0.000,0.000
51.522,3,0,-1.352,-0.096,7582.971,-1.365,-0.126,71.934,-0.528,-0.107,-10.285,70.000,0.000,0.0112862,7819.505,7500.000,0.235,1.908,377.688,-34.620,7585.670,7585.653,-10.296,0.060,0.232,-0.023,-0.016,0.004,0.000,0.000,0.000,0.008,0.697,-0.004,0.717,0.0000000,0.0000000,7582.519,0.000,0.000,0.000,0,00:00:00,0,0.000,0.000,0.000,0.000,0.000,0.000,0.000,0.000,0.000,0.000,0.000,0.000,0.000,0.000
51.623,3,0,-1.350,-0.099,7590.552,-1.355,-0.126,71.176,-0.611,-0.054,-10.223,70.000,0.000,0.0112862,7822.125,7500.000,0.233,1.644,377.301,-34.668,7592.826,7592.809,-10.237,0.100,0.303,-0.013,-0.017,-0.009,0.000,0.000,0.000,0.008,0.696,-0.003,0.718,0.0000000,0.0000000,7589.790,0.000,0.000,0.000,0,00:00:00,0,0.000,0.000,0.000,0.000,0.000,0.000,0.000,0.000,0.000,0.000,0.000,0.000,0.000,0.000
51.724,3,0,-1.347,-0.102,7598.066,-1.354,-0.139,70.423,-0.692,-0.186,-10.250,70.000,0.000,0.0112862,7824.173,7500.000,0.230,1.719,376.893,-34.716,7600.402,7600.385,-10.269,-0.020,0.354,0.010,-0.014,-0.017,0.000,0.000,0.000,0.006,0.695,-0.005,0.719,0.0000000,0.0000000,7596.959,0.000,0.000,0.000,0,00:00:00,0,0.000,0.000,0.000,0.000,0.000,0.000,0.000,0.000,0.000,0.000,0.000,0.000,0.000,0.000
51.825,3,0,-1.344,-0.106,7605.403,-1.342,-0.156,69.590,-0.593,-0.219,-10.293,70.000,0.000,0.0112862,7826.161,7500.000,0.228,1.885,376.530,-34.758,7607.118,7607.101,-10.308,-0.045,0.289,0.005,0.017,-0.008,0.000,0.000,0.000,0.005,0.697,-0.007,0.717,0.0000000,0.0000000,7604.026,0.000,0.000,0.000,0,00:00:00,0,0.000,0.000,0.000,0.000,0.000,0.000,0.000,0.000,0.000,0.000,0.000,0.000,0.000,0.000
